{
  "resourceType": "Bundle",
  "id": "eb0c2609-9366-4b34-b0d6-6db88bf1da52",
  "meta": {
    "profile": [
      "http://hl7.eu/fhir/laboratory/StructureDefinition/Bundle-eu-lab"
    ]
  },
  "identifier": {
    "assigner": {
      "display": "HL7 Europe"
    },
    "system": "urn:oid:2.16.840.1.113883.2.51.999",
    "value": "bbe0e5cb-42b3-4268-b12c-c90fee44119f"
  },
  "entry": [
    {
      "fullUrl": "urn:uuid:ce8c6cef-3126-49b4-b889-f4d1e3835ac1",
      "resource": {
        "resourceType": "Composition",
        "id": "ce8c6cef-3126-49b4-b889-f4d1e3835ac1",
        "meta": {
          "profile": [
            "http://hl7.eu/fhir/laboratory/StructureDefinition/Composition-eu-lab"
          ]
        },
        "identifier": {
          "assigner": {
            "display": "HL7 Europe"
          },
          "system": "urn:oid:2.16.840.1.113883.2.51.999",
          "value": "2315bcaa-c78d-4e24-8dca-255b9406721e"
        },
        "author": [
          {
            "reference": "urn:uuid:35cc20ac-209b-4c74-95f7-330a213e5532"
          }
        ],
        "category": [
          {
            "coding": [
              {
                "code": "26436-6",
                "system": "http://loinc.org",
                "display": "Laboratory studies (set)"
              }
            ]
          }
        ],
        "type": {
          "coding": [
            {
              "code": "11502-2",
              "system": "http://loinc.org",
              "display": "Laboratory report"
            }
          ],
          "text": "Laboratory Report"
        },
        "section": [
          {
            "code": {
              "coding": [
                {
                  "code": "26436-6",
                  "system": "http://loinc.org",
                  "display": "Laboratory studies (set)"
                }
              ],
              "text": "Laboratory studies"
            },
            "section": [
              {
                "code": {
                  "coding": [
                    {
                      "code": "$18719-5",
                      "system": "http://loinc.org",
                      "display": "Chemistry studies (set)"
                    }
                  ],
                  "text": "Chemistry"
                },
                "entry": [
                  {
                    "reference": "urn:uuid:62309986-995f-4142-8a92-533283c920a3"
                  },
                  {
                    "reference": "urn:uuid:8b37426e-4dca-4159-b4c9-1a75df2a1a4f"
                  },
                  {
                    "reference": "urn:uuid:566c8432-0b0d-438d-b607-7feb822c51d6"
                  },
                  {
                    "reference": "urn:uuid:c28a1db8-f6e3-4dde-a9bc-5817081e1d4e"
                  },
                  {
                    "reference": "urn:uuid:9bb1c46a-2272-45e8-9650-f297fb860a5e"
                  },
                  {
                    "reference": "urn:uuid:9946ce52-808d-4878-ba7c-4759e003cb31"
                  },
                  {
                    "reference": "urn:uuid:f3273012-90e7-4322-9125-0b96991ff710"
                  },
                  {
                    "reference": "urn:uuid:9d5ba589-b293-4d92-a696-6a3563ba51f3"
                  },
                  {
                    "reference": "urn:uuid:aa951609-23ec-4a42-bb07-18db016e8fcb"
                  },
                  {
                    "reference": "urn:uuid:7c016523-1a7b-4386-bd4c-7bd239b5bcea"
                  },
                  {
                    "reference": "urn:uuid:e2cd063b-59b2-4002-9df0-2a777eb8544b"
                  },
                  {
                    "reference": "urn:uuid:fdb7dd43-23cd-4d5a-9c20-256814602d73"
                  },
                  {
                    "reference": "urn:uuid:dc9374ce-15f5-450f-9203-6a605655b4c8"
                  },
                  {
                    "reference": "urn:uuid:baa30f65-14e8-45ed-a335-fecefcc6660a"
                  },
                  {
                    "reference": "urn:uuid:fa5ab39e-3592-4254-9579-7419ff6f51c4"
                  },
                  {
                    "reference": "urn:uuid:c49a40a8-16fe-48b9-8dd0-02200279259d"
                  },
                  {
                    "reference": "urn:uuid:39ff5ba4-2733-4d7c-8dca-625293f99b3e"
                  },
                  {
                    "reference": "urn:uuid:e4233d04-1030-418e-8818-4c2a4e895d63"
                  }
                ],
                "text": {
                  "status": "generated",
                  "div": "<div xmlns=\"http://www.w3.org/1999/xhtml\"><h3>Chemistry</h3><table class=\"hl7__eu__lab__report\"><thead><tr><th>Test</th><th>20-AUG-2024</th><th>Reference&#xA0;Range</th><th>Unit</th></tr></thead><tbody><tr><td>Glucose [Mass/volume] in Serum or Plasma</td><td>97.5</td><td>70 - 99</td><td>mg/dL</td></tr><tr><td>Urea nitrogen [Mass/volume] in Serum or Plasma</td><td>19.0</td><td>7 - 50</td><td>mg/dL</td></tr><tr><td>Creatinine [Mass/volume] in Serum or Plasma</td><td><strong>1.9 H</strong></td><td>0.6 - 1.1</td><td>mg/dL</td></tr><tr><td>Calcium [Mass/volume] in Serum or Plasma</td><td>9.0</td><td>8.6 - 10.4</td><td>mg/dL</td></tr><tr><td>Sodium [Moles/volume] in Serum or Plasma</td><td>138.5</td><td>135 - 145</td><td>mmol/L</td></tr><tr><td>Potassium [Moles/volume] in Serum or Plasma</td><td>5.1</td><td>3.5 - 5.1</td><td>mmol/L</td></tr><tr><td>Chloride [Moles/volume] in Serum or Plasma</td><td>102.1</td><td>98 - 108</td><td>mmol/L</td></tr><tr><td>Carbon dioxide, total [Moles/volume] in Serum or Plasma</td><td>28.0</td><td>22 - 32</td><td>mmol/L</td></tr><tr><td>Ketones [Presence] in Urine by Test strip</td><td>Urine ketone test = ++</td><td></td><td></td></tr><tr><td>Hemoglobin A1c/Hemoglobin.total in Blood</td><td>4.0</td><td>4 - 6.4</td><td>%</td></tr><tr><td>Glucose [Mass/volume] in Blood</td><td>97.5</td><td>70 - 100</td><td>mg/dL</td></tr><tr><td>Urea nitrogen [Mass/volume] in Blood</td><td>19.0</td><td>7 - 43</td><td>mg/dL</td></tr><tr><td>Creatinine [Mass/volume] in Blood</td><td><strong>3.7 H</strong></td><td>0.6 - 1.1</td><td>mg/dL</td></tr><tr><td>Calcium [Mass/volume] in Blood</td><td>9.0</td><td>8.5 - 10.5</td><td>mg/dL</td></tr><tr><td>Sodium [Moles/volume] in Blood</td><td>138.5</td><td>135 - 145</td><td>mmol/L</td></tr><tr><td>Potassium [Moles/volume] in Blood</td><td>5.1</td><td>3.5 - 5.1</td><td>mmol/L</td></tr><tr><td>Chloride [Moles/volume] in Blood</td><td>102.1</td><td>98 - 108</td><td>mmol/L</td></tr><tr><td>Carbon dioxide, total [Moles/volume] in Blood</td><td>28.0</td><td>22 - 29</td><td>mmol/L</td></tr></tbody></table></div>"
                },
                "title": "Chemistry"
              },
              {
                "code": {
                  "coding": [
                    {
                      "code": "$18729-4",
                      "system": "http://loinc.org",
                      "display": "Urinalysis studies (set)"
                    }
                  ],
                  "text": "Urinalysis"
                },
                "entry": [
                  {
                    "reference": "urn:uuid:5c8ad68c-31ea-4c17-bc94-0acf6767091c"
                  },
                  {
                    "reference": "urn:uuid:ef45d349-d05e-422c-9af1-5eb4bc758b31"
                  },
                  {
                    "reference": "urn:uuid:e84127fa-45b9-4bdd-ba39-391dd90c0b43"
                  },
                  {
                    "reference": "urn:uuid:55e2130f-1cdf-47bb-8250-e6572da7f26b"
                  },
                  {
                    "reference": "urn:uuid:ef6a8505-9aec-445f-bcd6-6038006dace8"
                  },
                  {
                    "reference": "urn:uuid:23be3c3b-6353-4ff7-b838-96603aff0048"
                  },
                  {
                    "reference": "urn:uuid:97d3b853-6bdc-467e-b602-561226c5bd0e"
                  },
                  {
                    "reference": "urn:uuid:e5cfb5d8-6080-45b4-80db-dd55e3d30c0e"
                  },
                  {
                    "reference": "urn:uuid:0bd72b16-ec64-4dac-8c81-3385de5cfdb8"
                  },
                  {
                    "reference": "urn:uuid:0379f9ca-3a08-43c5-a3b6-ef24b2367741"
                  },
                  {
                    "reference": "urn:uuid:e012f356-c227-4abe-aa06-cec4cd836630"
                  },
                  {
                    "reference": "urn:uuid:b8128fc8-1a69-4d14-b264-20b8c6a835cb"
                  }
                ],
                "text": {
                  "status": "generated",
                  "div": "<div xmlns=\"http://www.w3.org/1999/xhtml\"><h3>Urinalysis</h3><table class=\"hl7__eu__lab__report\"><thead><tr><th>Test</th><th>20-AUG-2024</th><th>Reference&#xA0;Range</th><th>Unit</th></tr></thead><tbody><tr><td>Glucose [Mass/volume] in Urine by Test strip</td><td><strong>1.6 H</strong></td><td>0.8 - 0</td><td>mg/dL</td></tr><tr><td>Glucose [Presence] in Urine by Test strip</td><td>++</td><td></td><td></td></tr><tr><td>Bilirubin.total [Mass/volume] in Urine by Test strip</td><td>0.7</td><td>0 - 1</td><td>mg/dL</td></tr><tr><td>Bilirubin.total [Presence] in Urine by Test strip</td><td>Finding of bilirubin in urine</td><td></td><td></td></tr><tr><td>Ketones [Mass/volume] in Urine by Test strip</td><td><strong>8.8 H</strong></td><td>0 - 4</td><td>mg/dL</td></tr><tr><td>Specific gravity of Urine by Test strip</td><td><strong>1.0 L</strong></td><td>1.005 - 1.03</td><td>{nominal}</td></tr><tr><td>pH of Urine by Test strip</td><td>5.7</td><td>4.6 - 7</td><td>pH</td></tr><tr><td>Protein [Mass/volume] in Urine by Test strip</td><td><strong>365.0 H</strong></td><td>0 - 14</td><td>mg/dL</td></tr><tr><td>Protein [Presence] in Urine by Test strip</td><td>Urine protein test = ++</td><td></td><td></td></tr><tr><td>Nitrite [Presence] in Urine by Test strip</td><td>Urine nitrite negative</td><td></td><td></td></tr><tr><td>Hemoglobin [Presence] in Urine by Test strip</td><td>Urine blood test = negative</td><td></td><td></td></tr><tr><td>Leukocyte esterase [Presence] in Urine by Test strip</td><td>Urine leukocyte test negative</td><td></td><td></td></tr></tbody></table></div>"
                },
                "title": "Urinalysis"
              },
              {
                "code": {
                  "coding": [
                    {
                      "code": "$LP7846-1",
                      "system": "http://loinc.org",
                      "display": "Specimen information"
                    }
                  ],
                  "text": "Specimen information"
                },
                "entry": [
                  {
                    "reference": "urn:uuid:fa1496a9-dfef-47e6-a57f-43a66ed9ac3b"
                  },
                  {
                    "reference": "urn:uuid:dfd634d8-8485-4183-9249-8d9d450193bc"
                  },
                  {
                    "reference": "urn:uuid:28d48b6f-0819-4792-9d17-99956f7089a0"
                  },
                  {
                    "reference": "urn:uuid:11fa3f78-b15c-4052-b558-89f6698b84c5"
                  }
                ],
                "text": {
                  "status": "generated",
                  "div": "<div xmlns=\"http://www.w3.org/1999/xhtml\"><h3>Specimen information</h3><table class=\"hl7__eu__lab__report\"><thead><tr><th>Test</th><th>20-AUG-2024</th><th>Specimen</th><th></th></tr></thead><tbody><tr><td>Appearance of Urine</td><td>Cloudy urine</td><td>Urine</td><td></td></tr><tr><td>Odor of Urine</td><td>Urine smell ammoniacal</td><td>Urine</td><td></td></tr><tr><td>Clarity of Urine</td><td>Translucent</td><td>Urine</td><td></td></tr><tr><td>Color of Urine</td><td>Brown color</td><td>Urine</td><td></td></tr></tbody></table></div>"
                },
                "title": "Specimen information"
              }
            ],
            "title": "Laboratory Report"
          },
          {
            "text": {
              "status": "generated",
              "div": "<div xmlns=\"http://www.w3.org/1999/xhtml\"><h3>Annotation</h3><table class=\"hl7__eu__lab__report\"><tr><th>Conclusion and Recommendations based on this report and previous findings known to us</th></tr><tr><td>The patient shows significantly elevated creatinine in both serum and blood, indicating impaired renal function. Urinalysis reveals marked proteinuria, glucosuria, ketonuria, low specific gravity, and abnormal urine appearance (cloudy, brown, ammoniacal), suggesting possible nephrotic syndrome or acute kidney injury with metabolic derangements. Blood glucose and HbA1c are normal, making diabetes less likely. Recommend urgent nephrology evaluation and further workup for underlying renal pathology.</td></tr></table></div>"
            },
            "code": {
              "coding": [
                {
                  "system": "http://loinc.org",
                  "code": "48767-8",
                  "display": "Annotation comment"
                }
              ]
            },
            "title": "Annotation comment"
          }
        ],
        "status": "final",
        "subject": {
          "reference": "urn:uuid:2d9bbd1a-437b-4071-a7bd-78869de4835b",
          "display": "Meaghan Neary"
        },
        "date": "2024-08-20T00:11:04Z",
        "title": "Laboratory Report",
        "confidentiality": "N"
      }
    },
    {
      "fullUrl": "urn:uuid:55324dd0-aaaa-4c3c-860c-ebc17c0e4a3f",
      "resource": {
        "resourceType": "DiagnosticReport",
        "id": "55324dd0-aaaa-4c3c-860c-ebc17c0e4a3f",
        "meta": {
          "profile": [
            "http://hl7.eu/fhir/laboratory/StructureDefinition/DiagnosticReport-eu-lab"
          ]
        },
        "identifier": [
          {
            "assigner": {
              "display": "HL7 Europe"
            },
            "system": "urn:oid:2.16.840.1.113883.2.51.999",
            "value": "48ca2cbf-6e35-4f71-b507-ee6c7bb90523"
          }
        ],
        "extension": [
          {
            "url": "http://hl7.org/fhir/5.0/StructureDefinition/extension-DiagnosticReport.composition",
            "valueReference": {
              "reference": "urn:uuid:2315bcaa-c78d-4e24-8dca-255b9406721e"
            }
          }
        ],
        "category": [
          {
            "coding": [
              {
                "code": "26436-6",
                "system": "http://loinc.org",
                "display": "Laboratory studies (set)"
              }
            ]
          }
        ],
        "specimen": [
          {
            "reference": "urn:uuid:b24ffa16-c190-4434-9136-9786c6b08101"
          },
          {
            "reference": "urn:uuid:bc5da152-e060-4755-9533-c92a5ce98be4"
          },
          {
            "reference": "urn:uuid:2e3c99c3-aebd-4704-844d-224293d629c0"
          }
        ],
        "result": [
          {
            "reference": "urn:uuid:62309986-995f-4142-8a92-533283c920a3"
          },
          {
            "reference": "urn:uuid:8b37426e-4dca-4159-b4c9-1a75df2a1a4f"
          },
          {
            "reference": "urn:uuid:566c8432-0b0d-438d-b607-7feb822c51d6"
          },
          {
            "reference": "urn:uuid:c28a1db8-f6e3-4dde-a9bc-5817081e1d4e"
          },
          {
            "reference": "urn:uuid:9bb1c46a-2272-45e8-9650-f297fb860a5e"
          },
          {
            "reference": "urn:uuid:9946ce52-808d-4878-ba7c-4759e003cb31"
          },
          {
            "reference": "urn:uuid:f3273012-90e7-4322-9125-0b96991ff710"
          },
          {
            "reference": "urn:uuid:9d5ba589-b293-4d92-a696-6a3563ba51f3"
          },
          {
            "reference": "urn:uuid:fa1496a9-dfef-47e6-a57f-43a66ed9ac3b"
          },
          {
            "reference": "urn:uuid:dfd634d8-8485-4183-9249-8d9d450193bc"
          },
          {
            "reference": "urn:uuid:28d48b6f-0819-4792-9d17-99956f7089a0"
          },
          {
            "reference": "urn:uuid:11fa3f78-b15c-4052-b558-89f6698b84c5"
          },
          {
            "reference": "urn:uuid:5c8ad68c-31ea-4c17-bc94-0acf6767091c"
          },
          {
            "reference": "urn:uuid:ef45d349-d05e-422c-9af1-5eb4bc758b31"
          },
          {
            "reference": "urn:uuid:e84127fa-45b9-4bdd-ba39-391dd90c0b43"
          },
          {
            "reference": "urn:uuid:55e2130f-1cdf-47bb-8250-e6572da7f26b"
          },
          {
            "reference": "urn:uuid:ef6a8505-9aec-445f-bcd6-6038006dace8"
          },
          {
            "reference": "urn:uuid:aa951609-23ec-4a42-bb07-18db016e8fcb"
          },
          {
            "reference": "urn:uuid:23be3c3b-6353-4ff7-b838-96603aff0048"
          },
          {
            "reference": "urn:uuid:97d3b853-6bdc-467e-b602-561226c5bd0e"
          },
          {
            "reference": "urn:uuid:e5cfb5d8-6080-45b4-80db-dd55e3d30c0e"
          },
          {
            "reference": "urn:uuid:0bd72b16-ec64-4dac-8c81-3385de5cfdb8"
          },
          {
            "reference": "urn:uuid:0379f9ca-3a08-43c5-a3b6-ef24b2367741"
          },
          {
            "reference": "urn:uuid:e012f356-c227-4abe-aa06-cec4cd836630"
          },
          {
            "reference": "urn:uuid:b8128fc8-1a69-4d14-b264-20b8c6a835cb"
          },
          {
            "reference": "urn:uuid:7c016523-1a7b-4386-bd4c-7bd239b5bcea"
          },
          {
            "reference": "urn:uuid:e2cd063b-59b2-4002-9df0-2a777eb8544b"
          },
          {
            "reference": "urn:uuid:fdb7dd43-23cd-4d5a-9c20-256814602d73"
          },
          {
            "reference": "urn:uuid:dc9374ce-15f5-450f-9203-6a605655b4c8"
          },
          {
            "reference": "urn:uuid:baa30f65-14e8-45ed-a335-fecefcc6660a"
          },
          {
            "reference": "urn:uuid:fa5ab39e-3592-4254-9579-7419ff6f51c4"
          },
          {
            "reference": "urn:uuid:c49a40a8-16fe-48b9-8dd0-02200279259d"
          },
          {
            "reference": "urn:uuid:39ff5ba4-2733-4d7c-8dca-625293f99b3e"
          },
          {
            "reference": "urn:uuid:e4233d04-1030-418e-8818-4c2a4e895d63"
          }
        ],
        "status": "registered",
        "code": {
          "coding": [
            {
              "code": "11502-2",
              "system": "http://loinc.org",
              "display": "Laboratory report"
            }
          ]
        },
        "subject": {
          "reference": "urn:uuid:2d9bbd1a-437b-4071-a7bd-78869de4835b",
          "display": "Meaghan Neary"
        }
      }
    },
    {
      "fullUrl": "urn:uuid:2d9bbd1a-437b-4071-a7bd-78869de4835b",
      "resource": {
        "resourceType": "Patient",
        "id": "2d9bbd1a-437b-4071-a7bd-78869de4835b",
        "meta": {
          "security": [
            {
              "system": "http://terminology.hl7.org/CodeSystem/v3-ActReason",
              "code": "HTEST"
            },
            {
              "system": "http://terminology.hl7.org/CodeSystem/v3-ActReason",
              "code": "TRAIN"
            }
          ],
          "tag": [
            {
              "system": "https://synderai.net/fhir/CodeSystem/tags",
              "code": "synthetic",
              "display": "SYNDERAI Synthetic data"
            }
          ],
          "profile": [
            "http://hl7.eu/fhir/base/StructureDefinition/patient-eu-core"
          ]
        },
        "identifier": [
          {
            "type": {
              "coding": [
                {
                  "code": "PT",
                  "system": "http://terminology.hl7.org/CodeSystem/v2-0203"
                }
              ]
            },
            "system": "http://ec.europa.eu/identifier/eci",
            "value": "1586-567257-8"
          },
          {
            "type": {
              "coding": [
                {
                  "code": "MR",
                  "system": "http://terminology.hl7.org/CodeSystem/v2-0203"
                }
              ]
            },
            "system": "http://local.setting.eu/identifier",
            "value": "443e6379-f231-b364-3ccb-644740a1aa2a"
          }
        ],
        "name": [
          {
            "family": "Neary"
          },
          {
            "given": [
              "Meaghan"
            ]
          },
          {
            "text": "Meaghan Neary"
          }
        ],
        "address": [
          {
            "line": [
              "64 Linskey Street"
            ],
            "use": "home",
            "type": "physical",
            "postalCode": "D02",
            "city": "Dublin",
            "country": "Ireland"
          }
        ],
        "telecom": [
          {
            "system": "phone",
            "value": "001-967-573-0911x465"
          }
        ],
        "extension": [
          {
            "url": "http://hl7.org/fhir/StructureDefinition/patient-nationality",
            "valueCodeableConcept": {
              "coding": [
                {
                  "code": "IE",
                  "system": "http://hl7.org/fhir/ValueSet/country"
                }
              ]
            }
          }
        ],
        "text": {
          "status": "generated",
          "div": "<div xmlns=\"http://www.w3.org/1999/xhtml\"><table class=\"hl7__ips\"><tr><td>Meaghan Neary</td><td>female</td><td>19-Dec-1960</td></tr></table></div>"
        },
        "gender": "female",
        "birthDate": "1960-12-19"
      }
    },
    {
      "fullUrl": "urn:uuid:3bb2f28b-1478-4d0b-8181-40eb7a004687",
      "resource": {
        "resourceType": "ServiceRequest",
        "id": "3bb2f28b-1478-4d0b-8181-40eb7a004687",
        "meta": {
          "profile": [
            "http://hl7.eu/fhir/laboratory/StructureDefinition/ServiceRequest-eu-lab"
          ]
        },
        "identifier": [
          {
            "system": "http://example.org",
            "value": "b4d4094f-52f3-43d8-8d29-a234f900a1da"
          }
        ],
        "specimen": [
          {
            "reference": "urn:uuid:b24ffa16-c190-4434-9136-9786c6b08101"
          },
          {
            "reference": "urn:uuid:bc5da152-e060-4755-9533-c92a5ce98be4"
          },
          {
            "reference": "urn:uuid:2e3c99c3-aebd-4704-844d-224293d629c0"
          }
        ],
        "reasonCode": [
          {
            "coding": [
              {
                "code": "55822004",
                "system": "http://snomed.info/sct",
                "display": "Hyperlipidemia"
              }
            ]
          },
          {
            "coding": [
              {
                "code": "433144002",
                "system": "http://snomed.info/sct",
                "display": "Chronic kidney disease stage 3"
              }
            ]
          },
          {
            "coding": [
              {
                "code": "157141000119108",
                "system": "http://snomed.info/sct",
                "display": "Proteinuria due to type 2 diabetes mellitus"
              }
            ]
          },
          {
            "coding": [
              {
                "code": "431856006",
                "system": "http://snomed.info/sct",
                "display": "Chronic kidney disease stage 2"
              }
            ]
          },
          {
            "coding": [
              {
                "code": "90781000119102",
                "system": "http://snomed.info/sct",
                "display": "Microalbuminuria due to type 2 diabetes mellitus"
              }
            ]
          },
          {
            "coding": [
              {
                "code": "127013003",
                "system": "http://snomed.info/sct",
                "display": "Disorder of kidney due to diabetes mellitus"
              }
            ]
          },
          {
            "coding": [
              {
                "code": "431855005",
                "system": "http://snomed.info/sct",
                "display": "Chronic kidney disease stage 1"
              }
            ]
          },
          {
            "coding": [
              {
                "code": "237602007",
                "system": "http://snomed.info/sct",
                "display": "Metabolic syndrome X"
              }
            ]
          },
          {
            "coding": [
              {
                "code": "271737000",
                "system": "http://snomed.info/sct",
                "display": "Anemia"
              }
            ]
          },
          {
            "coding": [
              {
                "code": "15777000",
                "system": "http://snomed.info/sct",
                "display": "Prediabetes"
              }
            ]
          },
          {
            "coding": [
              {
                "code": "59621000",
                "system": "http://snomed.info/sct",
                "display": "Essential hypertension"
              }
            ]
          }
        ],
        "status": "active",
        "intent": "order",
        "code": {
          "coding": [
            {
              "code": "108252007",
              "system": "http://snomed.info/sct",
              "display": "Laboratory procedure"
            }
          ]
        },
        "subject": {
          "reference": "urn:uuid:2d9bbd1a-437b-4071-a7bd-78869de4835b",
          "display": "Meaghan Neary"
        },
        "requester": {
          "reference": "urn:uuid:e352e55d-0b88-451f-86ca-f45907eb954d"
        }
      }
    },
    {
      "fullUrl": "urn:uuid:e352e55d-0b88-451f-86ca-f45907eb954d",
      "resource": {
        "resourceType": "PractitionerRole",
        "id": "e352e55d-0b88-451f-86ca-f45907eb954d",
        "meta": {
          "profile": [
            "http://hl7.eu/fhir/base/StructureDefinition/practitionerRole-eu"
          ]
        },
        "text": {
          "status": "generated",
          "div": "<div xmlns=\"http://www.w3.org/1999/xhtml\">Provider Role Id: e352e55d-0b88-451f-86ca-f45907eb954d</div>"
        },
        "organization": {
          "reference": "urn:uuid:2d1e5f88-4048-4274-88f2-2b9b86b70b2f"
        }
      }
    },
    {
      "fullUrl": "urn:uuid:2d1e5f88-4048-4274-88f2-2b9b86b70b2f",
      "resource": {
        "resourceType": "Organization",
        "id": "2d1e5f88-4048-4274-88f2-2b9b86b70b2f",
        "meta": {
          "profile": [
            "http://hl7.eu/fhir/base/StructureDefinition/organization-eu"
          ]
        },
        "identifier": [
          {
            "assigner": {
              "display": "HL7 Europe"
            },
            "system": "urn:oid:2.16.840.1.113883.2.51.999",
            "value": "584c758c-4604-4e0c-a6aa-57490dd4ad2e"
          }
        ],
        "address": [
          {
            "line": [
              "Parnell Square West nan"
            ],
            "city": "Dublin",
            "postalCode": "D01",
            "country": "Ireland"
          }
        ],
        "text": {
          "status": "generated",
          "div": "<div xmlns=\"http://www.w3.org/1999/xhtml\">Provider Organization: Rotunda Hospital</div>"
        },
        "name": "Rotunda Hospital"
      }
    },
    {
      "fullUrl": "urn:uuid:b24ffa16-c190-4434-9136-9786c6b08101",
      "resource": {
        "resourceType": "Specimen",
        "id": "b24ffa16-c190-4434-9136-9786c6b08101",
        "meta": {
          "profile": [
            "http://hl7.eu/fhir/laboratory/StructureDefinition/Specimen-eu-lab"
          ]
        },
        "collection": {
          "collectedDateTime": "2024-08-19"
        },
        "text": {
          "status": "generated",
          "div": "<div xmlns=\"http://www.w3.org/1999/xhtml\"><table class=\"hl7__eu__lab__report\"><tr><th>Specimen</th><th>Collection Date</th></tr><tr><td>Acellular blood (serum or plasma) specimen</td><td><span class=\"nb\">19-Aug-2024</span></td></tr></table></div>"
        },
        "type": {
          "coding": [
            {
              "code": "122592007",
              "system": "http://snomed.info/sct",
              "display": "Acellular blood (serum or plasma) specimen"
            }
          ]
        }
      }
    },
    {
      "fullUrl": "urn:uuid:bc5da152-e060-4755-9533-c92a5ce98be4",
      "resource": {
        "resourceType": "Specimen",
        "id": "bc5da152-e060-4755-9533-c92a5ce98be4",
        "meta": {
          "profile": [
            "http://hl7.eu/fhir/laboratory/StructureDefinition/Specimen-eu-lab"
          ]
        },
        "collection": {
          "collectedDateTime": "2024-08-19"
        },
        "text": {
          "status": "generated",
          "div": "<div xmlns=\"http://www.w3.org/1999/xhtml\"><table class=\"hl7__eu__lab__report\"><tr><th>Specimen</th><th>Collection Date</th></tr><tr><td>Urine specimen</td><td><span class=\"nb\">19-Aug-2024</span></td></tr></table></div>"
        },
        "type": {
          "coding": [
            {
              "code": "122575003",
              "system": "http://snomed.info/sct",
              "display": "Urine specimen"
            }
          ]
        }
      }
    },
    {
      "fullUrl": "urn:uuid:2e3c99c3-aebd-4704-844d-224293d629c0",
      "resource": {
        "resourceType": "Specimen",
        "id": "2e3c99c3-aebd-4704-844d-224293d629c0",
        "meta": {
          "profile": [
            "http://hl7.eu/fhir/laboratory/StructureDefinition/Specimen-eu-lab"
          ]
        },
        "collection": {
          "collectedDateTime": "2024-08-19"
        },
        "text": {
          "status": "generated",
          "div": "<div xmlns=\"http://www.w3.org/1999/xhtml\"><table class=\"hl7__eu__lab__report\"><tr><th>Specimen</th><th>Collection Date</th></tr><tr><td>Whole blood specimen (specimen)</td><td><span class=\"nb\">19-Aug-2024</span></td></tr></table></div>"
        },
        "type": {
          "coding": [
            {
              "code": "258580003",
              "system": "http://snomed.info/sct",
              "display": "Whole blood specimen (specimen)"
            }
          ]
        }
      }
    },
    {
      "fullUrl": "urn:uuid:62309986-995f-4142-8a92-533283c920a3",
      "resource": {
        "resourceType": "Observation",
        "id": "62309986-995f-4142-8a92-533283c920a3",
        "meta": {
          "profile": [
            "http://hl7.eu/fhir/laboratory/StructureDefinition/Observation-resultslab-eu-lab"
          ]
        },
        "performer": [
          {
            "display": "The Central European Lab"
          }
        ],
        "category": [
          {
            "coding": [
              {
                "system": "http://terminology.hl7.org/CodeSystem/observation-category",
                "code": "laboratory"
              }
            ]
          }
        ],
        "code": {
          "coding": [
            {
              "code": "2345-7",
              "system": "http://loinc.org",
              "display": "Glucose [Mass/volume] in Serum or Plasma"
            }
          ],
          "text": "Glucose [Mass/volume] in Serum or Plasma"
        },
        "valueQuantity": {
          "system": "http://unitsofmeasure.org",
          "value": 97.5,
          "unit": "mg/dL",
          "code": "mg/dL"
        },
        "referenceRange": [
          {
            "low": {
              "value": 70,
              "code": "mg/dL",
              "system": "http://unitsofmeasure.org"
            }
          },
          {
            "high": {
              "value": 99,
              "code": "mg/dL",
              "system": "http://unitsofmeasure.org"
            }
          }
        ],
        "text": {
          "status": "generated",
          "div": "<div xmlns=\"http://www.w3.org/1999/xhtml\"><table class=\"hl7__eu__lab__report\"><tr><th>Test</th><th>20-Aug-2024</th><th>Reference&#xA0;Range</th><th>Unit</th></tr><tr><td>Glucose [Mass/volume] in Serum or Plasma</td><td>97.5</td><td>70 - 99</td><td></td><td>mg/dL</td></tr></table></div>"
        },
        "status": "final",
        "subject": {
          "reference": "urn:uuid:2d9bbd1a-437b-4071-a7bd-78869de4835b",
          "display": "Meaghan Neary"
        },
        "effectiveDateTime": "2024-08-19T22:11:04Z",
        "specimen": {
          "reference": "urn:uuid:b24ffa16-c190-4434-9136-9786c6b08101"
        }
      }
    },
    {
      "fullUrl": "urn:uuid:8b37426e-4dca-4159-b4c9-1a75df2a1a4f",
      "resource": {
        "resourceType": "Observation",
        "id": "8b37426e-4dca-4159-b4c9-1a75df2a1a4f",
        "meta": {
          "profile": [
            "http://hl7.eu/fhir/laboratory/StructureDefinition/Observation-resultslab-eu-lab"
          ]
        },
        "performer": [
          {
            "display": "The Central European Lab"
          }
        ],
        "category": [
          {
            "coding": [
              {
                "system": "http://terminology.hl7.org/CodeSystem/observation-category",
                "code": "laboratory"
              }
            ]
          }
        ],
        "code": {
          "coding": [
            {
              "code": "3094-0",
              "system": "http://loinc.org",
              "display": "Urea nitrogen [Mass/volume] in Serum or Plasma"
            }
          ],
          "text": "Urea nitrogen [Mass/volume] in Serum or Plasma"
        },
        "valueQuantity": {
          "system": "http://unitsofmeasure.org",
          "value": 19,
          "unit": "mg/dL",
          "code": "mg/dL"
        },
        "referenceRange": [
          {
            "low": {
              "value": 7,
              "code": "mg/dL",
              "system": "http://unitsofmeasure.org"
            }
          },
          {
            "high": {
              "value": 50,
              "code": "mg/dL",
              "system": "http://unitsofmeasure.org"
            }
          }
        ],
        "text": {
          "status": "generated",
          "div": "<div xmlns=\"http://www.w3.org/1999/xhtml\"><table class=\"hl7__eu__lab__report\"><tr><th>Test</th><th>20-Aug-2024</th><th>Reference&#xA0;Range</th><th>Unit</th></tr><tr><td>Urea nitrogen [Mass/volume] in Serum or Plasma</td><td>19.0</td><td>7 - 50</td><td></td><td>mg/dL</td></tr></table></div>"
        },
        "status": "final",
        "subject": {
          "reference": "urn:uuid:2d9bbd1a-437b-4071-a7bd-78869de4835b",
          "display": "Meaghan Neary"
        },
        "effectiveDateTime": "2024-08-19T22:11:04Z",
        "specimen": {
          "reference": "urn:uuid:b24ffa16-c190-4434-9136-9786c6b08101"
        }
      }
    },
    {
      "fullUrl": "urn:uuid:566c8432-0b0d-438d-b607-7feb822c51d6",
      "resource": {
        "resourceType": "Observation",
        "id": "566c8432-0b0d-438d-b607-7feb822c51d6",
        "meta": {
          "profile": [
            "http://hl7.eu/fhir/laboratory/StructureDefinition/Observation-resultslab-eu-lab"
          ]
        },
        "performer": [
          {
            "display": "The Central European Lab"
          }
        ],
        "category": [
          {
            "coding": [
              {
                "system": "http://terminology.hl7.org/CodeSystem/observation-category",
                "code": "laboratory"
              }
            ]
          }
        ],
        "code": {
          "coding": [
            {
              "code": "2160-0",
              "system": "http://loinc.org",
              "display": "Creatinine [Mass/volume] in Serum or Plasma"
            }
          ],
          "text": "Creatinine [Mass/volume] in Serum or Plasma"
        },
        "valueQuantity": {
          "system": "http://unitsofmeasure.org",
          "value": 1.9,
          "unit": "mg/dL",
          "code": "mg/dL"
        },
        "referenceRange": [
          {
            "low": {
              "value": 0.6,
              "code": "mg/dL",
              "system": "http://unitsofmeasure.org"
            }
          },
          {
            "high": {
              "value": 1.1,
              "code": "mg/dL",
              "system": "http://unitsofmeasure.org"
            }
          }
        ],
        "interpretation": [
          {
            "coding": [
              {
                "code": "H",
                "system": "http://terminology.hl7.org/CodeSystem/v3-ObservationInterpretation",
                "display": "High"
              }
            ]
          }
        ],
        "text": {
          "status": "generated",
          "div": "<div xmlns=\"http://www.w3.org/1999/xhtml\"><table class=\"hl7__eu__lab__report\"><tr><th>Test</th><th>20-Aug-2024</th><th>Reference&#xA0;Range</th><th>Unit</th></tr><tr><td>Creatinine [Mass/volume] in Serum or Plasma</td><td>1.9</td><td>0.6 - 1.1</td><td>H</td><td>mg/dL</td></tr></table></div>"
        },
        "status": "final",
        "subject": {
          "reference": "urn:uuid:2d9bbd1a-437b-4071-a7bd-78869de4835b",
          "display": "Meaghan Neary"
        },
        "effectiveDateTime": "2024-08-19T22:11:04Z",
        "specimen": {
          "reference": "urn:uuid:b24ffa16-c190-4434-9136-9786c6b08101"
        }
      }
    },
    {
      "fullUrl": "urn:uuid:c28a1db8-f6e3-4dde-a9bc-5817081e1d4e",
      "resource": {
        "resourceType": "Observation",
        "id": "c28a1db8-f6e3-4dde-a9bc-5817081e1d4e",
        "meta": {
          "profile": [
            "http://hl7.eu/fhir/laboratory/StructureDefinition/Observation-resultslab-eu-lab"
          ]
        },
        "performer": [
          {
            "display": "The Central European Lab"
          }
        ],
        "category": [
          {
            "coding": [
              {
                "system": "http://terminology.hl7.org/CodeSystem/observation-category",
                "code": "laboratory"
              }
            ]
          }
        ],
        "code": {
          "coding": [
            {
              "code": "17861-6",
              "system": "http://loinc.org",
              "display": "Calcium [Mass/volume] in Serum or Plasma"
            }
          ],
          "text": "Calcium [Mass/volume] in Serum or Plasma"
        },
        "valueQuantity": {
          "system": "http://unitsofmeasure.org",
          "value": 9,
          "unit": "mg/dL",
          "code": "mg/dL"
        },
        "referenceRange": [
          {
            "low": {
              "value": 8.6,
              "code": "mg/dL",
              "system": "http://unitsofmeasure.org"
            }
          },
          {
            "high": {
              "value": 10.4,
              "code": "mg/dL",
              "system": "http://unitsofmeasure.org"
            }
          }
        ],
        "text": {
          "status": "generated",
          "div": "<div xmlns=\"http://www.w3.org/1999/xhtml\"><table class=\"hl7__eu__lab__report\"><tr><th>Test</th><th>20-Aug-2024</th><th>Reference&#xA0;Range</th><th>Unit</th></tr><tr><td>Calcium [Mass/volume] in Serum or Plasma</td><td>9.0</td><td>8.6 - 10.4</td><td></td><td>mg/dL</td></tr></table></div>"
        },
        "status": "final",
        "subject": {
          "reference": "urn:uuid:2d9bbd1a-437b-4071-a7bd-78869de4835b",
          "display": "Meaghan Neary"
        },
        "effectiveDateTime": "2024-08-19T22:11:04Z",
        "specimen": {
          "reference": "urn:uuid:b24ffa16-c190-4434-9136-9786c6b08101"
        }
      }
    },
    {
      "fullUrl": "urn:uuid:9bb1c46a-2272-45e8-9650-f297fb860a5e",
      "resource": {
        "resourceType": "Observation",
        "id": "9bb1c46a-2272-45e8-9650-f297fb860a5e",
        "meta": {
          "profile": [
            "http://hl7.eu/fhir/laboratory/StructureDefinition/Observation-resultslab-eu-lab"
          ]
        },
        "performer": [
          {
            "display": "The Central European Lab"
          }
        ],
        "category": [
          {
            "coding": [
              {
                "system": "http://terminology.hl7.org/CodeSystem/observation-category",
                "code": "laboratory"
              }
            ]
          }
        ],
        "code": {
          "coding": [
            {
              "code": "2951-2",
              "system": "http://loinc.org",
              "display": "Sodium [Moles/volume] in Serum or Plasma"
            }
          ],
          "text": "Sodium [Moles/volume] in Serum or Plasma"
        },
        "valueQuantity": {
          "system": "http://unitsofmeasure.org",
          "value": 138.5,
          "unit": "mmol/L",
          "code": "mmol/L"
        },
        "referenceRange": [
          {
            "low": {
              "value": 135,
              "code": "mmol/L",
              "system": "http://unitsofmeasure.org"
            }
          },
          {
            "high": {
              "value": 145,
              "code": "mmol/L",
              "system": "http://unitsofmeasure.org"
            }
          }
        ],
        "text": {
          "status": "generated",
          "div": "<div xmlns=\"http://www.w3.org/1999/xhtml\"><table class=\"hl7__eu__lab__report\"><tr><th>Test</th><th>20-Aug-2024</th><th>Reference&#xA0;Range</th><th>Unit</th></tr><tr><td>Sodium [Moles/volume] in Serum or Plasma</td><td>138.5</td><td>135 - 145</td><td></td><td>mmol/L</td></tr></table></div>"
        },
        "status": "final",
        "subject": {
          "reference": "urn:uuid:2d9bbd1a-437b-4071-a7bd-78869de4835b",
          "display": "Meaghan Neary"
        },
        "effectiveDateTime": "2024-08-19T22:11:04Z",
        "specimen": {
          "reference": "urn:uuid:b24ffa16-c190-4434-9136-9786c6b08101"
        }
      }
    },
    {
      "fullUrl": "urn:uuid:9946ce52-808d-4878-ba7c-4759e003cb31",
      "resource": {
        "resourceType": "Observation",
        "id": "9946ce52-808d-4878-ba7c-4759e003cb31",
        "meta": {
          "profile": [
            "http://hl7.eu/fhir/laboratory/StructureDefinition/Observation-resultslab-eu-lab"
          ]
        },
        "performer": [
          {
            "display": "The Central European Lab"
          }
        ],
        "category": [
          {
            "coding": [
              {
                "system": "http://terminology.hl7.org/CodeSystem/observation-category",
                "code": "laboratory"
              }
            ]
          }
        ],
        "code": {
          "coding": [
            {
              "code": "2823-3",
              "system": "http://loinc.org",
              "display": "Potassium [Moles/volume] in Serum or Plasma"
            }
          ],
          "text": "Potassium [Moles/volume] in Serum or Plasma"
        },
        "valueQuantity": {
          "system": "http://unitsofmeasure.org",
          "value": 5.1,
          "unit": "mmol/L",
          "code": "mmol/L"
        },
        "referenceRange": [
          {
            "low": {
              "value": 3.5,
              "code": "mmol/L",
              "system": "http://unitsofmeasure.org"
            }
          },
          {
            "high": {
              "value": 5.1,
              "code": "mmol/L",
              "system": "http://unitsofmeasure.org"
            }
          }
        ],
        "text": {
          "status": "generated",
          "div": "<div xmlns=\"http://www.w3.org/1999/xhtml\"><table class=\"hl7__eu__lab__report\"><tr><th>Test</th><th>20-Aug-2024</th><th>Reference&#xA0;Range</th><th>Unit</th></tr><tr><td>Potassium [Moles/volume] in Serum or Plasma</td><td>5.1</td><td>3.5 - 5.1</td><td></td><td>mmol/L</td></tr></table></div>"
        },
        "status": "final",
        "subject": {
          "reference": "urn:uuid:2d9bbd1a-437b-4071-a7bd-78869de4835b",
          "display": "Meaghan Neary"
        },
        "effectiveDateTime": "2024-08-19T22:11:04Z",
        "specimen": {
          "reference": "urn:uuid:b24ffa16-c190-4434-9136-9786c6b08101"
        }
      }
    },
    {
      "fullUrl": "urn:uuid:f3273012-90e7-4322-9125-0b96991ff710",
      "resource": {
        "resourceType": "Observation",
        "id": "f3273012-90e7-4322-9125-0b96991ff710",
        "meta": {
          "profile": [
            "http://hl7.eu/fhir/laboratory/StructureDefinition/Observation-resultslab-eu-lab"
          ]
        },
        "performer": [
          {
            "display": "The Central European Lab"
          }
        ],
        "category": [
          {
            "coding": [
              {
                "system": "http://terminology.hl7.org/CodeSystem/observation-category",
                "code": "laboratory"
              }
            ]
          }
        ],
        "code": {
          "coding": [
            {
              "code": "2075-0",
              "system": "http://loinc.org",
              "display": "Chloride [Moles/volume] in Serum or Plasma"
            }
          ],
          "text": "Chloride [Moles/volume] in Serum or Plasma"
        },
        "valueQuantity": {
          "system": "http://unitsofmeasure.org",
          "value": 102.1,
          "unit": "mmol/L",
          "code": "mmol/L"
        },
        "referenceRange": [
          {
            "low": {
              "value": 98,
              "code": "mmol/L",
              "system": "http://unitsofmeasure.org"
            }
          },
          {
            "high": {
              "value": 108,
              "code": "mmol/L",
              "system": "http://unitsofmeasure.org"
            }
          }
        ],
        "text": {
          "status": "generated",
          "div": "<div xmlns=\"http://www.w3.org/1999/xhtml\"><table class=\"hl7__eu__lab__report\"><tr><th>Test</th><th>20-Aug-2024</th><th>Reference&#xA0;Range</th><th>Unit</th></tr><tr><td>Chloride [Moles/volume] in Serum or Plasma</td><td>102.1</td><td>98 - 108</td><td></td><td>mmol/L</td></tr></table></div>"
        },
        "status": "final",
        "subject": {
          "reference": "urn:uuid:2d9bbd1a-437b-4071-a7bd-78869de4835b",
          "display": "Meaghan Neary"
        },
        "effectiveDateTime": "2024-08-19T22:11:04Z",
        "specimen": {
          "reference": "urn:uuid:b24ffa16-c190-4434-9136-9786c6b08101"
        }
      }
    },
    {
      "fullUrl": "urn:uuid:9d5ba589-b293-4d92-a696-6a3563ba51f3",
      "resource": {
        "resourceType": "Observation",
        "id": "9d5ba589-b293-4d92-a696-6a3563ba51f3",
        "meta": {
          "profile": [
            "http://hl7.eu/fhir/laboratory/StructureDefinition/Observation-resultslab-eu-lab"
          ]
        },
        "performer": [
          {
            "display": "The Central European Lab"
          }
        ],
        "category": [
          {
            "coding": [
              {
                "system": "http://terminology.hl7.org/CodeSystem/observation-category",
                "code": "laboratory"
              }
            ]
          }
        ],
        "code": {
          "coding": [
            {
              "code": "2028-9",
              "system": "http://loinc.org",
              "display": "Carbon dioxide, total [Moles/volume] in Serum or Plasma"
            }
          ],
          "text": "Carbon dioxide, total [Moles/volume] in Serum or Plasma"
        },
        "valueQuantity": {
          "system": "http://unitsofmeasure.org",
          "value": 28,
          "unit": "mmol/L",
          "code": "mmol/L"
        },
        "referenceRange": [
          {
            "low": {
              "value": 22,
              "code": "mmol/L",
              "system": "http://unitsofmeasure.org"
            }
          },
          {
            "high": {
              "value": 32,
              "code": "mmol/L",
              "system": "http://unitsofmeasure.org"
            }
          }
        ],
        "text": {
          "status": "generated",
          "div": "<div xmlns=\"http://www.w3.org/1999/xhtml\"><table class=\"hl7__eu__lab__report\"><tr><th>Test</th><th>20-Aug-2024</th><th>Reference&#xA0;Range</th><th>Unit</th></tr><tr><td>Carbon dioxide, total [Moles/volume] in Serum or Plasma</td><td>28.0</td><td>22 - 32</td><td></td><td>mmol/L</td></tr></table></div>"
        },
        "status": "final",
        "subject": {
          "reference": "urn:uuid:2d9bbd1a-437b-4071-a7bd-78869de4835b",
          "display": "Meaghan Neary"
        },
        "effectiveDateTime": "2024-08-19T22:11:04Z",
        "specimen": {
          "reference": "urn:uuid:b24ffa16-c190-4434-9136-9786c6b08101"
        }
      }
    },
    {
      "fullUrl": "urn:uuid:fa1496a9-dfef-47e6-a57f-43a66ed9ac3b",
      "resource": {
        "resourceType": "Observation",
        "id": "fa1496a9-dfef-47e6-a57f-43a66ed9ac3b",
        "meta": {
          "profile": [
            "http://hl7.eu/fhir/laboratory/StructureDefinition/Observation-resultslab-eu-lab"
          ]
        },
        "performer": [
          {
            "display": "The Central European Lab"
          }
        ],
        "category": [
          {
            "coding": [
              {
                "system": "http://terminology.hl7.org/CodeSystem/observation-category",
                "code": "laboratory"
              }
            ]
          }
        ],
        "code": {
          "coding": [
            {
              "code": "5767-9",
              "system": "http://loinc.org",
              "display": "Appearance of Urine"
            }
          ],
          "text": "Appearance of Urine"
        },
        "text": {
          "status": "generated",
          "div": "<div xmlns=\"http://www.w3.org/1999/xhtml\"><table class=\"hl7__eu__lab__report\"><tr><th>Test</th><th>20-Aug-2024</th><th>Reference&#xA0;Range</th><th>Unit</th></tr><tr><td>Appearance of Urine</td></tr></table></div>"
        },
        "status": "final",
        "subject": {
          "reference": "urn:uuid:2d9bbd1a-437b-4071-a7bd-78869de4835b",
          "display": "Meaghan Neary"
        },
        "effectiveDateTime": "2024-08-19T22:11:04Z",
        "specimen": {
          "reference": "urn:uuid:bc5da152-e060-4755-9533-c92a5ce98be4"
        }
      }
    },
    {
      "fullUrl": "urn:uuid:dfd634d8-8485-4183-9249-8d9d450193bc",
      "resource": {
        "resourceType": "Observation",
        "id": "dfd634d8-8485-4183-9249-8d9d450193bc",
        "meta": {
          "profile": [
            "http://hl7.eu/fhir/laboratory/StructureDefinition/Observation-resultslab-eu-lab"
          ]
        },
        "performer": [
          {
            "display": "The Central European Lab"
          }
        ],
        "category": [
          {
            "coding": [
              {
                "system": "http://terminology.hl7.org/CodeSystem/observation-category",
                "code": "laboratory"
              }
            ]
          }
        ],
        "code": {
          "coding": [
            {
              "code": "34533-0",
              "system": "http://loinc.org",
              "display": "Odor of Urine"
            }
          ],
          "text": "Odor of Urine"
        },
        "text": {
          "status": "generated",
          "div": "<div xmlns=\"http://www.w3.org/1999/xhtml\"><table class=\"hl7__eu__lab__report\"><tr><th>Test</th><th>20-Aug-2024</th><th>Reference&#xA0;Range</th><th>Unit</th></tr><tr><td>Odor of Urine</td></tr></table></div>"
        },
        "status": "final",
        "subject": {
          "reference": "urn:uuid:2d9bbd1a-437b-4071-a7bd-78869de4835b",
          "display": "Meaghan Neary"
        },
        "effectiveDateTime": "2024-08-19T22:11:04Z",
        "specimen": {
          "reference": "urn:uuid:bc5da152-e060-4755-9533-c92a5ce98be4"
        }
      }
    },
    {
      "fullUrl": "urn:uuid:28d48b6f-0819-4792-9d17-99956f7089a0",
      "resource": {
        "resourceType": "Observation",
        "id": "28d48b6f-0819-4792-9d17-99956f7089a0",
        "meta": {
          "profile": [
            "http://hl7.eu/fhir/laboratory/StructureDefinition/Observation-resultslab-eu-lab"
          ]
        },
        "performer": [
          {
            "display": "The Central European Lab"
          }
        ],
        "category": [
          {
            "coding": [
              {
                "system": "http://terminology.hl7.org/CodeSystem/observation-category",
                "code": "laboratory"
              }
            ]
          }
        ],
        "code": {
          "coding": [
            {
              "code": "32167-9",
              "system": "http://loinc.org",
              "display": "Clarity of Urine"
            }
          ],
          "text": "Clarity of Urine"
        },
        "text": {
          "status": "generated",
          "div": "<div xmlns=\"http://www.w3.org/1999/xhtml\"><table class=\"hl7__eu__lab__report\"><tr><th>Test</th><th>20-Aug-2024</th><th>Reference&#xA0;Range</th><th>Unit</th></tr><tr><td>Clarity of Urine</td></tr></table></div>"
        },
        "status": "final",
        "subject": {
          "reference": "urn:uuid:2d9bbd1a-437b-4071-a7bd-78869de4835b",
          "display": "Meaghan Neary"
        },
        "effectiveDateTime": "2024-08-19T22:11:04Z",
        "specimen": {
          "reference": "urn:uuid:bc5da152-e060-4755-9533-c92a5ce98be4"
        }
      }
    },
    {
      "fullUrl": "urn:uuid:11fa3f78-b15c-4052-b558-89f6698b84c5",
      "resource": {
        "resourceType": "Observation",
        "id": "11fa3f78-b15c-4052-b558-89f6698b84c5",
        "meta": {
          "profile": [
            "http://hl7.eu/fhir/laboratory/StructureDefinition/Observation-resultslab-eu-lab"
          ]
        },
        "performer": [
          {
            "display": "The Central European Lab"
          }
        ],
        "category": [
          {
            "coding": [
              {
                "system": "http://terminology.hl7.org/CodeSystem/observation-category",
                "code": "laboratory"
              }
            ]
          }
        ],
        "code": {
          "coding": [
            {
              "code": "5778-6",
              "system": "http://loinc.org",
              "display": "Color of Urine"
            }
          ],
          "text": "Color of Urine"
        },
        "text": {
          "status": "generated",
          "div": "<div xmlns=\"http://www.w3.org/1999/xhtml\"><table class=\"hl7__eu__lab__report\"><tr><th>Test</th><th>20-Aug-2024</th><th>Reference&#xA0;Range</th><th>Unit</th></tr><tr><td>Color of Urine</td></tr></table></div>"
        },
        "status": "final",
        "subject": {
          "reference": "urn:uuid:2d9bbd1a-437b-4071-a7bd-78869de4835b",
          "display": "Meaghan Neary"
        },
        "effectiveDateTime": "2024-08-19T22:11:04Z",
        "specimen": {
          "reference": "urn:uuid:bc5da152-e060-4755-9533-c92a5ce98be4"
        }
      }
    },
    {
      "fullUrl": "urn:uuid:5c8ad68c-31ea-4c17-bc94-0acf6767091c",
      "resource": {
        "resourceType": "Observation",
        "id": "5c8ad68c-31ea-4c17-bc94-0acf6767091c",
        "meta": {
          "profile": [
            "http://hl7.eu/fhir/laboratory/StructureDefinition/Observation-resultslab-eu-lab"
          ]
        },
        "performer": [
          {
            "display": "The Central European Lab"
          }
        ],
        "category": [
          {
            "coding": [
              {
                "system": "http://terminology.hl7.org/CodeSystem/observation-category",
                "code": "laboratory"
              }
            ]
          }
        ],
        "code": {
          "coding": [
            {
              "code": "5792-7",
              "system": "http://loinc.org",
              "display": "Glucose [Mass/volume] in Urine by Test strip"
            }
          ],
          "text": "Glucose [Mass/volume] in Urine by Test strip"
        },
        "valueQuantity": {
          "system": "http://unitsofmeasure.org",
          "value": 1.6,
          "unit": "mg/dL",
          "code": "mg/dL"
        },
        "referenceRange": [
          {
            "low": {
              "value": 0.8,
              "code": "mg/dL",
              "system": "http://unitsofmeasure.org"
            }
          },
          {
            "high": {
              "value": 0,
              "code": "mg/dL",
              "system": "http://unitsofmeasure.org"
            }
          }
        ],
        "interpretation": [
          {
            "coding": [
              {
                "code": "H",
                "system": "http://terminology.hl7.org/CodeSystem/v3-ObservationInterpretation",
                "display": "High"
              }
            ]
          }
        ],
        "text": {
          "status": "generated",
          "div": "<div xmlns=\"http://www.w3.org/1999/xhtml\"><table class=\"hl7__eu__lab__report\"><tr><th>Test</th><th>20-Aug-2024</th><th>Reference&#xA0;Range</th><th>Unit</th></tr><tr><td>Glucose [Mass/volume] in Urine by Test strip</td><td>1.6</td><td>0.8 - 0</td><td>H</td><td>mg/dL</td></tr></table></div>"
        },
        "status": "final",
        "subject": {
          "reference": "urn:uuid:2d9bbd1a-437b-4071-a7bd-78869de4835b",
          "display": "Meaghan Neary"
        },
        "effectiveDateTime": "2024-08-19T22:11:04Z",
        "specimen": {
          "reference": "urn:uuid:bc5da152-e060-4755-9533-c92a5ce98be4"
        }
      }
    },
    {
      "fullUrl": "urn:uuid:ef45d349-d05e-422c-9af1-5eb4bc758b31",
      "resource": {
        "resourceType": "Observation",
        "id": "ef45d349-d05e-422c-9af1-5eb4bc758b31",
        "meta": {
          "profile": [
            "http://hl7.eu/fhir/laboratory/StructureDefinition/Observation-resultslab-eu-lab"
          ]
        },
        "performer": [
          {
            "display": "The Central European Lab"
          }
        ],
        "category": [
          {
            "coding": [
              {
                "system": "http://terminology.hl7.org/CodeSystem/observation-category",
                "code": "laboratory"
              }
            ]
          }
        ],
        "code": {
          "coding": [
            {
              "code": "25428-4",
              "system": "http://loinc.org",
              "display": "Glucose [Presence] in Urine by Test strip"
            }
          ],
          "text": "Glucose [Presence] in Urine by Test strip"
        },
        "text": {
          "status": "generated",
          "div": "<div xmlns=\"http://www.w3.org/1999/xhtml\"><table class=\"hl7__eu__lab__report\"><tr><th>Test</th><th>20-Aug-2024</th><th>Reference&#xA0;Range</th><th>Unit</th></tr><tr><td>Glucose [Presence] in Urine by Test strip</td></tr></table></div>"
        },
        "status": "final",
        "subject": {
          "reference": "urn:uuid:2d9bbd1a-437b-4071-a7bd-78869de4835b",
          "display": "Meaghan Neary"
        },
        "effectiveDateTime": "2024-08-19T22:11:04Z",
        "specimen": {
          "reference": "urn:uuid:bc5da152-e060-4755-9533-c92a5ce98be4"
        }
      }
    },
    {
      "fullUrl": "urn:uuid:e84127fa-45b9-4bdd-ba39-391dd90c0b43",
      "resource": {
        "resourceType": "Observation",
        "id": "e84127fa-45b9-4bdd-ba39-391dd90c0b43",
        "meta": {
          "profile": [
            "http://hl7.eu/fhir/laboratory/StructureDefinition/Observation-resultslab-eu-lab"
          ]
        },
        "performer": [
          {
            "display": "The Central European Lab"
          }
        ],
        "category": [
          {
            "coding": [
              {
                "system": "http://terminology.hl7.org/CodeSystem/observation-category",
                "code": "laboratory"
              }
            ]
          }
        ],
        "code": {
          "coding": [
            {
              "code": "20505-4",
              "system": "http://loinc.org",
              "display": "Bilirubin.total [Mass/volume] in Urine by Test strip"
            }
          ],
          "text": "Bilirubin.total [Mass/volume] in Urine by Test strip"
        },
        "valueQuantity": {
          "system": "http://unitsofmeasure.org",
          "value": 0.7,
          "unit": "mg/dL",
          "code": "mg/dL"
        },
        "referenceRange": [
          {
            "low": {
              "value": 0,
              "code": "mg/dL",
              "system": "http://unitsofmeasure.org"
            }
          },
          {
            "high": {
              "value": 1,
              "code": "mg/dL",
              "system": "http://unitsofmeasure.org"
            }
          }
        ],
        "text": {
          "status": "generated",
          "div": "<div xmlns=\"http://www.w3.org/1999/xhtml\"><table class=\"hl7__eu__lab__report\"><tr><th>Test</th><th>20-Aug-2024</th><th>Reference&#xA0;Range</th><th>Unit</th></tr><tr><td>Bilirubin.total [Mass/volume] in Urine by Test strip</td><td>0.7</td><td>0 - 1</td><td></td><td>mg/dL</td></tr></table></div>"
        },
        "status": "final",
        "subject": {
          "reference": "urn:uuid:2d9bbd1a-437b-4071-a7bd-78869de4835b",
          "display": "Meaghan Neary"
        },
        "effectiveDateTime": "2024-08-19T22:11:04Z",
        "specimen": {
          "reference": "urn:uuid:bc5da152-e060-4755-9533-c92a5ce98be4"
        }
      }
    },
    {
      "fullUrl": "urn:uuid:55e2130f-1cdf-47bb-8250-e6572da7f26b",
      "resource": {
        "resourceType": "Observation",
        "id": "55e2130f-1cdf-47bb-8250-e6572da7f26b",
        "meta": {
          "profile": [
            "http://hl7.eu/fhir/laboratory/StructureDefinition/Observation-resultslab-eu-lab"
          ]
        },
        "performer": [
          {
            "display": "The Central European Lab"
          }
        ],
        "category": [
          {
            "coding": [
              {
                "system": "http://terminology.hl7.org/CodeSystem/observation-category",
                "code": "laboratory"
              }
            ]
          }
        ],
        "code": {
          "coding": [
            {
              "code": "5770-3",
              "system": "http://loinc.org",
              "display": "Bilirubin.total [Presence] in Urine by Test strip"
            }
          ],
          "text": "Bilirubin.total [Presence] in Urine by Test strip"
        },
        "text": {
          "status": "generated",
          "div": "<div xmlns=\"http://www.w3.org/1999/xhtml\"><table class=\"hl7__eu__lab__report\"><tr><th>Test</th><th>20-Aug-2024</th><th>Reference&#xA0;Range</th><th>Unit</th></tr><tr><td>Bilirubin.total [Presence] in Urine by Test strip</td></tr></table></div>"
        },
        "status": "final",
        "subject": {
          "reference": "urn:uuid:2d9bbd1a-437b-4071-a7bd-78869de4835b",
          "display": "Meaghan Neary"
        },
        "effectiveDateTime": "2024-08-19T22:11:04Z",
        "specimen": {
          "reference": "urn:uuid:bc5da152-e060-4755-9533-c92a5ce98be4"
        }
      }
    },
    {
      "fullUrl": "urn:uuid:ef6a8505-9aec-445f-bcd6-6038006dace8",
      "resource": {
        "resourceType": "Observation",
        "id": "ef6a8505-9aec-445f-bcd6-6038006dace8",
        "meta": {
          "profile": [
            "http://hl7.eu/fhir/laboratory/StructureDefinition/Observation-resultslab-eu-lab"
          ]
        },
        "performer": [
          {
            "display": "The Central European Lab"
          }
        ],
        "category": [
          {
            "coding": [
              {
                "system": "http://terminology.hl7.org/CodeSystem/observation-category",
                "code": "laboratory"
              }
            ]
          }
        ],
        "code": {
          "coding": [
            {
              "code": "5797-6",
              "system": "http://loinc.org",
              "display": "Ketones [Mass/volume] in Urine by Test strip"
            }
          ],
          "text": "Ketones [Mass/volume] in Urine by Test strip"
        },
        "valueQuantity": {
          "system": "http://unitsofmeasure.org",
          "value": 8.8,
          "unit": "mg/dL",
          "code": "mg/dL"
        },
        "referenceRange": [
          {
            "low": {
              "value": 0,
              "code": "mg/dL",
              "system": "http://unitsofmeasure.org"
            }
          },
          {
            "high": {
              "value": 4,
              "code": "mg/dL",
              "system": "http://unitsofmeasure.org"
            }
          }
        ],
        "interpretation": [
          {
            "coding": [
              {
                "code": "H",
                "system": "http://terminology.hl7.org/CodeSystem/v3-ObservationInterpretation",
                "display": "High"
              }
            ]
          }
        ],
        "text": {
          "status": "generated",
          "div": "<div xmlns=\"http://www.w3.org/1999/xhtml\"><table class=\"hl7__eu__lab__report\"><tr><th>Test</th><th>20-Aug-2024</th><th>Reference&#xA0;Range</th><th>Unit</th></tr><tr><td>Ketones [Mass/volume] in Urine by Test strip</td><td>8.8</td><td>0 - 4</td><td>H</td><td>mg/dL</td></tr></table></div>"
        },
        "status": "final",
        "subject": {
          "reference": "urn:uuid:2d9bbd1a-437b-4071-a7bd-78869de4835b",
          "display": "Meaghan Neary"
        },
        "effectiveDateTime": "2024-08-19T22:11:04Z",
        "specimen": {
          "reference": "urn:uuid:bc5da152-e060-4755-9533-c92a5ce98be4"
        }
      }
    },
    {
      "fullUrl": "urn:uuid:aa951609-23ec-4a42-bb07-18db016e8fcb",
      "resource": {
        "resourceType": "Observation",
        "id": "aa951609-23ec-4a42-bb07-18db016e8fcb",
        "meta": {
          "profile": [
            "http://hl7.eu/fhir/laboratory/StructureDefinition/Observation-resultslab-eu-lab"
          ]
        },
        "performer": [
          {
            "display": "The Central European Lab"
          }
        ],
        "category": [
          {
            "coding": [
              {
                "system": "http://terminology.hl7.org/CodeSystem/observation-category",
                "code": "laboratory"
              }
            ]
          }
        ],
        "code": {
          "coding": [
            {
              "code": "2514-8",
              "system": "http://loinc.org",
              "display": "Ketones [Presence] in Urine by Test strip"
            }
          ],
          "text": "Ketones [Presence] in Urine by Test strip"
        },
        "text": {
          "status": "generated",
          "div": "<div xmlns=\"http://www.w3.org/1999/xhtml\"><table class=\"hl7__eu__lab__report\"><tr><th>Test</th><th>20-Aug-2024</th><th>Reference&#xA0;Range</th><th>Unit</th></tr><tr><td>Ketones [Presence] in Urine by Test strip</td></tr></table></div>"
        },
        "status": "final",
        "subject": {
          "reference": "urn:uuid:2d9bbd1a-437b-4071-a7bd-78869de4835b",
          "display": "Meaghan Neary"
        },
        "effectiveDateTime": "2024-08-19T22:11:04Z",
        "specimen": {
          "reference": "urn:uuid:bc5da152-e060-4755-9533-c92a5ce98be4"
        }
      }
    },
    {
      "fullUrl": "urn:uuid:23be3c3b-6353-4ff7-b838-96603aff0048",
      "resource": {
        "resourceType": "Observation",
        "id": "23be3c3b-6353-4ff7-b838-96603aff0048",
        "meta": {
          "profile": [
            "http://hl7.eu/fhir/laboratory/StructureDefinition/Observation-resultslab-eu-lab"
          ]
        },
        "performer": [
          {
            "display": "The Central European Lab"
          }
        ],
        "category": [
          {
            "coding": [
              {
                "system": "http://terminology.hl7.org/CodeSystem/observation-category",
                "code": "laboratory"
              }
            ]
          }
        ],
        "code": {
          "coding": [
            {
              "code": "5811-5",
              "system": "http://loinc.org",
              "display": "Specific gravity of Urine by Test strip"
            }
          ],
          "text": "Specific gravity of Urine by Test strip"
        },
        "valueQuantity": {
          "system": "http://unitsofmeasure.org",
          "value": 1,
          "unit": "{nominal}",
          "code": "{nominal}"
        },
        "referenceRange": [
          {
            "low": {
              "value": 1.005,
              "code": "g/mL",
              "system": "http://unitsofmeasure.org"
            }
          },
          {
            "high": {
              "value": 1.03,
              "code": "g/mL",
              "system": "http://unitsofmeasure.org"
            }
          }
        ],
        "interpretation": [
          {
            "coding": [
              {
                "code": "L",
                "system": "http://terminology.hl7.org/CodeSystem/v3-ObservationInterpretation",
                "display": "Low"
              }
            ]
          }
        ],
        "text": {
          "status": "generated",
          "div": "<div xmlns=\"http://www.w3.org/1999/xhtml\"><table class=\"hl7__eu__lab__report\"><tr><th>Test</th><th>20-Aug-2024</th><th>Reference&#xA0;Range</th><th>Unit</th></tr><tr><td>Specific gravity of Urine by Test strip</td><td>1.0</td><td>1.005 - 1.03</td><td>L</td><td>{nominal}</td></tr></table></div>"
        },
        "status": "final",
        "subject": {
          "reference": "urn:uuid:2d9bbd1a-437b-4071-a7bd-78869de4835b",
          "display": "Meaghan Neary"
        },
        "effectiveDateTime": "2024-08-19T22:11:04Z",
        "specimen": {
          "reference": "urn:uuid:bc5da152-e060-4755-9533-c92a5ce98be4"
        }
      }
    },
    {
      "fullUrl": "urn:uuid:97d3b853-6bdc-467e-b602-561226c5bd0e",
      "resource": {
        "resourceType": "Observation",
        "id": "97d3b853-6bdc-467e-b602-561226c5bd0e",
        "meta": {
          "profile": [
            "http://hl7.eu/fhir/laboratory/StructureDefinition/Observation-resultslab-eu-lab"
          ]
        },
        "performer": [
          {
            "display": "The Central European Lab"
          }
        ],
        "category": [
          {
            "coding": [
              {
                "system": "http://terminology.hl7.org/CodeSystem/observation-category",
                "code": "laboratory"
              }
            ]
          }
        ],
        "code": {
          "coding": [
            {
              "code": "5803-2",
              "system": "http://loinc.org",
              "display": "pH of Urine by Test strip"
            }
          ],
          "text": "pH of Urine by Test strip"
        },
        "valueQuantity": {
          "system": "http://unitsofmeasure.org",
          "value": 5.7,
          "unit": "pH",
          "code": "pH"
        },
        "referenceRange": [
          {
            "low": {
              "value": 4.6,
              "code": "pH",
              "system": "http://unitsofmeasure.org"
            }
          },
          {
            "high": {
              "value": 7,
              "code": "pH",
              "system": "http://unitsofmeasure.org"
            }
          }
        ],
        "text": {
          "status": "generated",
          "div": "<div xmlns=\"http://www.w3.org/1999/xhtml\"><table class=\"hl7__eu__lab__report\"><tr><th>Test</th><th>20-Aug-2024</th><th>Reference&#xA0;Range</th><th>Unit</th></tr><tr><td>pH of Urine by Test strip</td><td>5.7</td><td>4.6 - 7</td><td></td><td>pH</td></tr></table></div>"
        },
        "status": "final",
        "subject": {
          "reference": "urn:uuid:2d9bbd1a-437b-4071-a7bd-78869de4835b",
          "display": "Meaghan Neary"
        },
        "effectiveDateTime": "2024-08-19T22:11:04Z",
        "specimen": {
          "reference": "urn:uuid:bc5da152-e060-4755-9533-c92a5ce98be4"
        }
      }
    },
    {
      "fullUrl": "urn:uuid:e5cfb5d8-6080-45b4-80db-dd55e3d30c0e",
      "resource": {
        "resourceType": "Observation",
        "id": "e5cfb5d8-6080-45b4-80db-dd55e3d30c0e",
        "meta": {
          "profile": [
            "http://hl7.eu/fhir/laboratory/StructureDefinition/Observation-resultslab-eu-lab"
          ]
        },
        "performer": [
          {
            "display": "The Central European Lab"
          }
        ],
        "category": [
          {
            "coding": [
              {
                "system": "http://terminology.hl7.org/CodeSystem/observation-category",
                "code": "laboratory"
              }
            ]
          }
        ],
        "code": {
          "coding": [
            {
              "code": "5804-0",
              "system": "http://loinc.org",
              "display": "Protein [Mass/volume] in Urine by Test strip"
            }
          ],
          "text": "Protein [Mass/volume] in Urine by Test strip"
        },
        "valueQuantity": {
          "system": "http://unitsofmeasure.org",
          "value": 365,
          "unit": "mg/dL",
          "code": "mg/dL"
        },
        "referenceRange": [
          {
            "low": {
              "value": 0,
              "code": "mg/dL",
              "system": "http://unitsofmeasure.org"
            }
          },
          {
            "high": {
              "value": 14,
              "code": "mg/dL",
              "system": "http://unitsofmeasure.org"
            }
          }
        ],
        "interpretation": [
          {
            "coding": [
              {
                "code": "H",
                "system": "http://terminology.hl7.org/CodeSystem/v3-ObservationInterpretation",
                "display": "High"
              }
            ]
          }
        ],
        "text": {
          "status": "generated",
          "div": "<div xmlns=\"http://www.w3.org/1999/xhtml\"><table class=\"hl7__eu__lab__report\"><tr><th>Test</th><th>20-Aug-2024</th><th>Reference&#xA0;Range</th><th>Unit</th></tr><tr><td>Protein [Mass/volume] in Urine by Test strip</td><td>365.0</td><td>0 - 14</td><td>H</td><td>mg/dL</td></tr></table></div>"
        },
        "status": "final",
        "subject": {
          "reference": "urn:uuid:2d9bbd1a-437b-4071-a7bd-78869de4835b",
          "display": "Meaghan Neary"
        },
        "effectiveDateTime": "2024-08-19T22:11:04Z",
        "specimen": {
          "reference": "urn:uuid:bc5da152-e060-4755-9533-c92a5ce98be4"
        }
      }
    },
    {
      "fullUrl": "urn:uuid:0bd72b16-ec64-4dac-8c81-3385de5cfdb8",
      "resource": {
        "resourceType": "Observation",
        "id": "0bd72b16-ec64-4dac-8c81-3385de5cfdb8",
        "meta": {
          "profile": [
            "http://hl7.eu/fhir/laboratory/StructureDefinition/Observation-resultslab-eu-lab"
          ]
        },
        "performer": [
          {
            "display": "The Central European Lab"
          }
        ],
        "category": [
          {
            "coding": [
              {
                "system": "http://terminology.hl7.org/CodeSystem/observation-category",
                "code": "laboratory"
              }
            ]
          }
        ],
        "code": {
          "coding": [
            {
              "code": "20454-5",
              "system": "http://loinc.org",
              "display": "Protein [Presence] in Urine by Test strip"
            }
          ],
          "text": "Protein [Presence] in Urine by Test strip"
        },
        "text": {
          "status": "generated",
          "div": "<div xmlns=\"http://www.w3.org/1999/xhtml\"><table class=\"hl7__eu__lab__report\"><tr><th>Test</th><th>20-Aug-2024</th><th>Reference&#xA0;Range</th><th>Unit</th></tr><tr><td>Protein [Presence] in Urine by Test strip</td></tr></table></div>"
        },
        "status": "final",
        "subject": {
          "reference": "urn:uuid:2d9bbd1a-437b-4071-a7bd-78869de4835b",
          "display": "Meaghan Neary"
        },
        "effectiveDateTime": "2024-08-19T22:11:04Z",
        "specimen": {
          "reference": "urn:uuid:bc5da152-e060-4755-9533-c92a5ce98be4"
        }
      }
    },
    {
      "fullUrl": "urn:uuid:0379f9ca-3a08-43c5-a3b6-ef24b2367741",
      "resource": {
        "resourceType": "Observation",
        "id": "0379f9ca-3a08-43c5-a3b6-ef24b2367741",
        "meta": {
          "profile": [
            "http://hl7.eu/fhir/laboratory/StructureDefinition/Observation-resultslab-eu-lab"
          ]
        },
        "performer": [
          {
            "display": "The Central European Lab"
          }
        ],
        "category": [
          {
            "coding": [
              {
                "system": "http://terminology.hl7.org/CodeSystem/observation-category",
                "code": "laboratory"
              }
            ]
          }
        ],
        "code": {
          "coding": [
            {
              "code": "5802-4",
              "system": "http://loinc.org",
              "display": "Nitrite [Presence] in Urine by Test strip"
            }
          ],
          "text": "Nitrite [Presence] in Urine by Test strip"
        },
        "text": {
          "status": "generated",
          "div": "<div xmlns=\"http://www.w3.org/1999/xhtml\"><table class=\"hl7__eu__lab__report\"><tr><th>Test</th><th>20-Aug-2024</th><th>Reference&#xA0;Range</th><th>Unit</th></tr><tr><td>Nitrite [Presence] in Urine by Test strip</td></tr></table></div>"
        },
        "status": "final",
        "subject": {
          "reference": "urn:uuid:2d9bbd1a-437b-4071-a7bd-78869de4835b",
          "display": "Meaghan Neary"
        },
        "effectiveDateTime": "2024-08-19T22:11:04Z",
        "specimen": {
          "reference": "urn:uuid:bc5da152-e060-4755-9533-c92a5ce98be4"
        }
      }
    },
    {
      "fullUrl": "urn:uuid:e012f356-c227-4abe-aa06-cec4cd836630",
      "resource": {
        "resourceType": "Observation",
        "id": "e012f356-c227-4abe-aa06-cec4cd836630",
        "meta": {
          "profile": [
            "http://hl7.eu/fhir/laboratory/StructureDefinition/Observation-resultslab-eu-lab"
          ]
        },
        "performer": [
          {
            "display": "The Central European Lab"
          }
        ],
        "category": [
          {
            "coding": [
              {
                "system": "http://terminology.hl7.org/CodeSystem/observation-category",
                "code": "laboratory"
              }
            ]
          }
        ],
        "code": {
          "coding": [
            {
              "code": "5794-3",
              "system": "http://loinc.org",
              "display": "Hemoglobin [Presence] in Urine by Test strip"
            }
          ],
          "text": "Hemoglobin [Presence] in Urine by Test strip"
        },
        "text": {
          "status": "generated",
          "div": "<div xmlns=\"http://www.w3.org/1999/xhtml\"><table class=\"hl7__eu__lab__report\"><tr><th>Test</th><th>20-Aug-2024</th><th>Reference&#xA0;Range</th><th>Unit</th></tr><tr><td>Hemoglobin [Presence] in Urine by Test strip</td></tr></table></div>"
        },
        "status": "final",
        "subject": {
          "reference": "urn:uuid:2d9bbd1a-437b-4071-a7bd-78869de4835b",
          "display": "Meaghan Neary"
        },
        "effectiveDateTime": "2024-08-19T22:11:04Z",
        "specimen": {
          "reference": "urn:uuid:bc5da152-e060-4755-9533-c92a5ce98be4"
        }
      }
    },
    {
      "fullUrl": "urn:uuid:b8128fc8-1a69-4d14-b264-20b8c6a835cb",
      "resource": {
        "resourceType": "Observation",
        "id": "b8128fc8-1a69-4d14-b264-20b8c6a835cb",
        "meta": {
          "profile": [
            "http://hl7.eu/fhir/laboratory/StructureDefinition/Observation-resultslab-eu-lab"
          ]
        },
        "performer": [
          {
            "display": "The Central European Lab"
          }
        ],
        "category": [
          {
            "coding": [
              {
                "system": "http://terminology.hl7.org/CodeSystem/observation-category",
                "code": "laboratory"
              }
            ]
          }
        ],
        "code": {
          "coding": [
            {
              "code": "5799-2",
              "system": "http://loinc.org",
              "display": "Leukocyte esterase [Presence] in Urine by Test strip"
            }
          ],
          "text": "Leukocyte esterase [Presence] in Urine by Test strip"
        },
        "text": {
          "status": "generated",
          "div": "<div xmlns=\"http://www.w3.org/1999/xhtml\"><table class=\"hl7__eu__lab__report\"><tr><th>Test</th><th>20-Aug-2024</th><th>Reference&#xA0;Range</th><th>Unit</th></tr><tr><td>Leukocyte esterase [Presence] in Urine by Test strip</td></tr></table></div>"
        },
        "status": "final",
        "subject": {
          "reference": "urn:uuid:2d9bbd1a-437b-4071-a7bd-78869de4835b",
          "display": "Meaghan Neary"
        },
        "effectiveDateTime": "2024-08-19T22:11:04Z",
        "specimen": {
          "reference": "urn:uuid:bc5da152-e060-4755-9533-c92a5ce98be4"
        }
      }
    },
    {
      "fullUrl": "urn:uuid:7c016523-1a7b-4386-bd4c-7bd239b5bcea",
      "resource": {
        "resourceType": "Observation",
        "id": "7c016523-1a7b-4386-bd4c-7bd239b5bcea",
        "meta": {
          "profile": [
            "http://hl7.eu/fhir/laboratory/StructureDefinition/Observation-resultslab-eu-lab"
          ]
        },
        "performer": [
          {
            "display": "The Central European Lab"
          }
        ],
        "category": [
          {
            "coding": [
              {
                "system": "http://terminology.hl7.org/CodeSystem/observation-category",
                "code": "laboratory"
              }
            ]
          }
        ],
        "code": {
          "coding": [
            {
              "code": "4548-4",
              "system": "http://loinc.org",
              "display": "Hemoglobin A1c/Hemoglobin.total in Blood"
            }
          ],
          "text": "Hemoglobin A1c/Hemoglobin.total in Blood"
        },
        "valueQuantity": {
          "system": "http://unitsofmeasure.org",
          "value": 4,
          "unit": "%",
          "code": "%"
        },
        "referenceRange": [
          {
            "low": {
              "value": 4,
              "code": "%",
              "system": "http://unitsofmeasure.org"
            }
          },
          {
            "high": {
              "value": 6.4,
              "code": "%",
              "system": "http://unitsofmeasure.org"
            }
          }
        ],
        "text": {
          "status": "generated",
          "div": "<div xmlns=\"http://www.w3.org/1999/xhtml\"><table class=\"hl7__eu__lab__report\"><tr><th>Test</th><th>20-Aug-2024</th><th>Reference&#xA0;Range</th><th>Unit</th></tr><tr><td>Hemoglobin A1c/Hemoglobin.total in Blood</td><td>4.0</td><td>4 - 6.4</td><td></td><td>%</td></tr></table></div>"
        },
        "status": "final",
        "subject": {
          "reference": "urn:uuid:2d9bbd1a-437b-4071-a7bd-78869de4835b",
          "display": "Meaghan Neary"
        },
        "effectiveDateTime": "2024-08-19T22:11:04Z",
        "specimen": {
          "reference": "urn:uuid:2e3c99c3-aebd-4704-844d-224293d629c0"
        }
      }
    },
    {
      "fullUrl": "urn:uuid:e2cd063b-59b2-4002-9df0-2a777eb8544b",
      "resource": {
        "resourceType": "Observation",
        "id": "e2cd063b-59b2-4002-9df0-2a777eb8544b",
        "meta": {
          "profile": [
            "http://hl7.eu/fhir/laboratory/StructureDefinition/Observation-resultslab-eu-lab"
          ]
        },
        "performer": [
          {
            "display": "The Central European Lab"
          }
        ],
        "category": [
          {
            "coding": [
              {
                "system": "http://terminology.hl7.org/CodeSystem/observation-category",
                "code": "laboratory"
              }
            ]
          }
        ],
        "code": {
          "coding": [
            {
              "code": "2339-0",
              "system": "http://loinc.org",
              "display": "Glucose [Mass/volume] in Blood"
            }
          ],
          "text": "Glucose [Mass/volume] in Blood"
        },
        "valueQuantity": {
          "system": "http://unitsofmeasure.org",
          "value": 97.5,
          "unit": "mg/dL",
          "code": "mg/dL"
        },
        "referenceRange": [
          {
            "low": {
              "value": 70,
              "code": "mg/dL",
              "system": "http://unitsofmeasure.org"
            }
          },
          {
            "high": {
              "value": 100,
              "code": "mg/dL",
              "system": "http://unitsofmeasure.org"
            }
          }
        ],
        "text": {
          "status": "generated",
          "div": "<div xmlns=\"http://www.w3.org/1999/xhtml\"><table class=\"hl7__eu__lab__report\"><tr><th>Test</th><th>20-Aug-2024</th><th>Reference&#xA0;Range</th><th>Unit</th></tr><tr><td>Glucose [Mass/volume] in Blood</td><td>97.5</td><td>70 - 100</td><td></td><td>mg/dL</td></tr></table></div>"
        },
        "status": "final",
        "subject": {
          "reference": "urn:uuid:2d9bbd1a-437b-4071-a7bd-78869de4835b",
          "display": "Meaghan Neary"
        },
        "effectiveDateTime": "2024-08-19T22:11:04Z",
        "specimen": {
          "reference": "urn:uuid:2e3c99c3-aebd-4704-844d-224293d629c0"
        }
      }
    },
    {
      "fullUrl": "urn:uuid:fdb7dd43-23cd-4d5a-9c20-256814602d73",
      "resource": {
        "resourceType": "Observation",
        "id": "fdb7dd43-23cd-4d5a-9c20-256814602d73",
        "meta": {
          "profile": [
            "http://hl7.eu/fhir/laboratory/StructureDefinition/Observation-resultslab-eu-lab"
          ]
        },
        "performer": [
          {
            "display": "The Central European Lab"
          }
        ],
        "category": [
          {
            "coding": [
              {
                "system": "http://terminology.hl7.org/CodeSystem/observation-category",
                "code": "laboratory"
              }
            ]
          }
        ],
        "code": {
          "coding": [
            {
              "code": "6299-2",
              "system": "http://loinc.org",
              "display": "Urea nitrogen [Mass/volume] in Blood"
            }
          ],
          "text": "Urea nitrogen [Mass/volume] in Blood"
        },
        "valueQuantity": {
          "system": "http://unitsofmeasure.org",
          "value": 19,
          "unit": "mg/dL",
          "code": "mg/dL"
        },
        "referenceRange": [
          {
            "low": {
              "value": 7,
              "code": "mg/dL",
              "system": "http://unitsofmeasure.org"
            }
          },
          {
            "high": {
              "value": 43,
              "code": "mg/dL",
              "system": "http://unitsofmeasure.org"
            }
          }
        ],
        "text": {
          "status": "generated",
          "div": "<div xmlns=\"http://www.w3.org/1999/xhtml\"><table class=\"hl7__eu__lab__report\"><tr><th>Test</th><th>20-Aug-2024</th><th>Reference&#xA0;Range</th><th>Unit</th></tr><tr><td>Urea nitrogen [Mass/volume] in Blood</td><td>19.0</td><td>7 - 43</td><td></td><td>mg/dL</td></tr></table></div>"
        },
        "status": "final",
        "subject": {
          "reference": "urn:uuid:2d9bbd1a-437b-4071-a7bd-78869de4835b",
          "display": "Meaghan Neary"
        },
        "effectiveDateTime": "2024-08-19T22:11:04Z",
        "specimen": {
          "reference": "urn:uuid:2e3c99c3-aebd-4704-844d-224293d629c0"
        }
      }
    },
    {
      "fullUrl": "urn:uuid:dc9374ce-15f5-450f-9203-6a605655b4c8",
      "resource": {
        "resourceType": "Observation",
        "id": "dc9374ce-15f5-450f-9203-6a605655b4c8",
        "meta": {
          "profile": [
            "http://hl7.eu/fhir/laboratory/StructureDefinition/Observation-resultslab-eu-lab"
          ]
        },
        "performer": [
          {
            "display": "The Central European Lab"
          }
        ],
        "category": [
          {
            "coding": [
              {
                "system": "http://terminology.hl7.org/CodeSystem/observation-category",
                "code": "laboratory"
              }
            ]
          }
        ],
        "code": {
          "coding": [
            {
              "code": "38483-4",
              "system": "http://loinc.org",
              "display": "Creatinine [Mass/volume] in Blood"
            }
          ],
          "text": "Creatinine [Mass/volume] in Blood"
        },
        "valueQuantity": {
          "system": "http://unitsofmeasure.org",
          "value": 3.7,
          "unit": "mg/dL",
          "code": "mg/dL"
        },
        "referenceRange": [
          {
            "low": {
              "value": 0.6,
              "code": "mg/dL",
              "system": "http://unitsofmeasure.org"
            }
          },
          {
            "high": {
              "value": 1.1,
              "code": "mg/dL",
              "system": "http://unitsofmeasure.org"
            }
          }
        ],
        "interpretation": [
          {
            "coding": [
              {
                "code": "H",
                "system": "http://terminology.hl7.org/CodeSystem/v3-ObservationInterpretation",
                "display": "High"
              }
            ]
          }
        ],
        "text": {
          "status": "generated",
          "div": "<div xmlns=\"http://www.w3.org/1999/xhtml\"><table class=\"hl7__eu__lab__report\"><tr><th>Test</th><th>20-Aug-2024</th><th>Reference&#xA0;Range</th><th>Unit</th></tr><tr><td>Creatinine [Mass/volume] in Blood</td><td>3.7</td><td>0.6 - 1.1</td><td>H</td><td>mg/dL</td></tr></table></div>"
        },
        "status": "final",
        "subject": {
          "reference": "urn:uuid:2d9bbd1a-437b-4071-a7bd-78869de4835b",
          "display": "Meaghan Neary"
        },
        "effectiveDateTime": "2024-08-19T22:11:04Z",
        "specimen": {
          "reference": "urn:uuid:2e3c99c3-aebd-4704-844d-224293d629c0"
        }
      }
    },
    {
      "fullUrl": "urn:uuid:baa30f65-14e8-45ed-a335-fecefcc6660a",
      "resource": {
        "resourceType": "Observation",
        "id": "baa30f65-14e8-45ed-a335-fecefcc6660a",
        "meta": {
          "profile": [
            "http://hl7.eu/fhir/laboratory/StructureDefinition/Observation-resultslab-eu-lab"
          ]
        },
        "performer": [
          {
            "display": "The Central European Lab"
          }
        ],
        "category": [
          {
            "coding": [
              {
                "system": "http://terminology.hl7.org/CodeSystem/observation-category",
                "code": "laboratory"
              }
            ]
          }
        ],
        "code": {
          "coding": [
            {
              "code": "49765-1",
              "system": "http://loinc.org",
              "display": "Calcium [Mass/volume] in Blood"
            }
          ],
          "text": "Calcium [Mass/volume] in Blood"
        },
        "valueQuantity": {
          "system": "http://unitsofmeasure.org",
          "value": 9,
          "unit": "mg/dL",
          "code": "mg/dL"
        },
        "referenceRange": [
          {
            "low": {
              "value": 8.5,
              "code": "mg/dL",
              "system": "http://unitsofmeasure.org"
            }
          },
          {
            "high": {
              "value": 10.5,
              "code": "mg/dL",
              "system": "http://unitsofmeasure.org"
            }
          }
        ],
        "text": {
          "status": "generated",
          "div": "<div xmlns=\"http://www.w3.org/1999/xhtml\"><table class=\"hl7__eu__lab__report\"><tr><th>Test</th><th>20-Aug-2024</th><th>Reference&#xA0;Range</th><th>Unit</th></tr><tr><td>Calcium [Mass/volume] in Blood</td><td>9.0</td><td>8.5 - 10.5</td><td></td><td>mg/dL</td></tr></table></div>"
        },
        "status": "final",
        "subject": {
          "reference": "urn:uuid:2d9bbd1a-437b-4071-a7bd-78869de4835b",
          "display": "Meaghan Neary"
        },
        "effectiveDateTime": "2024-08-19T22:11:04Z",
        "specimen": {
          "reference": "urn:uuid:2e3c99c3-aebd-4704-844d-224293d629c0"
        }
      }
    },
    {
      "fullUrl": "urn:uuid:fa5ab39e-3592-4254-9579-7419ff6f51c4",
      "resource": {
        "resourceType": "Observation",
        "id": "fa5ab39e-3592-4254-9579-7419ff6f51c4",
        "meta": {
          "profile": [
            "http://hl7.eu/fhir/laboratory/StructureDefinition/Observation-resultslab-eu-lab"
          ]
        },
        "performer": [
          {
            "display": "The Central European Lab"
          }
        ],
        "category": [
          {
            "coding": [
              {
                "system": "http://terminology.hl7.org/CodeSystem/observation-category",
                "code": "laboratory"
              }
            ]
          }
        ],
        "code": {
          "coding": [
            {
              "code": "2947-0",
              "system": "http://loinc.org",
              "display": "Sodium [Moles/volume] in Blood"
            }
          ],
          "text": "Sodium [Moles/volume] in Blood"
        },
        "valueQuantity": {
          "system": "http://unitsofmeasure.org",
          "value": 138.5,
          "unit": "mmol/L",
          "code": "mmol/L"
        },
        "referenceRange": [
          {
            "low": {
              "value": 135,
              "code": "mmol/L",
              "system": "http://unitsofmeasure.org"
            }
          },
          {
            "high": {
              "value": 145,
              "code": "mmol/L",
              "system": "http://unitsofmeasure.org"
            }
          }
        ],
        "text": {
          "status": "generated",
          "div": "<div xmlns=\"http://www.w3.org/1999/xhtml\"><table class=\"hl7__eu__lab__report\"><tr><th>Test</th><th>20-Aug-2024</th><th>Reference&#xA0;Range</th><th>Unit</th></tr><tr><td>Sodium [Moles/volume] in Blood</td><td>138.5</td><td>135 - 145</td><td></td><td>mmol/L</td></tr></table></div>"
        },
        "status": "final",
        "subject": {
          "reference": "urn:uuid:2d9bbd1a-437b-4071-a7bd-78869de4835b",
          "display": "Meaghan Neary"
        },
        "effectiveDateTime": "2024-08-19T22:11:04Z",
        "specimen": {
          "reference": "urn:uuid:2e3c99c3-aebd-4704-844d-224293d629c0"
        }
      }
    },
    {
      "fullUrl": "urn:uuid:c49a40a8-16fe-48b9-8dd0-02200279259d",
      "resource": {
        "resourceType": "Observation",
        "id": "c49a40a8-16fe-48b9-8dd0-02200279259d",
        "meta": {
          "profile": [
            "http://hl7.eu/fhir/laboratory/StructureDefinition/Observation-resultslab-eu-lab"
          ]
        },
        "performer": [
          {
            "display": "The Central European Lab"
          }
        ],
        "category": [
          {
            "coding": [
              {
                "system": "http://terminology.hl7.org/CodeSystem/observation-category",
                "code": "laboratory"
              }
            ]
          }
        ],
        "code": {
          "coding": [
            {
              "code": "6298-4",
              "system": "http://loinc.org",
              "display": "Potassium [Moles/volume] in Blood"
            }
          ],
          "text": "Potassium [Moles/volume] in Blood"
        },
        "valueQuantity": {
          "system": "http://unitsofmeasure.org",
          "value": 5.1,
          "unit": "mmol/L",
          "code": "mmol/L"
        },
        "referenceRange": [
          {
            "low": {
              "value": 3.5,
              "code": "mmol/L",
              "system": "http://unitsofmeasure.org"
            }
          },
          {
            "high": {
              "value": 5.1,
              "code": "mmol/L",
              "system": "http://unitsofmeasure.org"
            }
          }
        ],
        "text": {
          "status": "generated",
          "div": "<div xmlns=\"http://www.w3.org/1999/xhtml\"><table class=\"hl7__eu__lab__report\"><tr><th>Test</th><th>20-Aug-2024</th><th>Reference&#xA0;Range</th><th>Unit</th></tr><tr><td>Potassium [Moles/volume] in Blood</td><td>5.1</td><td>3.5 - 5.1</td><td></td><td>mmol/L</td></tr></table></div>"
        },
        "status": "final",
        "subject": {
          "reference": "urn:uuid:2d9bbd1a-437b-4071-a7bd-78869de4835b",
          "display": "Meaghan Neary"
        },
        "effectiveDateTime": "2024-08-19T22:11:04Z",
        "specimen": {
          "reference": "urn:uuid:2e3c99c3-aebd-4704-844d-224293d629c0"
        }
      }
    },
    {
      "fullUrl": "urn:uuid:39ff5ba4-2733-4d7c-8dca-625293f99b3e",
      "resource": {
        "resourceType": "Observation",
        "id": "39ff5ba4-2733-4d7c-8dca-625293f99b3e",
        "meta": {
          "profile": [
            "http://hl7.eu/fhir/laboratory/StructureDefinition/Observation-resultslab-eu-lab"
          ]
        },
        "performer": [
          {
            "display": "The Central European Lab"
          }
        ],
        "category": [
          {
            "coding": [
              {
                "system": "http://terminology.hl7.org/CodeSystem/observation-category",
                "code": "laboratory"
              }
            ]
          }
        ],
        "code": {
          "coding": [
            {
              "code": "2069-3",
              "system": "http://loinc.org",
              "display": "Chloride [Moles/volume] in Blood"
            }
          ],
          "text": "Chloride [Moles/volume] in Blood"
        },
        "valueQuantity": {
          "system": "http://unitsofmeasure.org",
          "value": 102.1,
          "unit": "mmol/L",
          "code": "mmol/L"
        },
        "referenceRange": [
          {
            "low": {
              "value": 98,
              "code": "mmol/L",
              "system": "http://unitsofmeasure.org"
            }
          },
          {
            "high": {
              "value": 108,
              "code": "mmol/L",
              "system": "http://unitsofmeasure.org"
            }
          }
        ],
        "text": {
          "status": "generated",
          "div": "<div xmlns=\"http://www.w3.org/1999/xhtml\"><table class=\"hl7__eu__lab__report\"><tr><th>Test</th><th>20-Aug-2024</th><th>Reference&#xA0;Range</th><th>Unit</th></tr><tr><td>Chloride [Moles/volume] in Blood</td><td>102.1</td><td>98 - 108</td><td></td><td>mmol/L</td></tr></table></div>"
        },
        "status": "final",
        "subject": {
          "reference": "urn:uuid:2d9bbd1a-437b-4071-a7bd-78869de4835b",
          "display": "Meaghan Neary"
        },
        "effectiveDateTime": "2024-08-19T22:11:04Z",
        "specimen": {
          "reference": "urn:uuid:2e3c99c3-aebd-4704-844d-224293d629c0"
        }
      }
    },
    {
      "fullUrl": "urn:uuid:e4233d04-1030-418e-8818-4c2a4e895d63",
      "resource": {
        "resourceType": "Observation",
        "id": "e4233d04-1030-418e-8818-4c2a4e895d63",
        "meta": {
          "profile": [
            "http://hl7.eu/fhir/laboratory/StructureDefinition/Observation-resultslab-eu-lab"
          ]
        },
        "performer": [
          {
            "display": "The Central European Lab"
          }
        ],
        "category": [
          {
            "coding": [
              {
                "system": "http://terminology.hl7.org/CodeSystem/observation-category",
                "code": "laboratory"
              }
            ]
          }
        ],
        "code": {
          "coding": [
            {
              "code": "20565-8",
              "system": "http://loinc.org",
              "display": "Carbon dioxide, total [Moles/volume] in Blood"
            }
          ],
          "text": "Carbon dioxide, total [Moles/volume] in Blood"
        },
        "valueQuantity": {
          "system": "http://unitsofmeasure.org",
          "value": 28,
          "unit": "mmol/L",
          "code": "mmol/L"
        },
        "referenceRange": [
          {
            "low": {
              "value": 22,
              "code": "mmol/L",
              "system": "http://unitsofmeasure.org"
            }
          },
          {
            "high": {
              "value": 29,
              "code": "mmol/L",
              "system": "http://unitsofmeasure.org"
            }
          }
        ],
        "text": {
          "status": "generated",
          "div": "<div xmlns=\"http://www.w3.org/1999/xhtml\"><table class=\"hl7__eu__lab__report\"><tr><th>Test</th><th>20-Aug-2024</th><th>Reference&#xA0;Range</th><th>Unit</th></tr><tr><td>Carbon dioxide, total [Moles/volume] in Blood</td><td>28.0</td><td>22 - 29</td><td></td><td>mmol/L</td></tr></table></div>"
        },
        "status": "final",
        "subject": {
          "reference": "urn:uuid:2d9bbd1a-437b-4071-a7bd-78869de4835b",
          "display": "Meaghan Neary"
        },
        "effectiveDateTime": "2024-08-19T22:11:04Z",
        "specimen": {
          "reference": "urn:uuid:2e3c99c3-aebd-4704-844d-224293d629c0"
        }
      }
    },
    {
      "fullUrl": "urn:uuid:d861a143-a697-45d4-ab94-3bf6e014d53c",
      "resource": {
        "resourceType": "Device",
        "id": "d861a143-a697-45d4-ab94-3bf6e014d53c",
        "deviceName": [
          {
            "name": "SYNDERAI Synthetic Generator",
            "type": "manufacturer-name"
          }
        ],
        "version": [
          {
            "value": "5.0"
          }
        ],
        "text": {
          "status": "generated",
          "div": "<div xmlns=\"http://www.w3.org/1999/xhtml\">SYNDERAI Synthetic Generator v5.0</div>"
        },
        "status": "active\"",
        "distinctIdentifier": "synderai-generator-50",
        "manufacturer": "SYNDERAI Project"
      }
    },
    {
      "fullUrl": "urn:uuid:88bf9ac6-32bb-4060-b1a6-6a71a4d6de95",
      "resource": {
        "resourceType": "Provenance",
        "id": "88bf9ac6-32bb-4060-b1a6-6a71a4d6de95",
        "target": [
          {
            "reference": "Patient/2d9bbd1a-437b-4071-a7bd-78869de4835b"
          },
          {
            "reference": "Bundle/eb0c2609-9366-4b34-b0d6-6db88bf1da52"
          },
          {
            "reference": "Composition/ce8c6cef-3126-49b4-b889-f4d1e3835ac1"
          },
          {
            "reference": "PractitionerRole/35cc20ac-209b-4c74-95f7-330a213e5532"
          },
          {
            "reference": "Practitioner/660f0717-50d0-45da-892a-835c439f542d"
          },
          {
            "reference": "PractitionerRole/e352e55d-0b88-451f-86ca-f45907eb954d"
          },
          {
            "reference": "Organization/2d1e5f88-4048-4274-88f2-2b9b86b70b2f"
          }
        ],
        "activity": {
          "text": "Synthetic Example Data Generation"
        },
        "policy": [
          "https://synderai.net/synderai-synthetic-data-policy"
        ],
        "agent": [
          {
            "type": {
              "text": "author"
            },
            "who": {
              "reference": "Device/d861a143-a697-45d4-ab94-3bf6e014d53c"
            }
          }
        ],
        "reason": [
          {
            "text": "Interoperability Testing and Training (non-clinical use)"
          }
        ],
        "text": {
          "status": "generated",
          "div": "<div xmlns=\"http://www.w3.org/1999/xhtml\">Provenance for SYNDERAI Synthetic Example Data Resource</div>"
        },
        "recorded": "2024-08-20T00:11:04Z"
      }
    },
    {
      "fullUrl": "urn:uuid:35cc20ac-209b-4c74-95f7-330a213e5532",
      "resource": {
        "resourceType": "PractitionerRole",
        "id": "35cc20ac-209b-4c74-95f7-330a213e5532",
        "meta": {
          "profile": [
            "http://hl7.eu/fhir/base/StructureDefinition/practitionerRole-eu"
          ]
        },
        "text": {
          "status": "generated",
          "div": "<div xmlns=\"http://www.w3.org/1999/xhtml\">Laboratory Role Id: 35cc20ac-209b-4c74-95f7-330a213e5532</div>"
        },
        "practitioner": {
          "reference": "urn:uuid:660f0717-50d0-45da-892a-835c439f542d"
        }
      }
    },
    {
      "fullUrl": "urn:uuid:660f0717-50d0-45da-892a-835c439f542d",
      "resource": {
        "resourceType": "Practitioner",
        "id": "660f0717-50d0-45da-892a-835c439f542d",
        "meta": {
          "profile": [
            "http://hl7.eu/fhir/base/StructureDefinition/practitioner-eu"
          ]
        },
        "identifier": [
          {
            "assigner": {
              "display": "HL7 Europe"
            },
            "system": "urn:oid:2.16.840.1.113883.2.51.999",
            "value": "0588cb42-a4ad-4b1b-849a-ea855366963c"
          }
        ],
        "name": [
          {
            "prefix": [
              "dr"
            ],
            "given": [
              "Ex"
            ],
            "family": "Ample"
          }
        ],
        "address": [
          {
            "line": [
              "Laboratoire Central Européenne",
              "Boulevard du Jardin Botanique 32"
            ],
            "postalCode": "1000",
            "city": "Brussels",
            "country": "Belgium"
          }
        ],
        "text": {
          "status": "generated",
          "div": "<div xmlns=\"http://www.w3.org/1999/xhtml\">Laboratory: Laboratoire Central Européenne, 1000 Brussels, Belgium</div>"
        }
      }
    }
  ],
  "type": "document",
  "timestamp": "2024-08-20T00:11:04Z"
}
