{
  "resourceType": "Bundle",
  "id": "9b0052ef-4c46-4c11-ae43-56f1e0c3cd60",
  "meta": {
    "profile": [
      "http://hl7.eu/fhir/laboratory/StructureDefinition/Bundle-eu-lab"
    ]
  },
  "identifier": {
    "assigner": {
      "display": "HL7 Europe"
    },
    "system": "urn:oid:2.16.840.1.113883.2.51.999",
    "value": "272481f5-deed-42dd-a408-763b00b3aedd"
  },
  "entry": [
    {
      "fullUrl": "urn:uuid:75ea2387-d60b-4841-b3c0-76151c24f936",
      "resource": {
        "resourceType": "Composition",
        "id": "75ea2387-d60b-4841-b3c0-76151c24f936",
        "meta": {
          "profile": [
            "http://hl7.eu/fhir/laboratory/StructureDefinition/Composition-eu-lab"
          ]
        },
        "identifier": {
          "assigner": {
            "display": "HL7 Europe"
          },
          "system": "urn:oid:2.16.840.1.113883.2.51.999",
          "value": "0598aae8-a9c8-4e06-82c4-da98d85cc8e6"
        },
        "author": [
          {
            "reference": "urn:uuid:396fbe2f-8b67-4884-9626-e04ca7dbdd23"
          }
        ],
        "category": [
          {
            "coding": [
              {
                "code": "26436-6",
                "system": "http://loinc.org",
                "display": "Laboratory studies (set)"
              }
            ]
          }
        ],
        "type": {
          "coding": [
            {
              "code": "11502-2",
              "system": "http://loinc.org",
              "display": "Laboratory report"
            }
          ],
          "text": "Laboratory Report"
        },
        "section": [
          {
            "code": {
              "coding": [
                {
                  "code": "26436-6",
                  "system": "http://loinc.org",
                  "display": "Laboratory studies (set)"
                }
              ],
              "text": "Laboratory studies"
            },
            "section": [
              {
                "code": {
                  "coding": [
                    {
                      "code": "$18719-5",
                      "system": "http://loinc.org",
                      "display": "Chemistry studies (set)"
                    }
                  ],
                  "text": "Chemistry"
                },
                "entry": [
                  {
                    "reference": "urn:uuid:916a632d-8181-4e66-b397-d22553d02cd3"
                  },
                  {
                    "reference": "urn:uuid:3b895939-d246-4247-8c6c-93ddd5a1ace8"
                  },
                  {
                    "reference": "urn:uuid:f3f177c9-92d1-45fd-8d96-fbba589bc7a8"
                  },
                  {
                    "reference": "urn:uuid:0ce84ea5-3e49-419e-8c99-d2cbe5a1d39e"
                  },
                  {
                    "reference": "urn:uuid:5f975731-0d98-4aa0-b731-3d40fed3119a"
                  },
                  {
                    "reference": "urn:uuid:7fab72d1-4a51-4599-9f1e-4e69e5164368"
                  },
                  {
                    "reference": "urn:uuid:b372d581-011f-4100-a881-9dd14081eb63"
                  },
                  {
                    "reference": "urn:uuid:0da826e9-e963-43c7-b8ac-9f14073daef9"
                  },
                  {
                    "reference": "urn:uuid:fbbd5d1e-e334-4999-b6de-3f8e07907d44"
                  }
                ],
                "text": {
                  "status": "generated",
                  "div": "<div xmlns=\"http://www.w3.org/1999/xhtml\"><h3>Chemistry</h3><table class=\"hl7__eu__lab__report\"><thead><tr><th>Test</th><th>22-FEB-2021</th><th>Reference&#xA0;Range</th><th>Unit</th></tr></thead><tbody><tr><td>Hemoglobin A1c/Hemoglobin.total in Blood</td><td><strong>6.0 H</strong></td><td>4.8 - 5.7</td><td>%</td></tr><tr><td>Glucose [Mass/volume] in Blood</td><td>92.7</td><td>70 - 99</td><td>mg/dL</td></tr><tr><td>Urea nitrogen [Mass/volume] in Blood</td><td>11.1</td><td>7 - 20</td><td>mg/dL</td></tr><tr><td>Creatinine [Mass/volume] in Blood</td><td>1.0</td><td>0.6 - 1.1</td><td>mg/dL</td></tr><tr><td>Calcium [Mass/volume] in Blood</td><td>9.2</td><td>8.5 - 10.5</td><td>mg/dL</td></tr><tr><td>Sodium [Moles/volume] in Blood</td><td>137.2</td><td>135 - 145</td><td>mmol/L</td></tr><tr><td>Potassium [Moles/volume] in Blood</td><td>4.4</td><td>3.5 - 5.3</td><td>mmol/L</td></tr><tr><td>Chloride [Moles/volume] in Blood</td><td>102.7</td><td>98 - 114</td><td>mmol/L</td></tr><tr><td>Carbon dioxide, total [Moles/volume] in Blood</td><td><strong>20.8 L</strong></td><td>22 - 29</td><td>mmol/L</td></tr></tbody></table></div>"
                },
                "title": "Chemistry"
              }
            ],
            "title": "Laboratory Report"
          },
          {
            "text": {
              "status": "generated",
              "div": "<div xmlns=\"http://www.w3.org/1999/xhtml\"><h3>Annotation</h3><table class=\"hl7__eu__lab__report\"><tr><th>Conclusion and Recommendations based on this report and previous findings known to us</th></tr><tr><td>The patient shows mildly elevated HbA1c, indicating impaired glucose control or possible prediabetes, while fasting glucose is within normal limits. All other parameters, including renal function and electrolytes, are within normal ranges except for a slightly low total CO₂, which may suggest mild metabolic acidosis or compensation. Clinical correlation is recommended.</td></tr></table></div>"
            },
            "code": {
              "coding": [
                {
                  "system": "http://loinc.org",
                  "code": "48767-8",
                  "display": "Annotation comment"
                }
              ]
            },
            "title": "Annotation comment"
          }
        ],
        "status": "final",
        "subject": {
          "reference": "urn:uuid:fb83b9ef-350a-47c4-ba3f-2997768f657a",
          "display": "Pauline Grenier"
        },
        "date": "2021-02-22T12:54:46Z",
        "title": "Laboratory Report",
        "confidentiality": "N"
      }
    },
    {
      "fullUrl": "urn:uuid:5d0fb0c3-24b0-4368-9ca1-f7c24b34a6c4",
      "resource": {
        "resourceType": "DiagnosticReport",
        "id": "5d0fb0c3-24b0-4368-9ca1-f7c24b34a6c4",
        "meta": {
          "profile": [
            "http://hl7.eu/fhir/laboratory/StructureDefinition/DiagnosticReport-eu-lab"
          ]
        },
        "identifier": [
          {
            "assigner": {
              "display": "HL7 Europe"
            },
            "system": "urn:oid:2.16.840.1.113883.2.51.999",
            "value": "574ac093-f063-4b87-8162-4b7f95032f3b"
          }
        ],
        "extension": [
          {
            "url": "http://hl7.org/fhir/5.0/StructureDefinition/extension-DiagnosticReport.composition",
            "valueReference": {
              "reference": "urn:uuid:0598aae8-a9c8-4e06-82c4-da98d85cc8e6"
            }
          }
        ],
        "category": [
          {
            "coding": [
              {
                "code": "26436-6",
                "system": "http://loinc.org",
                "display": "Laboratory studies (set)"
              }
            ]
          }
        ],
        "specimen": [
          {
            "reference": "urn:uuid:fd7c1885-5820-4f4c-b50a-fe1e1820e421"
          }
        ],
        "result": [
          {
            "reference": "urn:uuid:916a632d-8181-4e66-b397-d22553d02cd3"
          },
          {
            "reference": "urn:uuid:3b895939-d246-4247-8c6c-93ddd5a1ace8"
          },
          {
            "reference": "urn:uuid:f3f177c9-92d1-45fd-8d96-fbba589bc7a8"
          },
          {
            "reference": "urn:uuid:0ce84ea5-3e49-419e-8c99-d2cbe5a1d39e"
          },
          {
            "reference": "urn:uuid:5f975731-0d98-4aa0-b731-3d40fed3119a"
          },
          {
            "reference": "urn:uuid:7fab72d1-4a51-4599-9f1e-4e69e5164368"
          },
          {
            "reference": "urn:uuid:b372d581-011f-4100-a881-9dd14081eb63"
          },
          {
            "reference": "urn:uuid:0da826e9-e963-43c7-b8ac-9f14073daef9"
          },
          {
            "reference": "urn:uuid:fbbd5d1e-e334-4999-b6de-3f8e07907d44"
          }
        ],
        "status": "registered",
        "code": {
          "coding": [
            {
              "code": "11502-2",
              "system": "http://loinc.org",
              "display": "Laboratory report"
            }
          ]
        },
        "subject": {
          "reference": "urn:uuid:fb83b9ef-350a-47c4-ba3f-2997768f657a",
          "display": "Pauline Grenier"
        }
      }
    },
    {
      "fullUrl": "urn:uuid:fb83b9ef-350a-47c4-ba3f-2997768f657a",
      "resource": {
        "resourceType": "Patient",
        "id": "fb83b9ef-350a-47c4-ba3f-2997768f657a",
        "meta": {
          "security": [
            {
              "system": "http://terminology.hl7.org/CodeSystem/v3-ActReason",
              "code": "HTEST"
            },
            {
              "system": "http://terminology.hl7.org/CodeSystem/v3-ActReason",
              "code": "TRAIN"
            }
          ],
          "tag": [
            {
              "system": "https://synderai.net/fhir/CodeSystem/tags",
              "code": "synthetic",
              "display": "SYNDERAI Synthetic data"
            }
          ],
          "profile": [
            "http://hl7.eu/fhir/base/StructureDefinition/patient-eu-core"
          ]
        },
        "identifier": [
          {
            "type": {
              "coding": [
                {
                  "code": "PT",
                  "system": "http://terminology.hl7.org/CodeSystem/v2-0203"
                }
              ]
            },
            "system": "http://ec.europa.eu/identifier/eci",
            "value": "6776-872657-1"
          },
          {
            "type": {
              "coding": [
                {
                  "code": "MR",
                  "system": "http://terminology.hl7.org/CodeSystem/v2-0203"
                }
              ]
            },
            "system": "http://local.setting.eu/identifier",
            "value": "a90ff566-3092-3af0-91f2-c0514ba66d35"
          }
        ],
        "name": [
          {
            "family": "Grenier"
          },
          {
            "given": [
              "Pauline"
            ]
          },
          {
            "text": "Pauline Grenier"
          }
        ],
        "address": [
          {
            "line": [
              "114, avenue Georges"
            ],
            "use": "home",
            "type": "physical",
            "postalCode": "71110",
            "city": "Caron",
            "country": "France"
          }
        ],
        "telecom": [
          {
            "system": "phone",
            "value": "+33 4 26 27 51 56"
          }
        ],
        "extension": [
          {
            "url": "http://hl7.org/fhir/StructureDefinition/patient-nationality",
            "valueCodeableConcept": {
              "coding": [
                {
                  "code": "FR",
                  "system": "http://hl7.org/fhir/ValueSet/country"
                }
              ]
            }
          }
        ],
        "text": {
          "status": "generated",
          "div": "<div xmlns=\"http://www.w3.org/1999/xhtml\"><table class=\"hl7__ips\"><tr><td>Pauline Grenier</td><td>female</td><td>03-May-1971</td></tr></table></div>"
        },
        "gender": "female",
        "birthDate": "1971-05-03"
      }
    },
    {
      "fullUrl": "urn:uuid:50b7a9d6-2775-4b21-94e9-4cf332e79d2e",
      "resource": {
        "resourceType": "ServiceRequest",
        "id": "50b7a9d6-2775-4b21-94e9-4cf332e79d2e",
        "meta": {
          "profile": [
            "http://hl7.eu/fhir/laboratory/StructureDefinition/ServiceRequest-eu-lab"
          ]
        },
        "identifier": [
          {
            "system": "http://example.org",
            "value": "0eb49f87-d8aa-418d-90a7-071ae96ac98e"
          }
        ],
        "specimen": [
          {
            "reference": "urn:uuid:fd7c1885-5820-4f4c-b50a-fe1e1820e421"
          }
        ],
        "reasonCode": [
          {
            "coding": [
              {
                "code": "59621000",
                "system": "http://snomed.info/sct",
                "display": "Essential hypertension"
              }
            ]
          },
          {
            "coding": [
              {
                "code": "237602007",
                "system": "http://snomed.info/sct",
                "display": "Metabolic syndrome X"
              }
            ]
          },
          {
            "coding": [
              {
                "code": "15777000",
                "system": "http://snomed.info/sct",
                "display": "Prediabetes"
              }
            ]
          }
        ],
        "status": "active",
        "intent": "order",
        "code": {
          "coding": [
            {
              "code": "108252007",
              "system": "http://snomed.info/sct",
              "display": "Laboratory procedure"
            }
          ]
        },
        "subject": {
          "reference": "urn:uuid:fb83b9ef-350a-47c4-ba3f-2997768f657a",
          "display": "Pauline Grenier"
        },
        "requester": {
          "reference": "urn:uuid:3f5255d1-ca43-4007-bbbb-7167f5fdeca4"
        }
      }
    },
    {
      "fullUrl": "urn:uuid:3f5255d1-ca43-4007-bbbb-7167f5fdeca4",
      "resource": {
        "resourceType": "PractitionerRole",
        "id": "3f5255d1-ca43-4007-bbbb-7167f5fdeca4",
        "meta": {
          "profile": [
            "http://hl7.eu/fhir/base/StructureDefinition/practitionerRole-eu"
          ]
        },
        "text": {
          "status": "generated",
          "div": "<div xmlns=\"http://www.w3.org/1999/xhtml\">Provider Role Id: 3f5255d1-ca43-4007-bbbb-7167f5fdeca4</div>"
        },
        "organization": {
          "reference": "urn:uuid:425981d9-2268-4f8b-b193-ad04392a28f7"
        }
      }
    },
    {
      "fullUrl": "urn:uuid:425981d9-2268-4f8b-b193-ad04392a28f7",
      "resource": {
        "resourceType": "Organization",
        "id": "425981d9-2268-4f8b-b193-ad04392a28f7",
        "meta": {
          "profile": [
            "http://hl7.eu/fhir/base/StructureDefinition/organization-eu"
          ]
        },
        "identifier": [
          {
            "assigner": {
              "display": "HL7 Europe"
            },
            "system": "urn:oid:2.16.840.1.113883.2.51.999",
            "value": "7c3ee783-0b27-4897-a062-088e986c00ac"
          }
        ],
        "address": [
          {
            "city": "Le Creusot",
            "postalCode": "71200",
            "country": "France"
          }
        ],
        "text": {
          "status": "generated",
          "div": "<div xmlns=\"http://www.w3.org/1999/xhtml\">Provider Organization: Hôpital du Creusot - Site Foch</div>"
        },
        "name": "Hôpital du Creusot - Site Foch"
      }
    },
    {
      "fullUrl": "urn:uuid:fd7c1885-5820-4f4c-b50a-fe1e1820e421",
      "resource": {
        "resourceType": "Specimen",
        "id": "fd7c1885-5820-4f4c-b50a-fe1e1820e421",
        "meta": {
          "profile": [
            "http://hl7.eu/fhir/laboratory/StructureDefinition/Specimen-eu-lab"
          ]
        },
        "collection": {
          "collectedDateTime": "2021-02-22"
        },
        "text": {
          "status": "generated",
          "div": "<div xmlns=\"http://www.w3.org/1999/xhtml\"><table class=\"hl7__eu__lab__report\"><tr><th>Specimen</th><th>Collection Date</th></tr><tr><td>Whole blood specimen (specimen)</td><td><span class=\"nb\">22-Feb-2021</span></td></tr></table></div>"
        },
        "type": {
          "coding": [
            {
              "code": "258580003",
              "system": "http://snomed.info/sct",
              "display": "Whole blood specimen (specimen)"
            }
          ]
        }
      }
    },
    {
      "fullUrl": "urn:uuid:916a632d-8181-4e66-b397-d22553d02cd3",
      "resource": {
        "resourceType": "Observation",
        "id": "916a632d-8181-4e66-b397-d22553d02cd3",
        "meta": {
          "profile": [
            "http://hl7.eu/fhir/laboratory/StructureDefinition/Observation-resultslab-eu-lab"
          ]
        },
        "performer": [
          {
            "display": "The Central European Lab"
          }
        ],
        "category": [
          {
            "coding": [
              {
                "system": "http://terminology.hl7.org/CodeSystem/observation-category",
                "code": "laboratory"
              }
            ]
          }
        ],
        "code": {
          "coding": [
            {
              "code": "4548-4",
              "system": "http://loinc.org",
              "display": "Hemoglobin A1c/Hemoglobin.total in Blood"
            }
          ],
          "text": "Hemoglobin A1c/Hemoglobin.total in Blood"
        },
        "valueQuantity": {
          "system": "http://unitsofmeasure.org",
          "value": 6,
          "unit": "%",
          "code": "%"
        },
        "referenceRange": [
          {
            "low": {
              "value": 4.8,
              "code": "%",
              "system": "http://unitsofmeasure.org"
            }
          },
          {
            "high": {
              "value": 5.7,
              "code": "%",
              "system": "http://unitsofmeasure.org"
            }
          }
        ],
        "interpretation": [
          {
            "coding": [
              {
                "code": "H",
                "system": "http://terminology.hl7.org/CodeSystem/v3-ObservationInterpretation",
                "display": "High"
              }
            ]
          }
        ],
        "text": {
          "status": "generated",
          "div": "<div xmlns=\"http://www.w3.org/1999/xhtml\"><table class=\"hl7__eu__lab__report\"><tr><th>Test</th><th>22-Feb-2021</th><th>Reference&#xA0;Range</th><th>Unit</th></tr><tr><td>Hemoglobin A1c/Hemoglobin.total in Blood</td><td>6.0</td><td>4.8 - 5.7</td><td>H</td><td>%</td></tr></table></div>"
        },
        "status": "final",
        "subject": {
          "reference": "urn:uuid:fb83b9ef-350a-47c4-ba3f-2997768f657a",
          "display": "Pauline Grenier"
        },
        "effectiveDateTime": "2021-02-22T11:54:46Z",
        "specimen": {
          "reference": "urn:uuid:fd7c1885-5820-4f4c-b50a-fe1e1820e421"
        }
      }
    },
    {
      "fullUrl": "urn:uuid:3b895939-d246-4247-8c6c-93ddd5a1ace8",
      "resource": {
        "resourceType": "Observation",
        "id": "3b895939-d246-4247-8c6c-93ddd5a1ace8",
        "meta": {
          "profile": [
            "http://hl7.eu/fhir/laboratory/StructureDefinition/Observation-resultslab-eu-lab"
          ]
        },
        "performer": [
          {
            "display": "The Central European Lab"
          }
        ],
        "category": [
          {
            "coding": [
              {
                "system": "http://terminology.hl7.org/CodeSystem/observation-category",
                "code": "laboratory"
              }
            ]
          }
        ],
        "code": {
          "coding": [
            {
              "code": "2339-0",
              "system": "http://loinc.org",
              "display": "Glucose [Mass/volume] in Blood"
            }
          ],
          "text": "Glucose [Mass/volume] in Blood"
        },
        "valueQuantity": {
          "system": "http://unitsofmeasure.org",
          "value": 92.7,
          "unit": "mg/dL",
          "code": "mg/dL"
        },
        "referenceRange": [
          {
            "low": {
              "value": 70,
              "code": "mg/dL",
              "system": "http://unitsofmeasure.org"
            }
          },
          {
            "high": {
              "value": 99,
              "code": "mg/dL",
              "system": "http://unitsofmeasure.org"
            }
          }
        ],
        "text": {
          "status": "generated",
          "div": "<div xmlns=\"http://www.w3.org/1999/xhtml\"><table class=\"hl7__eu__lab__report\"><tr><th>Test</th><th>22-Feb-2021</th><th>Reference&#xA0;Range</th><th>Unit</th></tr><tr><td>Glucose [Mass/volume] in Blood</td><td>92.7</td><td>70 - 99</td><td></td><td>mg/dL</td></tr></table></div>"
        },
        "status": "final",
        "subject": {
          "reference": "urn:uuid:fb83b9ef-350a-47c4-ba3f-2997768f657a",
          "display": "Pauline Grenier"
        },
        "effectiveDateTime": "2021-02-22T11:54:46Z",
        "specimen": {
          "reference": "urn:uuid:fd7c1885-5820-4f4c-b50a-fe1e1820e421"
        }
      }
    },
    {
      "fullUrl": "urn:uuid:f3f177c9-92d1-45fd-8d96-fbba589bc7a8",
      "resource": {
        "resourceType": "Observation",
        "id": "f3f177c9-92d1-45fd-8d96-fbba589bc7a8",
        "meta": {
          "profile": [
            "http://hl7.eu/fhir/laboratory/StructureDefinition/Observation-resultslab-eu-lab"
          ]
        },
        "performer": [
          {
            "display": "The Central European Lab"
          }
        ],
        "category": [
          {
            "coding": [
              {
                "system": "http://terminology.hl7.org/CodeSystem/observation-category",
                "code": "laboratory"
              }
            ]
          }
        ],
        "code": {
          "coding": [
            {
              "code": "6299-2",
              "system": "http://loinc.org",
              "display": "Urea nitrogen [Mass/volume] in Blood"
            }
          ],
          "text": "Urea nitrogen [Mass/volume] in Blood"
        },
        "valueQuantity": {
          "system": "http://unitsofmeasure.org",
          "value": 11.1,
          "unit": "mg/dL",
          "code": "mg/dL"
        },
        "referenceRange": [
          {
            "low": {
              "value": 7,
              "code": "mg/dL",
              "system": "http://unitsofmeasure.org"
            }
          },
          {
            "high": {
              "value": 20,
              "code": "mg/dL",
              "system": "http://unitsofmeasure.org"
            }
          }
        ],
        "text": {
          "status": "generated",
          "div": "<div xmlns=\"http://www.w3.org/1999/xhtml\"><table class=\"hl7__eu__lab__report\"><tr><th>Test</th><th>22-Feb-2021</th><th>Reference&#xA0;Range</th><th>Unit</th></tr><tr><td>Urea nitrogen [Mass/volume] in Blood</td><td>11.1</td><td>7 - 20</td><td></td><td>mg/dL</td></tr></table></div>"
        },
        "status": "final",
        "subject": {
          "reference": "urn:uuid:fb83b9ef-350a-47c4-ba3f-2997768f657a",
          "display": "Pauline Grenier"
        },
        "effectiveDateTime": "2021-02-22T11:54:46Z",
        "specimen": {
          "reference": "urn:uuid:fd7c1885-5820-4f4c-b50a-fe1e1820e421"
        }
      }
    },
    {
      "fullUrl": "urn:uuid:0ce84ea5-3e49-419e-8c99-d2cbe5a1d39e",
      "resource": {
        "resourceType": "Observation",
        "id": "0ce84ea5-3e49-419e-8c99-d2cbe5a1d39e",
        "meta": {
          "profile": [
            "http://hl7.eu/fhir/laboratory/StructureDefinition/Observation-resultslab-eu-lab"
          ]
        },
        "performer": [
          {
            "display": "The Central European Lab"
          }
        ],
        "category": [
          {
            "coding": [
              {
                "system": "http://terminology.hl7.org/CodeSystem/observation-category",
                "code": "laboratory"
              }
            ]
          }
        ],
        "code": {
          "coding": [
            {
              "code": "38483-4",
              "system": "http://loinc.org",
              "display": "Creatinine [Mass/volume] in Blood"
            }
          ],
          "text": "Creatinine [Mass/volume] in Blood"
        },
        "valueQuantity": {
          "system": "http://unitsofmeasure.org",
          "value": 1,
          "unit": "mg/dL",
          "code": "mg/dL"
        },
        "referenceRange": [
          {
            "low": {
              "value": 0.6,
              "code": "mg/dL",
              "system": "http://unitsofmeasure.org"
            }
          },
          {
            "high": {
              "value": 1.1,
              "code": "mg/dL",
              "system": "http://unitsofmeasure.org"
            }
          }
        ],
        "text": {
          "status": "generated",
          "div": "<div xmlns=\"http://www.w3.org/1999/xhtml\"><table class=\"hl7__eu__lab__report\"><tr><th>Test</th><th>22-Feb-2021</th><th>Reference&#xA0;Range</th><th>Unit</th></tr><tr><td>Creatinine [Mass/volume] in Blood</td><td>1.0</td><td>0.6 - 1.1</td><td></td><td>mg/dL</td></tr></table></div>"
        },
        "status": "final",
        "subject": {
          "reference": "urn:uuid:fb83b9ef-350a-47c4-ba3f-2997768f657a",
          "display": "Pauline Grenier"
        },
        "effectiveDateTime": "2021-02-22T11:54:46Z",
        "specimen": {
          "reference": "urn:uuid:fd7c1885-5820-4f4c-b50a-fe1e1820e421"
        }
      }
    },
    {
      "fullUrl": "urn:uuid:5f975731-0d98-4aa0-b731-3d40fed3119a",
      "resource": {
        "resourceType": "Observation",
        "id": "5f975731-0d98-4aa0-b731-3d40fed3119a",
        "meta": {
          "profile": [
            "http://hl7.eu/fhir/laboratory/StructureDefinition/Observation-resultslab-eu-lab"
          ]
        },
        "performer": [
          {
            "display": "The Central European Lab"
          }
        ],
        "category": [
          {
            "coding": [
              {
                "system": "http://terminology.hl7.org/CodeSystem/observation-category",
                "code": "laboratory"
              }
            ]
          }
        ],
        "code": {
          "coding": [
            {
              "code": "49765-1",
              "system": "http://loinc.org",
              "display": "Calcium [Mass/volume] in Blood"
            }
          ],
          "text": "Calcium [Mass/volume] in Blood"
        },
        "valueQuantity": {
          "system": "http://unitsofmeasure.org",
          "value": 9.2,
          "unit": "mg/dL",
          "code": "mg/dL"
        },
        "referenceRange": [
          {
            "low": {
              "value": 8.5,
              "code": "mg/dL",
              "system": "http://unitsofmeasure.org"
            }
          },
          {
            "high": {
              "value": 10.5,
              "code": "mg/dL",
              "system": "http://unitsofmeasure.org"
            }
          }
        ],
        "text": {
          "status": "generated",
          "div": "<div xmlns=\"http://www.w3.org/1999/xhtml\"><table class=\"hl7__eu__lab__report\"><tr><th>Test</th><th>22-Feb-2021</th><th>Reference&#xA0;Range</th><th>Unit</th></tr><tr><td>Calcium [Mass/volume] in Blood</td><td>9.2</td><td>8.5 - 10.5</td><td></td><td>mg/dL</td></tr></table></div>"
        },
        "status": "final",
        "subject": {
          "reference": "urn:uuid:fb83b9ef-350a-47c4-ba3f-2997768f657a",
          "display": "Pauline Grenier"
        },
        "effectiveDateTime": "2021-02-22T11:54:46Z",
        "specimen": {
          "reference": "urn:uuid:fd7c1885-5820-4f4c-b50a-fe1e1820e421"
        }
      }
    },
    {
      "fullUrl": "urn:uuid:7fab72d1-4a51-4599-9f1e-4e69e5164368",
      "resource": {
        "resourceType": "Observation",
        "id": "7fab72d1-4a51-4599-9f1e-4e69e5164368",
        "meta": {
          "profile": [
            "http://hl7.eu/fhir/laboratory/StructureDefinition/Observation-resultslab-eu-lab"
          ]
        },
        "performer": [
          {
            "display": "The Central European Lab"
          }
        ],
        "category": [
          {
            "coding": [
              {
                "system": "http://terminology.hl7.org/CodeSystem/observation-category",
                "code": "laboratory"
              }
            ]
          }
        ],
        "code": {
          "coding": [
            {
              "code": "2947-0",
              "system": "http://loinc.org",
              "display": "Sodium [Moles/volume] in Blood"
            }
          ],
          "text": "Sodium [Moles/volume] in Blood"
        },
        "valueQuantity": {
          "system": "http://unitsofmeasure.org",
          "value": 137.2,
          "unit": "mmol/L",
          "code": "mmol/L"
        },
        "referenceRange": [
          {
            "low": {
              "value": 135,
              "code": "mmol/L",
              "system": "http://unitsofmeasure.org"
            }
          },
          {
            "high": {
              "value": 145,
              "code": "mmol/L",
              "system": "http://unitsofmeasure.org"
            }
          }
        ],
        "text": {
          "status": "generated",
          "div": "<div xmlns=\"http://www.w3.org/1999/xhtml\"><table class=\"hl7__eu__lab__report\"><tr><th>Test</th><th>22-Feb-2021</th><th>Reference&#xA0;Range</th><th>Unit</th></tr><tr><td>Sodium [Moles/volume] in Blood</td><td>137.2</td><td>135 - 145</td><td></td><td>mmol/L</td></tr></table></div>"
        },
        "status": "final",
        "subject": {
          "reference": "urn:uuid:fb83b9ef-350a-47c4-ba3f-2997768f657a",
          "display": "Pauline Grenier"
        },
        "effectiveDateTime": "2021-02-22T11:54:46Z",
        "specimen": {
          "reference": "urn:uuid:fd7c1885-5820-4f4c-b50a-fe1e1820e421"
        }
      }
    },
    {
      "fullUrl": "urn:uuid:b372d581-011f-4100-a881-9dd14081eb63",
      "resource": {
        "resourceType": "Observation",
        "id": "b372d581-011f-4100-a881-9dd14081eb63",
        "meta": {
          "profile": [
            "http://hl7.eu/fhir/laboratory/StructureDefinition/Observation-resultslab-eu-lab"
          ]
        },
        "performer": [
          {
            "display": "The Central European Lab"
          }
        ],
        "category": [
          {
            "coding": [
              {
                "system": "http://terminology.hl7.org/CodeSystem/observation-category",
                "code": "laboratory"
              }
            ]
          }
        ],
        "code": {
          "coding": [
            {
              "code": "6298-4",
              "system": "http://loinc.org",
              "display": "Potassium [Moles/volume] in Blood"
            }
          ],
          "text": "Potassium [Moles/volume] in Blood"
        },
        "valueQuantity": {
          "system": "http://unitsofmeasure.org",
          "value": 4.4,
          "unit": "mmol/L",
          "code": "mmol/L"
        },
        "referenceRange": [
          {
            "low": {
              "value": 3.5,
              "code": "mmol/L",
              "system": "http://unitsofmeasure.org"
            }
          },
          {
            "high": {
              "value": 5.3,
              "code": "mmol/L",
              "system": "http://unitsofmeasure.org"
            }
          }
        ],
        "text": {
          "status": "generated",
          "div": "<div xmlns=\"http://www.w3.org/1999/xhtml\"><table class=\"hl7__eu__lab__report\"><tr><th>Test</th><th>22-Feb-2021</th><th>Reference&#xA0;Range</th><th>Unit</th></tr><tr><td>Potassium [Moles/volume] in Blood</td><td>4.4</td><td>3.5 - 5.3</td><td></td><td>mmol/L</td></tr></table></div>"
        },
        "status": "final",
        "subject": {
          "reference": "urn:uuid:fb83b9ef-350a-47c4-ba3f-2997768f657a",
          "display": "Pauline Grenier"
        },
        "effectiveDateTime": "2021-02-22T11:54:46Z",
        "specimen": {
          "reference": "urn:uuid:fd7c1885-5820-4f4c-b50a-fe1e1820e421"
        }
      }
    },
    {
      "fullUrl": "urn:uuid:0da826e9-e963-43c7-b8ac-9f14073daef9",
      "resource": {
        "resourceType": "Observation",
        "id": "0da826e9-e963-43c7-b8ac-9f14073daef9",
        "meta": {
          "profile": [
            "http://hl7.eu/fhir/laboratory/StructureDefinition/Observation-resultslab-eu-lab"
          ]
        },
        "performer": [
          {
            "display": "The Central European Lab"
          }
        ],
        "category": [
          {
            "coding": [
              {
                "system": "http://terminology.hl7.org/CodeSystem/observation-category",
                "code": "laboratory"
              }
            ]
          }
        ],
        "code": {
          "coding": [
            {
              "code": "2069-3",
              "system": "http://loinc.org",
              "display": "Chloride [Moles/volume] in Blood"
            }
          ],
          "text": "Chloride [Moles/volume] in Blood"
        },
        "valueQuantity": {
          "system": "http://unitsofmeasure.org",
          "value": 102.7,
          "unit": "mmol/L",
          "code": "mmol/L"
        },
        "referenceRange": [
          {
            "low": {
              "value": 98,
              "code": "mmol/L",
              "system": "http://unitsofmeasure.org"
            }
          },
          {
            "high": {
              "value": 114,
              "code": "mmol/L",
              "system": "http://unitsofmeasure.org"
            }
          }
        ],
        "text": {
          "status": "generated",
          "div": "<div xmlns=\"http://www.w3.org/1999/xhtml\"><table class=\"hl7__eu__lab__report\"><tr><th>Test</th><th>22-Feb-2021</th><th>Reference&#xA0;Range</th><th>Unit</th></tr><tr><td>Chloride [Moles/volume] in Blood</td><td>102.7</td><td>98 - 114</td><td></td><td>mmol/L</td></tr></table></div>"
        },
        "status": "final",
        "subject": {
          "reference": "urn:uuid:fb83b9ef-350a-47c4-ba3f-2997768f657a",
          "display": "Pauline Grenier"
        },
        "effectiveDateTime": "2021-02-22T11:54:46Z",
        "specimen": {
          "reference": "urn:uuid:fd7c1885-5820-4f4c-b50a-fe1e1820e421"
        }
      }
    },
    {
      "fullUrl": "urn:uuid:fbbd5d1e-e334-4999-b6de-3f8e07907d44",
      "resource": {
        "resourceType": "Observation",
        "id": "fbbd5d1e-e334-4999-b6de-3f8e07907d44",
        "meta": {
          "profile": [
            "http://hl7.eu/fhir/laboratory/StructureDefinition/Observation-resultslab-eu-lab"
          ]
        },
        "performer": [
          {
            "display": "The Central European Lab"
          }
        ],
        "category": [
          {
            "coding": [
              {
                "system": "http://terminology.hl7.org/CodeSystem/observation-category",
                "code": "laboratory"
              }
            ]
          }
        ],
        "code": {
          "coding": [
            {
              "code": "20565-8",
              "system": "http://loinc.org",
              "display": "Carbon dioxide, total [Moles/volume] in Blood"
            }
          ],
          "text": "Carbon dioxide, total [Moles/volume] in Blood"
        },
        "valueQuantity": {
          "system": "http://unitsofmeasure.org",
          "value": 20.8,
          "unit": "mmol/L",
          "code": "mmol/L"
        },
        "referenceRange": [
          {
            "low": {
              "value": 22,
              "code": "mmol/L",
              "system": "http://unitsofmeasure.org"
            }
          },
          {
            "high": {
              "value": 29,
              "code": "mmol/L",
              "system": "http://unitsofmeasure.org"
            }
          }
        ],
        "interpretation": [
          {
            "coding": [
              {
                "code": "L",
                "system": "http://terminology.hl7.org/CodeSystem/v3-ObservationInterpretation",
                "display": "Low"
              }
            ]
          }
        ],
        "text": {
          "status": "generated",
          "div": "<div xmlns=\"http://www.w3.org/1999/xhtml\"><table class=\"hl7__eu__lab__report\"><tr><th>Test</th><th>22-Feb-2021</th><th>Reference&#xA0;Range</th><th>Unit</th></tr><tr><td>Carbon dioxide, total [Moles/volume] in Blood</td><td>20.8</td><td>22 - 29</td><td>L</td><td>mmol/L</td></tr></table></div>"
        },
        "status": "final",
        "subject": {
          "reference": "urn:uuid:fb83b9ef-350a-47c4-ba3f-2997768f657a",
          "display": "Pauline Grenier"
        },
        "effectiveDateTime": "2021-02-22T11:54:46Z",
        "specimen": {
          "reference": "urn:uuid:fd7c1885-5820-4f4c-b50a-fe1e1820e421"
        }
      }
    },
    {
      "fullUrl": "urn:uuid:b214ba8f-86c9-4438-aae3-e0df29d85dc6",
      "resource": {
        "resourceType": "Device",
        "id": "b214ba8f-86c9-4438-aae3-e0df29d85dc6",
        "deviceName": [
          {
            "name": "SYNDERAI Synthetic Generator",
            "type": "manufacturer-name"
          }
        ],
        "version": [
          {
            "value": "5.0"
          }
        ],
        "text": {
          "status": "generated",
          "div": "<div xmlns=\"http://www.w3.org/1999/xhtml\">SYNDERAI Synthetic Generator v5.0</div>"
        },
        "status": "active\"",
        "distinctIdentifier": "synderai-generator-50",
        "manufacturer": "SYNDERAI Project"
      }
    },
    {
      "fullUrl": "urn:uuid:346b1835-d4e0-45b4-b20c-804b501a4bd3",
      "resource": {
        "resourceType": "Provenance",
        "id": "346b1835-d4e0-45b4-b20c-804b501a4bd3",
        "target": [
          {
            "reference": "Patient/fb83b9ef-350a-47c4-ba3f-2997768f657a"
          },
          {
            "reference": "Bundle/9b0052ef-4c46-4c11-ae43-56f1e0c3cd60"
          },
          {
            "reference": "Composition/75ea2387-d60b-4841-b3c0-76151c24f936"
          },
          {
            "reference": "PractitionerRole/396fbe2f-8b67-4884-9626-e04ca7dbdd23"
          },
          {
            "reference": "Practitioner/436e81fa-0125-4beb-849a-216d93b03e7b"
          },
          {
            "reference": "PractitionerRole/3f5255d1-ca43-4007-bbbb-7167f5fdeca4"
          },
          {
            "reference": "Organization/425981d9-2268-4f8b-b193-ad04392a28f7"
          }
        ],
        "activity": {
          "text": "Synthetic Example Data Generation"
        },
        "policy": [
          "https://synderai.net/synderai-synthetic-data-policy"
        ],
        "agent": [
          {
            "type": {
              "text": "author"
            },
            "who": {
              "reference": "Device/b214ba8f-86c9-4438-aae3-e0df29d85dc6"
            }
          }
        ],
        "reason": [
          {
            "text": "Interoperability Testing and Training (non-clinical use)"
          }
        ],
        "text": {
          "status": "generated",
          "div": "<div xmlns=\"http://www.w3.org/1999/xhtml\">Provenance for SYNDERAI Synthetic Example Data Resource</div>"
        },
        "recorded": "2021-02-22T12:54:46Z"
      }
    },
    {
      "fullUrl": "urn:uuid:396fbe2f-8b67-4884-9626-e04ca7dbdd23",
      "resource": {
        "resourceType": "PractitionerRole",
        "id": "396fbe2f-8b67-4884-9626-e04ca7dbdd23",
        "meta": {
          "profile": [
            "http://hl7.eu/fhir/base/StructureDefinition/practitionerRole-eu"
          ]
        },
        "text": {
          "status": "generated",
          "div": "<div xmlns=\"http://www.w3.org/1999/xhtml\">Laboratory Role Id: 396fbe2f-8b67-4884-9626-e04ca7dbdd23</div>"
        },
        "practitioner": {
          "reference": "urn:uuid:436e81fa-0125-4beb-849a-216d93b03e7b"
        }
      }
    },
    {
      "fullUrl": "urn:uuid:436e81fa-0125-4beb-849a-216d93b03e7b",
      "resource": {
        "resourceType": "Practitioner",
        "id": "436e81fa-0125-4beb-849a-216d93b03e7b",
        "meta": {
          "profile": [
            "http://hl7.eu/fhir/base/StructureDefinition/practitioner-eu"
          ]
        },
        "identifier": [
          {
            "assigner": {
              "display": "HL7 Europe"
            },
            "system": "urn:oid:2.16.840.1.113883.2.51.999",
            "value": "244d8088-ef26-432f-a16e-62481558d974"
          }
        ],
        "name": [
          {
            "prefix": [
              "dr"
            ],
            "given": [
              "Ex"
            ],
            "family": "Ample"
          }
        ],
        "address": [
          {
            "line": [
              "Laboratoire Central Européenne",
              "Boulevard du Jardin Botanique 32"
            ],
            "postalCode": "1000",
            "city": "Brussels",
            "country": "Belgium"
          }
        ],
        "text": {
          "status": "generated",
          "div": "<div xmlns=\"http://www.w3.org/1999/xhtml\">Laboratory: Laboratoire Central Européenne, 1000 Brussels, Belgium</div>"
        }
      }
    }
  ],
  "type": "document",
  "timestamp": "2021-02-22T12:54:46Z"
}
