{
  "resourceType": "Bundle",
  "id": "9873928c-edde-4af6-bc8d-c935172753cb",
  "meta": {
    "profile": [
      "http://hl7.eu/fhir/laboratory/StructureDefinition/Bundle-eu-lab"
    ]
  },
  "identifier": {
    "assigner": {
      "display": "HL7 Europe"
    },
    "system": "urn:oid:2.16.840.1.113883.2.51.999",
    "value": "2bf93c94-73ca-4115-8d39-da5fbfc1666d"
  },
  "entry": [
    {
      "fullUrl": "urn:uuid:21c9eada-04df-4b66-85f4-54b919d672c2",
      "resource": {
        "resourceType": "Composition",
        "id": "21c9eada-04df-4b66-85f4-54b919d672c2",
        "meta": {
          "profile": [
            "http://hl7.eu/fhir/laboratory/StructureDefinition/Composition-eu-lab"
          ]
        },
        "identifier": {
          "assigner": {
            "display": "HL7 Europe"
          },
          "system": "urn:oid:2.16.840.1.113883.2.51.999",
          "value": "d2ff5a93-5a57-48ab-af46-15a0f2080cfb"
        },
        "author": [
          {
            "reference": "urn:uuid:e6393efb-c276-492f-975e-3a1c9155a312"
          }
        ],
        "category": [
          {
            "coding": [
              {
                "code": "26436-6",
                "system": "http://loinc.org",
                "display": "Laboratory studies (set)"
              }
            ]
          }
        ],
        "type": {
          "coding": [
            {
              "code": "11502-2",
              "system": "http://loinc.org",
              "display": "Laboratory report"
            }
          ],
          "text": "Laboratory Report"
        },
        "section": [
          {
            "code": {
              "coding": [
                {
                  "code": "26436-6",
                  "system": "http://loinc.org",
                  "display": "Laboratory studies (set)"
                }
              ],
              "text": "Laboratory studies"
            },
            "section": [
              {
                "code": {
                  "coding": [
                    {
                      "code": "$18719-5",
                      "system": "http://loinc.org",
                      "display": "Chemistry studies (set)"
                    }
                  ],
                  "text": "Chemistry"
                },
                "entry": [
                  {
                    "reference": "urn:uuid:1f3203fa-a1b1-4c00-85b7-1e0165dd6942"
                  },
                  {
                    "reference": "urn:uuid:39d60ec4-bb03-4063-9895-29eaa790d731"
                  },
                  {
                    "reference": "urn:uuid:552a8b33-7549-4779-af21-29948b4e2ec7"
                  },
                  {
                    "reference": "urn:uuid:deeb9b80-007a-4202-9ce0-15b05593b5eb"
                  },
                  {
                    "reference": "urn:uuid:7a8d771d-fb1a-490f-8f37-cd37c96618ff"
                  },
                  {
                    "reference": "urn:uuid:e3aca161-56c9-4414-83a8-d7c8d2e1c863"
                  },
                  {
                    "reference": "urn:uuid:0826a404-998c-4e06-aa04-5a5c086203d5"
                  },
                  {
                    "reference": "urn:uuid:00bb0df4-3077-4194-a6e4-8676f420d445"
                  },
                  {
                    "reference": "urn:uuid:8335e2f6-111d-4485-a553-b2d5ccb8358e"
                  },
                  {
                    "reference": "urn:uuid:28d01ec7-7274-4f39-98d2-e48d37bef3cb"
                  },
                  {
                    "reference": "urn:uuid:371d2972-1136-48d9-9614-10446da97a51"
                  },
                  {
                    "reference": "urn:uuid:31d859e2-fa0c-4c8c-b370-f2bd93645788"
                  },
                  {
                    "reference": "urn:uuid:59856852-33f5-4afe-9ef3-11dd09e1fb58"
                  },
                  {
                    "reference": "urn:uuid:e8456bd7-836c-431c-8748-45ba5ac53034"
                  },
                  {
                    "reference": "urn:uuid:fb964ab2-09d5-4f92-bbaf-71a55da420e1"
                  },
                  {
                    "reference": "urn:uuid:4a738c52-bf3c-4ae8-a91d-700d6756f09b"
                  }
                ],
                "text": {
                  "status": "generated",
                  "div": "<div xmlns=\"http://www.w3.org/1999/xhtml\"><h3>Chemistry</h3><table class=\"hl7__eu__lab__report\"><thead><tr><th>Test</th><th>16-MAR-2016</th><th>Reference&#xA0;Range</th><th>Unit</th></tr></thead><tbody><tr><td>Glucose [Mass/volume] in Blood</td><td>88.5</td><td>70 - 140</td><td>mg/dL</td></tr><tr><td>Urea nitrogen [Mass/volume] in Blood</td><td>11.7</td><td>7 - 25</td><td>mg/dL</td></tr><tr><td>Creatinine [Mass/volume] in Blood</td><td><strong>2.5 H</strong></td><td>0.6 - 1.1</td><td>mg/dL</td></tr><tr><td>Calcium [Mass/volume] in Blood</td><td>9.0</td><td>8.6 - 10.4</td><td>mg/dL</td></tr><tr><td>Sodium [Moles/volume] in Blood</td><td>139.5</td><td>135 - 145</td><td>mmol/L</td></tr><tr><td>Potassium [Moles/volume] in Blood</td><td>4.7</td><td>3.5 - 5.1</td><td>mmol/L</td></tr><tr><td>Chloride [Moles/volume] in Blood</td><td>107.9</td><td>98 - 110</td><td>mmol/L</td></tr><tr><td>Carbon dioxide, total [Moles/volume] in Blood</td><td>25.6</td><td>22 - 29</td><td>mmol/L</td></tr><tr><td>Protein [Mass/volume] in Serum or Plasma</td><td>7.9</td><td>6.6 - 8.3</td><td>g/dL</td></tr><tr><td>Albumin [Mass/volume] in Serum or Plasma</td><td><strong>5.3 H</strong></td><td>3.5 - 5</td><td>g/dL</td></tr><tr><td>Globulin [Mass/volume] in Serum by calculation</td><td>2.5</td><td>2 - 3.5</td><td>g/L</td></tr><tr><td>Bilirubin.total [Mass/volume] in Serum or Plasma</td><td>1.0</td><td>0.3 - 1.2</td><td>mg/dL</td></tr><tr><td>Alkaline phosphatase [Enzymatic activity/volume] in Serum or Plasma</td><td>53.0</td><td>39 - 141</td><td>U/L</td></tr><tr><td>Alanine aminotransferase [Enzymatic activity/volume] in Serum or Plasma</td><td>23.9</td><td>7 - 40</td><td>U/L</td></tr><tr><td>Aspartate aminotransferase [Enzymatic activity/volume] in Serum or Plasma</td><td>30.2</td><td>10 - 32</td><td>U/L</td></tr><tr><td>Ketones [Presence] in Urine by Test strip</td><td>Urine ketone test = +++</td><td></td><td></td></tr></tbody></table></div>"
                },
                "title": "Chemistry"
              },
              {
                "code": {
                  "coding": [
                    {
                      "code": "$18729-4",
                      "system": "http://loinc.org",
                      "display": "Urinalysis studies (set)"
                    }
                  ],
                  "text": "Urinalysis"
                },
                "entry": [
                  {
                    "reference": "urn:uuid:547bee97-4652-4e00-8a81-661b63c16f52"
                  },
                  {
                    "reference": "urn:uuid:0192e163-44ab-4847-9d7a-22c6ff192265"
                  },
                  {
                    "reference": "urn:uuid:0e5dacc2-6df4-412c-9e28-551c058d4ef5"
                  },
                  {
                    "reference": "urn:uuid:58410cdd-34b1-47c8-8b2e-55b9142f377f"
                  },
                  {
                    "reference": "urn:uuid:b4e60b2d-16c2-42f6-8f73-3376c9f0ceaa"
                  },
                  {
                    "reference": "urn:uuid:2b523963-d78e-46e8-a667-fb75cec1f33b"
                  },
                  {
                    "reference": "urn:uuid:8bac652d-2fdb-4020-aa41-323e256c3974"
                  },
                  {
                    "reference": "urn:uuid:85d20559-96ba-4876-b744-302bc83fdb44"
                  },
                  {
                    "reference": "urn:uuid:74cdb337-83b8-4e9a-92ea-f553410c041e"
                  },
                  {
                    "reference": "urn:uuid:464691aa-fffe-4b6b-91ff-15233a1ccf7a"
                  },
                  {
                    "reference": "urn:uuid:c2236970-4154-47ff-80a8-c5ae9e4e6923"
                  },
                  {
                    "reference": "urn:uuid:fa4c8a27-6aba-418f-b8b9-5f64c00a807e"
                  }
                ],
                "text": {
                  "status": "generated",
                  "div": "<div xmlns=\"http://www.w3.org/1999/xhtml\"><h3>Urinalysis</h3><table class=\"hl7__eu__lab__report\"><thead><tr><th>Test</th><th>16-MAR-2016</th><th>Reference&#xA0;Range</th><th>Unit</th></tr></thead><tbody><tr><td>Glucose [Mass/volume] in Urine by Test strip</td><td><strong>1.5 H</strong></td><td>0 - 0.8</td><td>mg/dL</td></tr><tr><td>Glucose [Presence] in Urine by Test strip</td><td>++</td><td></td><td></td></tr><tr><td>Bilirubin.total [Mass/volume] in Urine by Test strip</td><td>0.2</td><td>0 - 1</td><td>mg/dL</td></tr><tr><td>Bilirubin.total [Presence] in Urine by Test strip</td><td>Finding of bilirubin in urine</td><td></td><td></td></tr><tr><td>Ketones [Mass/volume] in Urine by Test strip</td><td><strong>4.4 H</strong></td><td>0 - 4</td><td>mg/dL</td></tr><tr><td>Specific gravity of Urine by Test strip</td><td><strong>1.0 L</strong></td><td>1.005 - 1.03</td><td>{nominal}</td></tr><tr><td>pH of Urine by Test strip</td><td>6.6</td><td>4.5 - 7</td><td>pH</td></tr><tr><td>Protein [Mass/volume] in Urine by Test strip</td><td><strong>421.1 H</strong></td><td>0 - 145</td><td>mg/dL</td></tr><tr><td>Protein [Presence] in Urine by Test strip</td><td>Urine protein test = +++</td><td></td><td></td></tr><tr><td>Nitrite [Presence] in Urine by Test strip</td><td>Urine nitrite negative</td><td></td><td></td></tr><tr><td>Hemoglobin [Presence] in Urine by Test strip</td><td>Urine blood test = negative</td><td></td><td></td></tr><tr><td>Leukocyte esterase [Presence] in Urine by Test strip</td><td>Urine leukocyte test negative</td><td></td><td></td></tr></tbody></table></div>"
                },
                "title": "Urinalysis"
              },
              {
                "code": {
                  "coding": [
                    {
                      "code": "$LP7846-1",
                      "system": "http://loinc.org",
                      "display": "Specimen information"
                    }
                  ],
                  "text": "Specimen information"
                },
                "entry": [
                  {
                    "reference": "urn:uuid:c36f1dd5-389c-48da-922a-d9a28bfac410"
                  },
                  {
                    "reference": "urn:uuid:0a5ad13c-9cac-4f19-aaa0-8ade47b586dc"
                  },
                  {
                    "reference": "urn:uuid:722326cf-64da-4509-b10c-bdcbe400f575"
                  },
                  {
                    "reference": "urn:uuid:6b66d623-f233-4794-aa61-d57386dacfae"
                  }
                ],
                "text": {
                  "status": "generated",
                  "div": "<div xmlns=\"http://www.w3.org/1999/xhtml\"><h3>Specimen information</h3><table class=\"hl7__eu__lab__report\"><thead><tr><th>Test</th><th>16-MAR-2016</th><th>Specimen</th><th></th></tr></thead><tbody><tr><td>Appearance of Urine</td><td>Cloudy urine</td><td>Urine</td><td></td></tr><tr><td>Odor of Urine</td><td>Urine smell ammoniacal</td><td>Urine</td><td></td></tr><tr><td>Clarity of Urine</td><td>Translucent</td><td>Urine</td><td></td></tr><tr><td>Color of Urine</td><td>Brown color</td><td>Urine</td><td></td></tr></tbody></table></div>"
                },
                "title": "Specimen information"
              }
            ],
            "title": "Laboratory Report"
          },
          {
            "text": {
              "status": "generated",
              "div": "<div xmlns=\"http://www.w3.org/1999/xhtml\"><h3>Annotation</h3><table class=\"hl7__eu__lab__report\"><tr><th>Conclusion and Recommendations based on this report and previous findings known to us</th></tr><tr><td>The patient shows elevated serum creatinine, proteinuria, glucosuria, and ketonuria, suggesting impaired renal function with possible nephrotic-range protein loss and glycosuria not explained by hyperglycemia. Urine is cloudy, brown, and dilute. No evidence of urinary tract infection or hematuria. Findings are consistent with significant renal impairment; further nephrological evaluation is recommended.</td></tr></table></div>"
            },
            "code": {
              "coding": [
                {
                  "system": "http://loinc.org",
                  "code": "48767-8",
                  "display": "Annotation comment"
                }
              ]
            },
            "title": "Annotation comment"
          }
        ],
        "status": "final",
        "subject": {
          "reference": "urn:uuid:d82a0be7-57fe-4215-9b35-4176cae274b1",
          "display": "Iva Kratochvílová"
        },
        "date": "2016-03-16T07:19:29Z",
        "title": "Laboratory Report",
        "confidentiality": "N"
      }
    },
    {
      "fullUrl": "urn:uuid:5300c24c-305e-4f20-9276-15315f78fab0",
      "resource": {
        "resourceType": "DiagnosticReport",
        "id": "5300c24c-305e-4f20-9276-15315f78fab0",
        "meta": {
          "profile": [
            "http://hl7.eu/fhir/laboratory/StructureDefinition/DiagnosticReport-eu-lab"
          ]
        },
        "identifier": [
          {
            "assigner": {
              "display": "HL7 Europe"
            },
            "system": "urn:oid:2.16.840.1.113883.2.51.999",
            "value": "fd8dc501-5c3e-456a-94f3-3e653e36dae6"
          }
        ],
        "extension": [
          {
            "url": "http://hl7.org/fhir/5.0/StructureDefinition/extension-DiagnosticReport.composition",
            "valueReference": {
              "reference": "urn:uuid:d2ff5a93-5a57-48ab-af46-15a0f2080cfb"
            }
          }
        ],
        "category": [
          {
            "coding": [
              {
                "code": "26436-6",
                "system": "http://loinc.org",
                "display": "Laboratory studies (set)"
              }
            ]
          }
        ],
        "specimen": [
          {
            "reference": "urn:uuid:00d63368-2acb-4a3e-9415-c9f4cd62ac1a"
          },
          {
            "reference": "urn:uuid:bf4dd7c1-9e30-47d8-94b2-fab56ea2d2e0"
          },
          {
            "reference": "urn:uuid:4a072fd1-7a81-47cc-8386-4ca7a627dd2c"
          },
          {
            "reference": "urn:uuid:09a0d300-a1d6-4077-9f4a-e85ad70d9437"
          }
        ],
        "result": [
          {
            "reference": "urn:uuid:1f3203fa-a1b1-4c00-85b7-1e0165dd6942"
          },
          {
            "reference": "urn:uuid:39d60ec4-bb03-4063-9895-29eaa790d731"
          },
          {
            "reference": "urn:uuid:552a8b33-7549-4779-af21-29948b4e2ec7"
          },
          {
            "reference": "urn:uuid:deeb9b80-007a-4202-9ce0-15b05593b5eb"
          },
          {
            "reference": "urn:uuid:7a8d771d-fb1a-490f-8f37-cd37c96618ff"
          },
          {
            "reference": "urn:uuid:e3aca161-56c9-4414-83a8-d7c8d2e1c863"
          },
          {
            "reference": "urn:uuid:0826a404-998c-4e06-aa04-5a5c086203d5"
          },
          {
            "reference": "urn:uuid:00bb0df4-3077-4194-a6e4-8676f420d445"
          },
          {
            "reference": "urn:uuid:8335e2f6-111d-4485-a553-b2d5ccb8358e"
          },
          {
            "reference": "urn:uuid:28d01ec7-7274-4f39-98d2-e48d37bef3cb"
          },
          {
            "reference": "urn:uuid:371d2972-1136-48d9-9614-10446da97a51"
          },
          {
            "reference": "urn:uuid:31d859e2-fa0c-4c8c-b370-f2bd93645788"
          },
          {
            "reference": "urn:uuid:59856852-33f5-4afe-9ef3-11dd09e1fb58"
          },
          {
            "reference": "urn:uuid:e8456bd7-836c-431c-8748-45ba5ac53034"
          },
          {
            "reference": "urn:uuid:fb964ab2-09d5-4f92-bbaf-71a55da420e1"
          },
          {
            "reference": "urn:uuid:c36f1dd5-389c-48da-922a-d9a28bfac410"
          },
          {
            "reference": "urn:uuid:0a5ad13c-9cac-4f19-aaa0-8ade47b586dc"
          },
          {
            "reference": "urn:uuid:722326cf-64da-4509-b10c-bdcbe400f575"
          },
          {
            "reference": "urn:uuid:6b66d623-f233-4794-aa61-d57386dacfae"
          },
          {
            "reference": "urn:uuid:547bee97-4652-4e00-8a81-661b63c16f52"
          },
          {
            "reference": "urn:uuid:0192e163-44ab-4847-9d7a-22c6ff192265"
          },
          {
            "reference": "urn:uuid:0e5dacc2-6df4-412c-9e28-551c058d4ef5"
          },
          {
            "reference": "urn:uuid:58410cdd-34b1-47c8-8b2e-55b9142f377f"
          },
          {
            "reference": "urn:uuid:b4e60b2d-16c2-42f6-8f73-3376c9f0ceaa"
          },
          {
            "reference": "urn:uuid:4a738c52-bf3c-4ae8-a91d-700d6756f09b"
          },
          {
            "reference": "urn:uuid:2b523963-d78e-46e8-a667-fb75cec1f33b"
          },
          {
            "reference": "urn:uuid:8bac652d-2fdb-4020-aa41-323e256c3974"
          },
          {
            "reference": "urn:uuid:85d20559-96ba-4876-b744-302bc83fdb44"
          },
          {
            "reference": "urn:uuid:74cdb337-83b8-4e9a-92ea-f553410c041e"
          },
          {
            "reference": "urn:uuid:464691aa-fffe-4b6b-91ff-15233a1ccf7a"
          },
          {
            "reference": "urn:uuid:c2236970-4154-47ff-80a8-c5ae9e4e6923"
          },
          {
            "reference": "urn:uuid:fa4c8a27-6aba-418f-b8b9-5f64c00a807e"
          }
        ],
        "status": "registered",
        "code": {
          "coding": [
            {
              "code": "11502-2",
              "system": "http://loinc.org",
              "display": "Laboratory report"
            }
          ]
        },
        "subject": {
          "reference": "urn:uuid:d82a0be7-57fe-4215-9b35-4176cae274b1",
          "display": "Iva Kratochvílová"
        }
      }
    },
    {
      "fullUrl": "urn:uuid:d82a0be7-57fe-4215-9b35-4176cae274b1",
      "resource": {
        "resourceType": "Patient",
        "id": "d82a0be7-57fe-4215-9b35-4176cae274b1",
        "meta": {
          "security": [
            {
              "system": "http://terminology.hl7.org/CodeSystem/v3-ActReason",
              "code": "HTEST"
            },
            {
              "system": "http://terminology.hl7.org/CodeSystem/v3-ActReason",
              "code": "TRAIN"
            }
          ],
          "tag": [
            {
              "system": "https://synderai.net/fhir/CodeSystem/tags",
              "code": "synthetic",
              "display": "SYNDERAI Synthetic data"
            }
          ],
          "profile": [
            "http://hl7.eu/fhir/base/StructureDefinition/patient-eu-core"
          ]
        },
        "identifier": [
          {
            "type": {
              "coding": [
                {
                  "code": "PT",
                  "system": "http://terminology.hl7.org/CodeSystem/v2-0203"
                }
              ]
            },
            "system": "http://ec.europa.eu/identifier/eci",
            "value": "4380-389488-0"
          },
          {
            "type": {
              "coding": [
                {
                  "code": "MR",
                  "system": "http://terminology.hl7.org/CodeSystem/v2-0203"
                }
              ]
            },
            "system": "http://local.setting.eu/identifier",
            "value": "f8f9ebdc-03dd-2fc0-819c-affa4ffd7f67"
          }
        ],
        "name": [
          {
            "family": "Kratochvílová"
          },
          {
            "given": [
              "Iva"
            ]
          },
          {
            "text": "Iva Kratochvílová"
          }
        ],
        "address": [
          {
            "line": [
              "Žofie Podlipské 4"
            ],
            "use": "home",
            "type": "physical",
            "postalCode": "27324",
            "city": "Postoloprty",
            "country": "Czechia"
          }
        ],
        "telecom": [
          {
            "system": "phone",
            "value": "00420 607 985 072"
          }
        ],
        "extension": [
          {
            "url": "http://hl7.org/fhir/StructureDefinition/patient-nationality",
            "valueCodeableConcept": {
              "coding": [
                {
                  "code": "CZ",
                  "system": "http://hl7.org/fhir/ValueSet/country"
                }
              ]
            }
          }
        ],
        "text": {
          "status": "generated",
          "div": "<div xmlns=\"http://www.w3.org/1999/xhtml\"><table class=\"hl7__ips\"><tr><td>Iva Kratochvílová</td><td>female</td><td>17-Sep-1964</td></tr></table></div>"
        },
        "gender": "female",
        "birthDate": "1964-09-17"
      }
    },
    {
      "fullUrl": "urn:uuid:39806038-e9e8-4ab4-acb3-5fa858341fb1",
      "resource": {
        "resourceType": "ServiceRequest",
        "id": "39806038-e9e8-4ab4-acb3-5fa858341fb1",
        "meta": {
          "profile": [
            "http://hl7.eu/fhir/laboratory/StructureDefinition/ServiceRequest-eu-lab"
          ]
        },
        "identifier": [
          {
            "system": "http://example.org",
            "value": "65ae6275-20a8-41c0-898e-6745d0509bf2"
          }
        ],
        "specimen": [
          {
            "reference": "urn:uuid:00d63368-2acb-4a3e-9415-c9f4cd62ac1a"
          },
          {
            "reference": "urn:uuid:bf4dd7c1-9e30-47d8-94b2-fab56ea2d2e0"
          },
          {
            "reference": "urn:uuid:4a072fd1-7a81-47cc-8386-4ca7a627dd2c"
          },
          {
            "reference": "urn:uuid:09a0d300-a1d6-4077-9f4a-e85ad70d9437"
          }
        ],
        "reasonCode": [
          {
            "coding": [
              {
                "code": "431856006",
                "system": "http://snomed.info/sct",
                "display": "Chronic kidney disease stage 2"
              }
            ]
          },
          {
            "coding": [
              {
                "code": "431855005",
                "system": "http://snomed.info/sct",
                "display": "Chronic kidney disease stage 1"
              }
            ]
          },
          {
            "coding": [
              {
                "code": "237602007",
                "system": "http://snomed.info/sct",
                "display": "Metabolic syndrome X"
              }
            ]
          },
          {
            "coding": [
              {
                "code": "91302008",
                "system": "http://snomed.info/sct",
                "display": "Sepsis"
              }
            ]
          },
          {
            "coding": [
              {
                "code": "271737000",
                "system": "http://snomed.info/sct",
                "display": "Anemia"
              }
            ]
          },
          {
            "coding": [
              {
                "code": "15777000",
                "system": "http://snomed.info/sct",
                "display": "Prediabetes"
              }
            ]
          },
          {
            "coding": [
              {
                "code": "157141000119108",
                "system": "http://snomed.info/sct",
                "display": "Proteinuria due to type 2 diabetes mellitus"
              }
            ]
          },
          {
            "coding": [
              {
                "code": "90781000119102",
                "system": "http://snomed.info/sct",
                "display": "Microalbuminuria due to type 2 diabetes mellitus"
              }
            ]
          },
          {
            "coding": [
              {
                "code": "239872002",
                "system": "http://snomed.info/sct",
                "display": "Osteoarthritis of hip"
              }
            ]
          },
          {
            "coding": [
              {
                "code": "40055000",
                "system": "http://snomed.info/sct",
                "display": "Chronic sinusitis"
              }
            ]
          },
          {
            "coding": [
              {
                "code": "127013003",
                "system": "http://snomed.info/sct",
                "display": "Disorder of kidney due to diabetes mellitus"
              }
            ]
          },
          {
            "coding": [
              {
                "code": "59621000",
                "system": "http://snomed.info/sct",
                "display": "Essential hypertension"
              }
            ]
          }
        ],
        "status": "active",
        "intent": "order",
        "code": {
          "coding": [
            {
              "code": "108252007",
              "system": "http://snomed.info/sct",
              "display": "Laboratory procedure"
            }
          ]
        },
        "subject": {
          "reference": "urn:uuid:d82a0be7-57fe-4215-9b35-4176cae274b1",
          "display": "Iva Kratochvílová"
        },
        "requester": {
          "reference": "urn:uuid:4836ede7-d9a8-408d-a732-051c47a7855e"
        }
      }
    },
    {
      "fullUrl": "urn:uuid:4836ede7-d9a8-408d-a732-051c47a7855e",
      "resource": {
        "resourceType": "PractitionerRole",
        "id": "4836ede7-d9a8-408d-a732-051c47a7855e",
        "meta": {
          "profile": [
            "http://hl7.eu/fhir/base/StructureDefinition/practitionerRole-eu"
          ]
        },
        "text": {
          "status": "generated",
          "div": "<div xmlns=\"http://www.w3.org/1999/xhtml\">Provider Role Id: 4836ede7-d9a8-408d-a732-051c47a7855e</div>"
        },
        "organization": {
          "reference": "urn:uuid:daa3e136-4af0-40ee-9228-a8f29474d53e"
        }
      }
    },
    {
      "fullUrl": "urn:uuid:daa3e136-4af0-40ee-9228-a8f29474d53e",
      "resource": {
        "resourceType": "Organization",
        "id": "daa3e136-4af0-40ee-9228-a8f29474d53e",
        "meta": {
          "profile": [
            "http://hl7.eu/fhir/base/StructureDefinition/organization-eu"
          ]
        },
        "identifier": [
          {
            "assigner": {
              "display": "HL7 Europe"
            },
            "system": "urn:oid:2.16.840.1.113883.2.51.999",
            "value": "51f95ef5-5d73-4c7e-9ecf-1d959952ae21"
          }
        ],
        "address": [
          {
            "city": "Kadaň",
            "postalCode": "432 01",
            "country": "Czechia"
          }
        ],
        "text": {
          "status": "generated",
          "div": "<div xmlns=\"http://www.w3.org/1999/xhtml\">Provider Organization: Nemocnice s poliklinikou Kadaň</div>"
        },
        "name": "Nemocnice s poliklinikou Kadaň"
      }
    },
    {
      "fullUrl": "urn:uuid:00d63368-2acb-4a3e-9415-c9f4cd62ac1a",
      "resource": {
        "resourceType": "Specimen",
        "id": "00d63368-2acb-4a3e-9415-c9f4cd62ac1a",
        "meta": {
          "profile": [
            "http://hl7.eu/fhir/laboratory/StructureDefinition/Specimen-eu-lab"
          ]
        },
        "collection": {
          "collectedDateTime": "2016-03-16"
        },
        "text": {
          "status": "generated",
          "div": "<div xmlns=\"http://www.w3.org/1999/xhtml\"><table class=\"hl7__eu__lab__report\"><tr><th>Specimen</th><th>Collection Date</th></tr><tr><td>Whole blood specimen (specimen)</td><td><span class=\"nb\">16-Mar-2016</span></td></tr></table></div>"
        },
        "type": {
          "coding": [
            {
              "code": "258580003",
              "system": "http://snomed.info/sct",
              "display": "Whole blood specimen (specimen)"
            }
          ]
        }
      }
    },
    {
      "fullUrl": "urn:uuid:bf4dd7c1-9e30-47d8-94b2-fab56ea2d2e0",
      "resource": {
        "resourceType": "Specimen",
        "id": "bf4dd7c1-9e30-47d8-94b2-fab56ea2d2e0",
        "meta": {
          "profile": [
            "http://hl7.eu/fhir/laboratory/StructureDefinition/Specimen-eu-lab"
          ]
        },
        "collection": {
          "collectedDateTime": "2016-03-16"
        },
        "text": {
          "status": "generated",
          "div": "<div xmlns=\"http://www.w3.org/1999/xhtml\"><table class=\"hl7__eu__lab__report\"><tr><th>Specimen</th><th>Collection Date</th></tr><tr><td>Acellular blood (serum or plasma) specimen</td><td><span class=\"nb\">16-Mar-2016</span></td></tr></table></div>"
        },
        "type": {
          "coding": [
            {
              "code": "122592007",
              "system": "http://snomed.info/sct",
              "display": "Acellular blood (serum or plasma) specimen"
            }
          ]
        }
      }
    },
    {
      "fullUrl": "urn:uuid:4a072fd1-7a81-47cc-8386-4ca7a627dd2c",
      "resource": {
        "resourceType": "Specimen",
        "id": "4a072fd1-7a81-47cc-8386-4ca7a627dd2c",
        "meta": {
          "profile": [
            "http://hl7.eu/fhir/laboratory/StructureDefinition/Specimen-eu-lab"
          ]
        },
        "collection": {
          "collectedDateTime": "2016-03-16"
        },
        "text": {
          "status": "generated",
          "div": "<div xmlns=\"http://www.w3.org/1999/xhtml\"><table class=\"hl7__eu__lab__report\"><tr><th>Specimen</th><th>Collection Date</th></tr><tr><td>Serum specimen</td><td><span class=\"nb\">16-Mar-2016</span></td></tr></table></div>"
        },
        "type": {
          "coding": [
            {
              "code": "119364003",
              "system": "http://snomed.info/sct",
              "display": "Serum specimen"
            }
          ]
        }
      }
    },
    {
      "fullUrl": "urn:uuid:09a0d300-a1d6-4077-9f4a-e85ad70d9437",
      "resource": {
        "resourceType": "Specimen",
        "id": "09a0d300-a1d6-4077-9f4a-e85ad70d9437",
        "meta": {
          "profile": [
            "http://hl7.eu/fhir/laboratory/StructureDefinition/Specimen-eu-lab"
          ]
        },
        "collection": {
          "collectedDateTime": "2016-03-16"
        },
        "text": {
          "status": "generated",
          "div": "<div xmlns=\"http://www.w3.org/1999/xhtml\"><table class=\"hl7__eu__lab__report\"><tr><th>Specimen</th><th>Collection Date</th></tr><tr><td>Urine specimen</td><td><span class=\"nb\">16-Mar-2016</span></td></tr></table></div>"
        },
        "type": {
          "coding": [
            {
              "code": "122575003",
              "system": "http://snomed.info/sct",
              "display": "Urine specimen"
            }
          ]
        }
      }
    },
    {
      "fullUrl": "urn:uuid:1f3203fa-a1b1-4c00-85b7-1e0165dd6942",
      "resource": {
        "resourceType": "Observation",
        "id": "1f3203fa-a1b1-4c00-85b7-1e0165dd6942",
        "meta": {
          "profile": [
            "http://hl7.eu/fhir/laboratory/StructureDefinition/Observation-resultslab-eu-lab"
          ]
        },
        "performer": [
          {
            "display": "The Central European Lab"
          }
        ],
        "category": [
          {
            "coding": [
              {
                "system": "http://terminology.hl7.org/CodeSystem/observation-category",
                "code": "laboratory"
              }
            ]
          }
        ],
        "code": {
          "coding": [
            {
              "code": "2339-0",
              "system": "http://loinc.org",
              "display": "Glucose [Mass/volume] in Blood"
            }
          ],
          "text": "Glucose [Mass/volume] in Blood"
        },
        "valueQuantity": {
          "system": "http://unitsofmeasure.org",
          "value": 88.5,
          "unit": "mg/dL",
          "code": "mg/dL"
        },
        "referenceRange": [
          {
            "low": {
              "value": 70,
              "code": "mg/dL",
              "system": "http://unitsofmeasure.org"
            }
          },
          {
            "high": {
              "value": 140,
              "code": "mg/dL",
              "system": "http://unitsofmeasure.org"
            }
          }
        ],
        "text": {
          "status": "generated",
          "div": "<div xmlns=\"http://www.w3.org/1999/xhtml\"><table class=\"hl7__eu__lab__report\"><tr><th>Test</th><th>16-Mar-2016</th><th>Reference&#xA0;Range</th><th>Unit</th></tr><tr><td>Glucose [Mass/volume] in Blood</td><td>88.5</td><td>70 - 140</td><td></td><td>mg/dL</td></tr></table></div>"
        },
        "status": "final",
        "subject": {
          "reference": "urn:uuid:d82a0be7-57fe-4215-9b35-4176cae274b1",
          "display": "Iva Kratochvílová"
        },
        "effectiveDateTime": "2016-03-16T06:19:29Z",
        "specimen": {
          "reference": "urn:uuid:00d63368-2acb-4a3e-9415-c9f4cd62ac1a"
        }
      }
    },
    {
      "fullUrl": "urn:uuid:39d60ec4-bb03-4063-9895-29eaa790d731",
      "resource": {
        "resourceType": "Observation",
        "id": "39d60ec4-bb03-4063-9895-29eaa790d731",
        "meta": {
          "profile": [
            "http://hl7.eu/fhir/laboratory/StructureDefinition/Observation-resultslab-eu-lab"
          ]
        },
        "performer": [
          {
            "display": "The Central European Lab"
          }
        ],
        "category": [
          {
            "coding": [
              {
                "system": "http://terminology.hl7.org/CodeSystem/observation-category",
                "code": "laboratory"
              }
            ]
          }
        ],
        "code": {
          "coding": [
            {
              "code": "6299-2",
              "system": "http://loinc.org",
              "display": "Urea nitrogen [Mass/volume] in Blood"
            }
          ],
          "text": "Urea nitrogen [Mass/volume] in Blood"
        },
        "valueQuantity": {
          "system": "http://unitsofmeasure.org",
          "value": 11.7,
          "unit": "mg/dL",
          "code": "mg/dL"
        },
        "referenceRange": [
          {
            "low": {
              "value": 7,
              "code": "mg/dL",
              "system": "http://unitsofmeasure.org"
            }
          },
          {
            "high": {
              "value": 25,
              "code": "mg/dL",
              "system": "http://unitsofmeasure.org"
            }
          }
        ],
        "text": {
          "status": "generated",
          "div": "<div xmlns=\"http://www.w3.org/1999/xhtml\"><table class=\"hl7__eu__lab__report\"><tr><th>Test</th><th>16-Mar-2016</th><th>Reference&#xA0;Range</th><th>Unit</th></tr><tr><td>Urea nitrogen [Mass/volume] in Blood</td><td>11.7</td><td>7 - 25</td><td></td><td>mg/dL</td></tr></table></div>"
        },
        "status": "final",
        "subject": {
          "reference": "urn:uuid:d82a0be7-57fe-4215-9b35-4176cae274b1",
          "display": "Iva Kratochvílová"
        },
        "effectiveDateTime": "2016-03-16T06:19:29Z",
        "specimen": {
          "reference": "urn:uuid:00d63368-2acb-4a3e-9415-c9f4cd62ac1a"
        }
      }
    },
    {
      "fullUrl": "urn:uuid:552a8b33-7549-4779-af21-29948b4e2ec7",
      "resource": {
        "resourceType": "Observation",
        "id": "552a8b33-7549-4779-af21-29948b4e2ec7",
        "meta": {
          "profile": [
            "http://hl7.eu/fhir/laboratory/StructureDefinition/Observation-resultslab-eu-lab"
          ]
        },
        "performer": [
          {
            "display": "The Central European Lab"
          }
        ],
        "category": [
          {
            "coding": [
              {
                "system": "http://terminology.hl7.org/CodeSystem/observation-category",
                "code": "laboratory"
              }
            ]
          }
        ],
        "code": {
          "coding": [
            {
              "code": "38483-4",
              "system": "http://loinc.org",
              "display": "Creatinine [Mass/volume] in Blood"
            }
          ],
          "text": "Creatinine [Mass/volume] in Blood"
        },
        "valueQuantity": {
          "system": "http://unitsofmeasure.org",
          "value": 2.5,
          "unit": "mg/dL",
          "code": "mg/dL"
        },
        "referenceRange": [
          {
            "low": {
              "value": 0.6,
              "code": "mg/dL",
              "system": "http://unitsofmeasure.org"
            }
          },
          {
            "high": {
              "value": 1.1,
              "code": "mg/dL",
              "system": "http://unitsofmeasure.org"
            }
          }
        ],
        "interpretation": [
          {
            "coding": [
              {
                "code": "H",
                "system": "http://terminology.hl7.org/CodeSystem/v3-ObservationInterpretation",
                "display": "High"
              }
            ]
          }
        ],
        "text": {
          "status": "generated",
          "div": "<div xmlns=\"http://www.w3.org/1999/xhtml\"><table class=\"hl7__eu__lab__report\"><tr><th>Test</th><th>16-Mar-2016</th><th>Reference&#xA0;Range</th><th>Unit</th></tr><tr><td>Creatinine [Mass/volume] in Blood</td><td>2.5</td><td>0.6 - 1.1</td><td>H</td><td>mg/dL</td></tr></table></div>"
        },
        "status": "final",
        "subject": {
          "reference": "urn:uuid:d82a0be7-57fe-4215-9b35-4176cae274b1",
          "display": "Iva Kratochvílová"
        },
        "effectiveDateTime": "2016-03-16T06:19:29Z",
        "specimen": {
          "reference": "urn:uuid:00d63368-2acb-4a3e-9415-c9f4cd62ac1a"
        }
      }
    },
    {
      "fullUrl": "urn:uuid:deeb9b80-007a-4202-9ce0-15b05593b5eb",
      "resource": {
        "resourceType": "Observation",
        "id": "deeb9b80-007a-4202-9ce0-15b05593b5eb",
        "meta": {
          "profile": [
            "http://hl7.eu/fhir/laboratory/StructureDefinition/Observation-resultslab-eu-lab"
          ]
        },
        "performer": [
          {
            "display": "The Central European Lab"
          }
        ],
        "category": [
          {
            "coding": [
              {
                "system": "http://terminology.hl7.org/CodeSystem/observation-category",
                "code": "laboratory"
              }
            ]
          }
        ],
        "code": {
          "coding": [
            {
              "code": "49765-1",
              "system": "http://loinc.org",
              "display": "Calcium [Mass/volume] in Blood"
            }
          ],
          "text": "Calcium [Mass/volume] in Blood"
        },
        "valueQuantity": {
          "system": "http://unitsofmeasure.org",
          "value": 9,
          "unit": "mg/dL",
          "code": "mg/dL"
        },
        "referenceRange": [
          {
            "low": {
              "value": 8.6,
              "code": "mg/dL",
              "system": "http://unitsofmeasure.org"
            }
          },
          {
            "high": {
              "value": 10.4,
              "code": "mg/dL",
              "system": "http://unitsofmeasure.org"
            }
          }
        ],
        "text": {
          "status": "generated",
          "div": "<div xmlns=\"http://www.w3.org/1999/xhtml\"><table class=\"hl7__eu__lab__report\"><tr><th>Test</th><th>16-Mar-2016</th><th>Reference&#xA0;Range</th><th>Unit</th></tr><tr><td>Calcium [Mass/volume] in Blood</td><td>9.0</td><td>8.6 - 10.4</td><td></td><td>mg/dL</td></tr></table></div>"
        },
        "status": "final",
        "subject": {
          "reference": "urn:uuid:d82a0be7-57fe-4215-9b35-4176cae274b1",
          "display": "Iva Kratochvílová"
        },
        "effectiveDateTime": "2016-03-16T06:19:29Z",
        "specimen": {
          "reference": "urn:uuid:00d63368-2acb-4a3e-9415-c9f4cd62ac1a"
        }
      }
    },
    {
      "fullUrl": "urn:uuid:7a8d771d-fb1a-490f-8f37-cd37c96618ff",
      "resource": {
        "resourceType": "Observation",
        "id": "7a8d771d-fb1a-490f-8f37-cd37c96618ff",
        "meta": {
          "profile": [
            "http://hl7.eu/fhir/laboratory/StructureDefinition/Observation-resultslab-eu-lab"
          ]
        },
        "performer": [
          {
            "display": "The Central European Lab"
          }
        ],
        "category": [
          {
            "coding": [
              {
                "system": "http://terminology.hl7.org/CodeSystem/observation-category",
                "code": "laboratory"
              }
            ]
          }
        ],
        "code": {
          "coding": [
            {
              "code": "2947-0",
              "system": "http://loinc.org",
              "display": "Sodium [Moles/volume] in Blood"
            }
          ],
          "text": "Sodium [Moles/volume] in Blood"
        },
        "valueQuantity": {
          "system": "http://unitsofmeasure.org",
          "value": 139.5,
          "unit": "mmol/L",
          "code": "mmol/L"
        },
        "referenceRange": [
          {
            "low": {
              "value": 135,
              "code": "mmol/L",
              "system": "http://unitsofmeasure.org"
            }
          },
          {
            "high": {
              "value": 145,
              "code": "mmol/L",
              "system": "http://unitsofmeasure.org"
            }
          }
        ],
        "text": {
          "status": "generated",
          "div": "<div xmlns=\"http://www.w3.org/1999/xhtml\"><table class=\"hl7__eu__lab__report\"><tr><th>Test</th><th>16-Mar-2016</th><th>Reference&#xA0;Range</th><th>Unit</th></tr><tr><td>Sodium [Moles/volume] in Blood</td><td>139.5</td><td>135 - 145</td><td></td><td>mmol/L</td></tr></table></div>"
        },
        "status": "final",
        "subject": {
          "reference": "urn:uuid:d82a0be7-57fe-4215-9b35-4176cae274b1",
          "display": "Iva Kratochvílová"
        },
        "effectiveDateTime": "2016-03-16T06:19:29Z",
        "specimen": {
          "reference": "urn:uuid:00d63368-2acb-4a3e-9415-c9f4cd62ac1a"
        }
      }
    },
    {
      "fullUrl": "urn:uuid:e3aca161-56c9-4414-83a8-d7c8d2e1c863",
      "resource": {
        "resourceType": "Observation",
        "id": "e3aca161-56c9-4414-83a8-d7c8d2e1c863",
        "meta": {
          "profile": [
            "http://hl7.eu/fhir/laboratory/StructureDefinition/Observation-resultslab-eu-lab"
          ]
        },
        "performer": [
          {
            "display": "The Central European Lab"
          }
        ],
        "category": [
          {
            "coding": [
              {
                "system": "http://terminology.hl7.org/CodeSystem/observation-category",
                "code": "laboratory"
              }
            ]
          }
        ],
        "code": {
          "coding": [
            {
              "code": "6298-4",
              "system": "http://loinc.org",
              "display": "Potassium [Moles/volume] in Blood"
            }
          ],
          "text": "Potassium [Moles/volume] in Blood"
        },
        "valueQuantity": {
          "system": "http://unitsofmeasure.org",
          "value": 4.7,
          "unit": "mmol/L",
          "code": "mmol/L"
        },
        "referenceRange": [
          {
            "low": {
              "value": 3.5,
              "code": "mmol/L",
              "system": "http://unitsofmeasure.org"
            }
          },
          {
            "high": {
              "value": 5.1,
              "code": "mmol/L",
              "system": "http://unitsofmeasure.org"
            }
          }
        ],
        "text": {
          "status": "generated",
          "div": "<div xmlns=\"http://www.w3.org/1999/xhtml\"><table class=\"hl7__eu__lab__report\"><tr><th>Test</th><th>16-Mar-2016</th><th>Reference&#xA0;Range</th><th>Unit</th></tr><tr><td>Potassium [Moles/volume] in Blood</td><td>4.7</td><td>3.5 - 5.1</td><td></td><td>mmol/L</td></tr></table></div>"
        },
        "status": "final",
        "subject": {
          "reference": "urn:uuid:d82a0be7-57fe-4215-9b35-4176cae274b1",
          "display": "Iva Kratochvílová"
        },
        "effectiveDateTime": "2016-03-16T06:19:29Z",
        "specimen": {
          "reference": "urn:uuid:00d63368-2acb-4a3e-9415-c9f4cd62ac1a"
        }
      }
    },
    {
      "fullUrl": "urn:uuid:0826a404-998c-4e06-aa04-5a5c086203d5",
      "resource": {
        "resourceType": "Observation",
        "id": "0826a404-998c-4e06-aa04-5a5c086203d5",
        "meta": {
          "profile": [
            "http://hl7.eu/fhir/laboratory/StructureDefinition/Observation-resultslab-eu-lab"
          ]
        },
        "performer": [
          {
            "display": "The Central European Lab"
          }
        ],
        "category": [
          {
            "coding": [
              {
                "system": "http://terminology.hl7.org/CodeSystem/observation-category",
                "code": "laboratory"
              }
            ]
          }
        ],
        "code": {
          "coding": [
            {
              "code": "2069-3",
              "system": "http://loinc.org",
              "display": "Chloride [Moles/volume] in Blood"
            }
          ],
          "text": "Chloride [Moles/volume] in Blood"
        },
        "valueQuantity": {
          "system": "http://unitsofmeasure.org",
          "value": 107.9,
          "unit": "mmol/L",
          "code": "mmol/L"
        },
        "referenceRange": [
          {
            "low": {
              "value": 98,
              "code": "mmol/L",
              "system": "http://unitsofmeasure.org"
            }
          },
          {
            "high": {
              "value": 110,
              "code": "mmol/L",
              "system": "http://unitsofmeasure.org"
            }
          }
        ],
        "text": {
          "status": "generated",
          "div": "<div xmlns=\"http://www.w3.org/1999/xhtml\"><table class=\"hl7__eu__lab__report\"><tr><th>Test</th><th>16-Mar-2016</th><th>Reference&#xA0;Range</th><th>Unit</th></tr><tr><td>Chloride [Moles/volume] in Blood</td><td>107.9</td><td>98 - 110</td><td></td><td>mmol/L</td></tr></table></div>"
        },
        "status": "final",
        "subject": {
          "reference": "urn:uuid:d82a0be7-57fe-4215-9b35-4176cae274b1",
          "display": "Iva Kratochvílová"
        },
        "effectiveDateTime": "2016-03-16T06:19:29Z",
        "specimen": {
          "reference": "urn:uuid:00d63368-2acb-4a3e-9415-c9f4cd62ac1a"
        }
      }
    },
    {
      "fullUrl": "urn:uuid:00bb0df4-3077-4194-a6e4-8676f420d445",
      "resource": {
        "resourceType": "Observation",
        "id": "00bb0df4-3077-4194-a6e4-8676f420d445",
        "meta": {
          "profile": [
            "http://hl7.eu/fhir/laboratory/StructureDefinition/Observation-resultslab-eu-lab"
          ]
        },
        "performer": [
          {
            "display": "The Central European Lab"
          }
        ],
        "category": [
          {
            "coding": [
              {
                "system": "http://terminology.hl7.org/CodeSystem/observation-category",
                "code": "laboratory"
              }
            ]
          }
        ],
        "code": {
          "coding": [
            {
              "code": "20565-8",
              "system": "http://loinc.org",
              "display": "Carbon dioxide, total [Moles/volume] in Blood"
            }
          ],
          "text": "Carbon dioxide, total [Moles/volume] in Blood"
        },
        "valueQuantity": {
          "system": "http://unitsofmeasure.org",
          "value": 25.6,
          "unit": "mmol/L",
          "code": "mmol/L"
        },
        "referenceRange": [
          {
            "low": {
              "value": 22,
              "code": "mmol/L",
              "system": "http://unitsofmeasure.org"
            }
          },
          {
            "high": {
              "value": 29,
              "code": "mmol/L",
              "system": "http://unitsofmeasure.org"
            }
          }
        ],
        "text": {
          "status": "generated",
          "div": "<div xmlns=\"http://www.w3.org/1999/xhtml\"><table class=\"hl7__eu__lab__report\"><tr><th>Test</th><th>16-Mar-2016</th><th>Reference&#xA0;Range</th><th>Unit</th></tr><tr><td>Carbon dioxide, total [Moles/volume] in Blood</td><td>25.6</td><td>22 - 29</td><td></td><td>mmol/L</td></tr></table></div>"
        },
        "status": "final",
        "subject": {
          "reference": "urn:uuid:d82a0be7-57fe-4215-9b35-4176cae274b1",
          "display": "Iva Kratochvílová"
        },
        "effectiveDateTime": "2016-03-16T06:19:29Z",
        "specimen": {
          "reference": "urn:uuid:00d63368-2acb-4a3e-9415-c9f4cd62ac1a"
        }
      }
    },
    {
      "fullUrl": "urn:uuid:8335e2f6-111d-4485-a553-b2d5ccb8358e",
      "resource": {
        "resourceType": "Observation",
        "id": "8335e2f6-111d-4485-a553-b2d5ccb8358e",
        "meta": {
          "profile": [
            "http://hl7.eu/fhir/laboratory/StructureDefinition/Observation-resultslab-eu-lab"
          ]
        },
        "performer": [
          {
            "display": "The Central European Lab"
          }
        ],
        "category": [
          {
            "coding": [
              {
                "system": "http://terminology.hl7.org/CodeSystem/observation-category",
                "code": "laboratory"
              }
            ]
          }
        ],
        "code": {
          "coding": [
            {
              "code": "2885-2",
              "system": "http://loinc.org",
              "display": "Protein [Mass/volume] in Serum or Plasma"
            }
          ],
          "text": "Protein [Mass/volume] in Serum or Plasma"
        },
        "valueQuantity": {
          "system": "http://unitsofmeasure.org",
          "value": 7.9,
          "unit": "g/dL",
          "code": "g/dL"
        },
        "referenceRange": [
          {
            "low": {
              "value": 6.6,
              "code": "g/dL",
              "system": "http://unitsofmeasure.org"
            }
          },
          {
            "high": {
              "value": 8.3,
              "code": "g/dL",
              "system": "http://unitsofmeasure.org"
            }
          }
        ],
        "text": {
          "status": "generated",
          "div": "<div xmlns=\"http://www.w3.org/1999/xhtml\"><table class=\"hl7__eu__lab__report\"><tr><th>Test</th><th>16-Mar-2016</th><th>Reference&#xA0;Range</th><th>Unit</th></tr><tr><td>Protein [Mass/volume] in Serum or Plasma</td><td>7.9</td><td>6.6 - 8.3</td><td></td><td>g/dL</td></tr></table></div>"
        },
        "status": "final",
        "subject": {
          "reference": "urn:uuid:d82a0be7-57fe-4215-9b35-4176cae274b1",
          "display": "Iva Kratochvílová"
        },
        "effectiveDateTime": "2016-03-16T06:19:29Z",
        "specimen": {
          "reference": "urn:uuid:bf4dd7c1-9e30-47d8-94b2-fab56ea2d2e0"
        }
      }
    },
    {
      "fullUrl": "urn:uuid:28d01ec7-7274-4f39-98d2-e48d37bef3cb",
      "resource": {
        "resourceType": "Observation",
        "id": "28d01ec7-7274-4f39-98d2-e48d37bef3cb",
        "meta": {
          "profile": [
            "http://hl7.eu/fhir/laboratory/StructureDefinition/Observation-resultslab-eu-lab"
          ]
        },
        "performer": [
          {
            "display": "The Central European Lab"
          }
        ],
        "category": [
          {
            "coding": [
              {
                "system": "http://terminology.hl7.org/CodeSystem/observation-category",
                "code": "laboratory"
              }
            ]
          }
        ],
        "code": {
          "coding": [
            {
              "code": "1751-7",
              "system": "http://loinc.org",
              "display": "Albumin [Mass/volume] in Serum or Plasma"
            }
          ],
          "text": "Albumin [Mass/volume] in Serum or Plasma"
        },
        "valueQuantity": {
          "system": "http://unitsofmeasure.org",
          "value": 5.3,
          "unit": "g/dL",
          "code": "g/dL"
        },
        "referenceRange": [
          {
            "low": {
              "value": 3.5,
              "code": "g/dL",
              "system": "http://unitsofmeasure.org"
            }
          },
          {
            "high": {
              "value": 5,
              "code": "g/dL",
              "system": "http://unitsofmeasure.org"
            }
          }
        ],
        "interpretation": [
          {
            "coding": [
              {
                "code": "H",
                "system": "http://terminology.hl7.org/CodeSystem/v3-ObservationInterpretation",
                "display": "High"
              }
            ]
          }
        ],
        "text": {
          "status": "generated",
          "div": "<div xmlns=\"http://www.w3.org/1999/xhtml\"><table class=\"hl7__eu__lab__report\"><tr><th>Test</th><th>16-Mar-2016</th><th>Reference&#xA0;Range</th><th>Unit</th></tr><tr><td>Albumin [Mass/volume] in Serum or Plasma</td><td>5.3</td><td>3.5 - 5</td><td>H</td><td>g/dL</td></tr></table></div>"
        },
        "status": "final",
        "subject": {
          "reference": "urn:uuid:d82a0be7-57fe-4215-9b35-4176cae274b1",
          "display": "Iva Kratochvílová"
        },
        "effectiveDateTime": "2016-03-16T06:19:29Z",
        "specimen": {
          "reference": "urn:uuid:bf4dd7c1-9e30-47d8-94b2-fab56ea2d2e0"
        }
      }
    },
    {
      "fullUrl": "urn:uuid:371d2972-1136-48d9-9614-10446da97a51",
      "resource": {
        "resourceType": "Observation",
        "id": "371d2972-1136-48d9-9614-10446da97a51",
        "meta": {
          "profile": [
            "http://hl7.eu/fhir/laboratory/StructureDefinition/Observation-resultslab-eu-lab"
          ]
        },
        "performer": [
          {
            "display": "The Central European Lab"
          }
        ],
        "category": [
          {
            "coding": [
              {
                "system": "http://terminology.hl7.org/CodeSystem/observation-category",
                "code": "laboratory"
              }
            ]
          }
        ],
        "code": {
          "coding": [
            {
              "code": "10834-0",
              "system": "http://loinc.org",
              "display": "Globulin [Mass/volume] in Serum by calculation"
            }
          ],
          "text": "Globulin [Mass/volume] in Serum by calculation"
        },
        "valueQuantity": {
          "system": "http://unitsofmeasure.org",
          "value": 2.5,
          "unit": "g/L",
          "code": "g/L"
        },
        "referenceRange": [
          {
            "low": {
              "value": 2,
              "code": "g/L",
              "system": "http://unitsofmeasure.org"
            }
          },
          {
            "high": {
              "value": 3.5,
              "code": "g/L",
              "system": "http://unitsofmeasure.org"
            }
          }
        ],
        "text": {
          "status": "generated",
          "div": "<div xmlns=\"http://www.w3.org/1999/xhtml\"><table class=\"hl7__eu__lab__report\"><tr><th>Test</th><th>16-Mar-2016</th><th>Reference&#xA0;Range</th><th>Unit</th></tr><tr><td>Globulin [Mass/volume] in Serum by calculation</td><td>2.5</td><td>2 - 3.5</td><td></td><td>g/L</td></tr></table></div>"
        },
        "status": "final",
        "subject": {
          "reference": "urn:uuid:d82a0be7-57fe-4215-9b35-4176cae274b1",
          "display": "Iva Kratochvílová"
        },
        "effectiveDateTime": "2016-03-16T06:19:29Z",
        "specimen": {
          "reference": "urn:uuid:4a072fd1-7a81-47cc-8386-4ca7a627dd2c"
        }
      }
    },
    {
      "fullUrl": "urn:uuid:31d859e2-fa0c-4c8c-b370-f2bd93645788",
      "resource": {
        "resourceType": "Observation",
        "id": "31d859e2-fa0c-4c8c-b370-f2bd93645788",
        "meta": {
          "profile": [
            "http://hl7.eu/fhir/laboratory/StructureDefinition/Observation-resultslab-eu-lab"
          ]
        },
        "performer": [
          {
            "display": "The Central European Lab"
          }
        ],
        "category": [
          {
            "coding": [
              {
                "system": "http://terminology.hl7.org/CodeSystem/observation-category",
                "code": "laboratory"
              }
            ]
          }
        ],
        "code": {
          "coding": [
            {
              "code": "1975-2",
              "system": "http://loinc.org",
              "display": "Bilirubin.total [Mass/volume] in Serum or Plasma"
            }
          ],
          "text": "Bilirubin.total [Mass/volume] in Serum or Plasma"
        },
        "valueQuantity": {
          "system": "http://unitsofmeasure.org",
          "value": 1,
          "unit": "mg/dL",
          "code": "mg/dL"
        },
        "referenceRange": [
          {
            "low": {
              "value": 0.3,
              "code": "mg/dL",
              "system": "http://unitsofmeasure.org"
            }
          },
          {
            "high": {
              "value": 1.2,
              "code": "mg/dL",
              "system": "http://unitsofmeasure.org"
            }
          }
        ],
        "text": {
          "status": "generated",
          "div": "<div xmlns=\"http://www.w3.org/1999/xhtml\"><table class=\"hl7__eu__lab__report\"><tr><th>Test</th><th>16-Mar-2016</th><th>Reference&#xA0;Range</th><th>Unit</th></tr><tr><td>Bilirubin.total [Mass/volume] in Serum or Plasma</td><td>1.0</td><td>0.3 - 1.2</td><td></td><td>mg/dL</td></tr></table></div>"
        },
        "status": "final",
        "subject": {
          "reference": "urn:uuid:d82a0be7-57fe-4215-9b35-4176cae274b1",
          "display": "Iva Kratochvílová"
        },
        "effectiveDateTime": "2016-03-16T06:19:29Z",
        "specimen": {
          "reference": "urn:uuid:bf4dd7c1-9e30-47d8-94b2-fab56ea2d2e0"
        }
      }
    },
    {
      "fullUrl": "urn:uuid:59856852-33f5-4afe-9ef3-11dd09e1fb58",
      "resource": {
        "resourceType": "Observation",
        "id": "59856852-33f5-4afe-9ef3-11dd09e1fb58",
        "meta": {
          "profile": [
            "http://hl7.eu/fhir/laboratory/StructureDefinition/Observation-resultslab-eu-lab"
          ]
        },
        "performer": [
          {
            "display": "The Central European Lab"
          }
        ],
        "category": [
          {
            "coding": [
              {
                "system": "http://terminology.hl7.org/CodeSystem/observation-category",
                "code": "laboratory"
              }
            ]
          }
        ],
        "code": {
          "coding": [
            {
              "code": "6768-6",
              "system": "http://loinc.org",
              "display": "Alkaline phosphatase [Enzymatic activity/volume] in Serum or Plasma"
            }
          ],
          "text": "Alkaline phosphatase [Enzymatic activity/volume] in Serum or Plasma"
        },
        "valueQuantity": {
          "system": "http://unitsofmeasure.org",
          "value": 53,
          "unit": "U/L",
          "code": "U/L"
        },
        "referenceRange": [
          {
            "low": {
              "value": 39,
              "code": "U/L",
              "system": "http://unitsofmeasure.org"
            }
          },
          {
            "high": {
              "value": 141,
              "code": "U/L",
              "system": "http://unitsofmeasure.org"
            }
          }
        ],
        "text": {
          "status": "generated",
          "div": "<div xmlns=\"http://www.w3.org/1999/xhtml\"><table class=\"hl7__eu__lab__report\"><tr><th>Test</th><th>16-Mar-2016</th><th>Reference&#xA0;Range</th><th>Unit</th></tr><tr><td>Alkaline phosphatase [Enzymatic activity/volume] in Serum or Plasma</td><td>53.0</td><td>39 - 141</td><td></td><td>U/L</td></tr></table></div>"
        },
        "status": "final",
        "subject": {
          "reference": "urn:uuid:d82a0be7-57fe-4215-9b35-4176cae274b1",
          "display": "Iva Kratochvílová"
        },
        "effectiveDateTime": "2016-03-16T06:19:29Z",
        "specimen": {
          "reference": "urn:uuid:bf4dd7c1-9e30-47d8-94b2-fab56ea2d2e0"
        }
      }
    },
    {
      "fullUrl": "urn:uuid:e8456bd7-836c-431c-8748-45ba5ac53034",
      "resource": {
        "resourceType": "Observation",
        "id": "e8456bd7-836c-431c-8748-45ba5ac53034",
        "meta": {
          "profile": [
            "http://hl7.eu/fhir/laboratory/StructureDefinition/Observation-resultslab-eu-lab"
          ]
        },
        "performer": [
          {
            "display": "The Central European Lab"
          }
        ],
        "category": [
          {
            "coding": [
              {
                "system": "http://terminology.hl7.org/CodeSystem/observation-category",
                "code": "laboratory"
              }
            ]
          }
        ],
        "code": {
          "coding": [
            {
              "code": "1742-6",
              "system": "http://loinc.org",
              "display": "Alanine aminotransferase [Enzymatic activity/volume] in Serum or Plasma"
            }
          ],
          "text": "Alanine aminotransferase [Enzymatic activity/volume] in Serum or Plasma"
        },
        "valueQuantity": {
          "system": "http://unitsofmeasure.org",
          "value": 23.9,
          "unit": "U/L",
          "code": "U/L"
        },
        "referenceRange": [
          {
            "low": {
              "value": 7,
              "code": "U/L",
              "system": "http://unitsofmeasure.org"
            }
          },
          {
            "high": {
              "value": 40,
              "code": "U/L",
              "system": "http://unitsofmeasure.org"
            }
          }
        ],
        "text": {
          "status": "generated",
          "div": "<div xmlns=\"http://www.w3.org/1999/xhtml\"><table class=\"hl7__eu__lab__report\"><tr><th>Test</th><th>16-Mar-2016</th><th>Reference&#xA0;Range</th><th>Unit</th></tr><tr><td>Alanine aminotransferase [Enzymatic activity/volume] in Serum or Plasma</td><td>23.9</td><td>7 - 40</td><td></td><td>U/L</td></tr></table></div>"
        },
        "status": "final",
        "subject": {
          "reference": "urn:uuid:d82a0be7-57fe-4215-9b35-4176cae274b1",
          "display": "Iva Kratochvílová"
        },
        "effectiveDateTime": "2016-03-16T06:19:29Z",
        "specimen": {
          "reference": "urn:uuid:bf4dd7c1-9e30-47d8-94b2-fab56ea2d2e0"
        }
      }
    },
    {
      "fullUrl": "urn:uuid:fb964ab2-09d5-4f92-bbaf-71a55da420e1",
      "resource": {
        "resourceType": "Observation",
        "id": "fb964ab2-09d5-4f92-bbaf-71a55da420e1",
        "meta": {
          "profile": [
            "http://hl7.eu/fhir/laboratory/StructureDefinition/Observation-resultslab-eu-lab"
          ]
        },
        "performer": [
          {
            "display": "The Central European Lab"
          }
        ],
        "category": [
          {
            "coding": [
              {
                "system": "http://terminology.hl7.org/CodeSystem/observation-category",
                "code": "laboratory"
              }
            ]
          }
        ],
        "code": {
          "coding": [
            {
              "code": "1920-8",
              "system": "http://loinc.org",
              "display": "Aspartate aminotransferase [Enzymatic activity/volume] in Serum or Plasma"
            }
          ],
          "text": "Aspartate aminotransferase [Enzymatic activity/volume] in Serum or Plasma"
        },
        "valueQuantity": {
          "system": "http://unitsofmeasure.org",
          "value": 30.2,
          "unit": "U/L",
          "code": "U/L"
        },
        "referenceRange": [
          {
            "low": {
              "value": 10,
              "code": "U/L",
              "system": "http://unitsofmeasure.org"
            }
          },
          {
            "high": {
              "value": 32,
              "code": "U/L",
              "system": "http://unitsofmeasure.org"
            }
          }
        ],
        "text": {
          "status": "generated",
          "div": "<div xmlns=\"http://www.w3.org/1999/xhtml\"><table class=\"hl7__eu__lab__report\"><tr><th>Test</th><th>16-Mar-2016</th><th>Reference&#xA0;Range</th><th>Unit</th></tr><tr><td>Aspartate aminotransferase [Enzymatic activity/volume] in Serum or Plasma</td><td>30.2</td><td>10 - 32</td><td></td><td>U/L</td></tr></table></div>"
        },
        "status": "final",
        "subject": {
          "reference": "urn:uuid:d82a0be7-57fe-4215-9b35-4176cae274b1",
          "display": "Iva Kratochvílová"
        },
        "effectiveDateTime": "2016-03-16T06:19:29Z",
        "specimen": {
          "reference": "urn:uuid:bf4dd7c1-9e30-47d8-94b2-fab56ea2d2e0"
        }
      }
    },
    {
      "fullUrl": "urn:uuid:c36f1dd5-389c-48da-922a-d9a28bfac410",
      "resource": {
        "resourceType": "Observation",
        "id": "c36f1dd5-389c-48da-922a-d9a28bfac410",
        "meta": {
          "profile": [
            "http://hl7.eu/fhir/laboratory/StructureDefinition/Observation-resultslab-eu-lab"
          ]
        },
        "performer": [
          {
            "display": "The Central European Lab"
          }
        ],
        "category": [
          {
            "coding": [
              {
                "system": "http://terminology.hl7.org/CodeSystem/observation-category",
                "code": "laboratory"
              }
            ]
          }
        ],
        "code": {
          "coding": [
            {
              "code": "5767-9",
              "system": "http://loinc.org",
              "display": "Appearance of Urine"
            }
          ],
          "text": "Appearance of Urine"
        },
        "text": {
          "status": "generated",
          "div": "<div xmlns=\"http://www.w3.org/1999/xhtml\"><table class=\"hl7__eu__lab__report\"><tr><th>Test</th><th>16-Mar-2016</th><th>Reference&#xA0;Range</th><th>Unit</th></tr><tr><td>Appearance of Urine</td></tr></table></div>"
        },
        "status": "final",
        "subject": {
          "reference": "urn:uuid:d82a0be7-57fe-4215-9b35-4176cae274b1",
          "display": "Iva Kratochvílová"
        },
        "effectiveDateTime": "2016-03-16T06:19:29Z",
        "specimen": {
          "reference": "urn:uuid:09a0d300-a1d6-4077-9f4a-e85ad70d9437"
        }
      }
    },
    {
      "fullUrl": "urn:uuid:0a5ad13c-9cac-4f19-aaa0-8ade47b586dc",
      "resource": {
        "resourceType": "Observation",
        "id": "0a5ad13c-9cac-4f19-aaa0-8ade47b586dc",
        "meta": {
          "profile": [
            "http://hl7.eu/fhir/laboratory/StructureDefinition/Observation-resultslab-eu-lab"
          ]
        },
        "performer": [
          {
            "display": "The Central European Lab"
          }
        ],
        "category": [
          {
            "coding": [
              {
                "system": "http://terminology.hl7.org/CodeSystem/observation-category",
                "code": "laboratory"
              }
            ]
          }
        ],
        "code": {
          "coding": [
            {
              "code": "34533-0",
              "system": "http://loinc.org",
              "display": "Odor of Urine"
            }
          ],
          "text": "Odor of Urine"
        },
        "text": {
          "status": "generated",
          "div": "<div xmlns=\"http://www.w3.org/1999/xhtml\"><table class=\"hl7__eu__lab__report\"><tr><th>Test</th><th>16-Mar-2016</th><th>Reference&#xA0;Range</th><th>Unit</th></tr><tr><td>Odor of Urine</td></tr></table></div>"
        },
        "status": "final",
        "subject": {
          "reference": "urn:uuid:d82a0be7-57fe-4215-9b35-4176cae274b1",
          "display": "Iva Kratochvílová"
        },
        "effectiveDateTime": "2016-03-16T06:19:29Z",
        "specimen": {
          "reference": "urn:uuid:09a0d300-a1d6-4077-9f4a-e85ad70d9437"
        }
      }
    },
    {
      "fullUrl": "urn:uuid:722326cf-64da-4509-b10c-bdcbe400f575",
      "resource": {
        "resourceType": "Observation",
        "id": "722326cf-64da-4509-b10c-bdcbe400f575",
        "meta": {
          "profile": [
            "http://hl7.eu/fhir/laboratory/StructureDefinition/Observation-resultslab-eu-lab"
          ]
        },
        "performer": [
          {
            "display": "The Central European Lab"
          }
        ],
        "category": [
          {
            "coding": [
              {
                "system": "http://terminology.hl7.org/CodeSystem/observation-category",
                "code": "laboratory"
              }
            ]
          }
        ],
        "code": {
          "coding": [
            {
              "code": "32167-9",
              "system": "http://loinc.org",
              "display": "Clarity of Urine"
            }
          ],
          "text": "Clarity of Urine"
        },
        "text": {
          "status": "generated",
          "div": "<div xmlns=\"http://www.w3.org/1999/xhtml\"><table class=\"hl7__eu__lab__report\"><tr><th>Test</th><th>16-Mar-2016</th><th>Reference&#xA0;Range</th><th>Unit</th></tr><tr><td>Clarity of Urine</td></tr></table></div>"
        },
        "status": "final",
        "subject": {
          "reference": "urn:uuid:d82a0be7-57fe-4215-9b35-4176cae274b1",
          "display": "Iva Kratochvílová"
        },
        "effectiveDateTime": "2016-03-16T06:19:29Z",
        "specimen": {
          "reference": "urn:uuid:09a0d300-a1d6-4077-9f4a-e85ad70d9437"
        }
      }
    },
    {
      "fullUrl": "urn:uuid:6b66d623-f233-4794-aa61-d57386dacfae",
      "resource": {
        "resourceType": "Observation",
        "id": "6b66d623-f233-4794-aa61-d57386dacfae",
        "meta": {
          "profile": [
            "http://hl7.eu/fhir/laboratory/StructureDefinition/Observation-resultslab-eu-lab"
          ]
        },
        "performer": [
          {
            "display": "The Central European Lab"
          }
        ],
        "category": [
          {
            "coding": [
              {
                "system": "http://terminology.hl7.org/CodeSystem/observation-category",
                "code": "laboratory"
              }
            ]
          }
        ],
        "code": {
          "coding": [
            {
              "code": "5778-6",
              "system": "http://loinc.org",
              "display": "Color of Urine"
            }
          ],
          "text": "Color of Urine"
        },
        "text": {
          "status": "generated",
          "div": "<div xmlns=\"http://www.w3.org/1999/xhtml\"><table class=\"hl7__eu__lab__report\"><tr><th>Test</th><th>16-Mar-2016</th><th>Reference&#xA0;Range</th><th>Unit</th></tr><tr><td>Color of Urine</td></tr></table></div>"
        },
        "status": "final",
        "subject": {
          "reference": "urn:uuid:d82a0be7-57fe-4215-9b35-4176cae274b1",
          "display": "Iva Kratochvílová"
        },
        "effectiveDateTime": "2016-03-16T06:19:29Z",
        "specimen": {
          "reference": "urn:uuid:09a0d300-a1d6-4077-9f4a-e85ad70d9437"
        }
      }
    },
    {
      "fullUrl": "urn:uuid:547bee97-4652-4e00-8a81-661b63c16f52",
      "resource": {
        "resourceType": "Observation",
        "id": "547bee97-4652-4e00-8a81-661b63c16f52",
        "meta": {
          "profile": [
            "http://hl7.eu/fhir/laboratory/StructureDefinition/Observation-resultslab-eu-lab"
          ]
        },
        "performer": [
          {
            "display": "The Central European Lab"
          }
        ],
        "category": [
          {
            "coding": [
              {
                "system": "http://terminology.hl7.org/CodeSystem/observation-category",
                "code": "laboratory"
              }
            ]
          }
        ],
        "code": {
          "coding": [
            {
              "code": "5792-7",
              "system": "http://loinc.org",
              "display": "Glucose [Mass/volume] in Urine by Test strip"
            }
          ],
          "text": "Glucose [Mass/volume] in Urine by Test strip"
        },
        "valueQuantity": {
          "system": "http://unitsofmeasure.org",
          "value": 1.5,
          "unit": "mg/dL",
          "code": "mg/dL"
        },
        "referenceRange": [
          {
            "low": {
              "value": 0,
              "code": "mg/dL",
              "system": "http://unitsofmeasure.org"
            }
          },
          {
            "high": {
              "value": 0.8,
              "code": "mg/dL",
              "system": "http://unitsofmeasure.org"
            }
          }
        ],
        "interpretation": [
          {
            "coding": [
              {
                "code": "H",
                "system": "http://terminology.hl7.org/CodeSystem/v3-ObservationInterpretation",
                "display": "High"
              }
            ]
          }
        ],
        "text": {
          "status": "generated",
          "div": "<div xmlns=\"http://www.w3.org/1999/xhtml\"><table class=\"hl7__eu__lab__report\"><tr><th>Test</th><th>16-Mar-2016</th><th>Reference&#xA0;Range</th><th>Unit</th></tr><tr><td>Glucose [Mass/volume] in Urine by Test strip</td><td>1.5</td><td>0 - 0.8</td><td>H</td><td>mg/dL</td></tr></table></div>"
        },
        "status": "final",
        "subject": {
          "reference": "urn:uuid:d82a0be7-57fe-4215-9b35-4176cae274b1",
          "display": "Iva Kratochvílová"
        },
        "effectiveDateTime": "2016-03-16T06:19:29Z",
        "specimen": {
          "reference": "urn:uuid:09a0d300-a1d6-4077-9f4a-e85ad70d9437"
        }
      }
    },
    {
      "fullUrl": "urn:uuid:0192e163-44ab-4847-9d7a-22c6ff192265",
      "resource": {
        "resourceType": "Observation",
        "id": "0192e163-44ab-4847-9d7a-22c6ff192265",
        "meta": {
          "profile": [
            "http://hl7.eu/fhir/laboratory/StructureDefinition/Observation-resultslab-eu-lab"
          ]
        },
        "performer": [
          {
            "display": "The Central European Lab"
          }
        ],
        "category": [
          {
            "coding": [
              {
                "system": "http://terminology.hl7.org/CodeSystem/observation-category",
                "code": "laboratory"
              }
            ]
          }
        ],
        "code": {
          "coding": [
            {
              "code": "25428-4",
              "system": "http://loinc.org",
              "display": "Glucose [Presence] in Urine by Test strip"
            }
          ],
          "text": "Glucose [Presence] in Urine by Test strip"
        },
        "text": {
          "status": "generated",
          "div": "<div xmlns=\"http://www.w3.org/1999/xhtml\"><table class=\"hl7__eu__lab__report\"><tr><th>Test</th><th>16-Mar-2016</th><th>Reference&#xA0;Range</th><th>Unit</th></tr><tr><td>Glucose [Presence] in Urine by Test strip</td></tr></table></div>"
        },
        "status": "final",
        "subject": {
          "reference": "urn:uuid:d82a0be7-57fe-4215-9b35-4176cae274b1",
          "display": "Iva Kratochvílová"
        },
        "effectiveDateTime": "2016-03-16T06:19:29Z",
        "specimen": {
          "reference": "urn:uuid:09a0d300-a1d6-4077-9f4a-e85ad70d9437"
        }
      }
    },
    {
      "fullUrl": "urn:uuid:0e5dacc2-6df4-412c-9e28-551c058d4ef5",
      "resource": {
        "resourceType": "Observation",
        "id": "0e5dacc2-6df4-412c-9e28-551c058d4ef5",
        "meta": {
          "profile": [
            "http://hl7.eu/fhir/laboratory/StructureDefinition/Observation-resultslab-eu-lab"
          ]
        },
        "performer": [
          {
            "display": "The Central European Lab"
          }
        ],
        "category": [
          {
            "coding": [
              {
                "system": "http://terminology.hl7.org/CodeSystem/observation-category",
                "code": "laboratory"
              }
            ]
          }
        ],
        "code": {
          "coding": [
            {
              "code": "20505-4",
              "system": "http://loinc.org",
              "display": "Bilirubin.total [Mass/volume] in Urine by Test strip"
            }
          ],
          "text": "Bilirubin.total [Mass/volume] in Urine by Test strip"
        },
        "valueQuantity": {
          "system": "http://unitsofmeasure.org",
          "value": 0.2,
          "unit": "mg/dL",
          "code": "mg/dL"
        },
        "referenceRange": [
          {
            "low": {
              "value": 0,
              "code": "mg/dL",
              "system": "http://unitsofmeasure.org"
            }
          },
          {
            "high": {
              "value": 1,
              "code": "mg/dL",
              "system": "http://unitsofmeasure.org"
            }
          }
        ],
        "text": {
          "status": "generated",
          "div": "<div xmlns=\"http://www.w3.org/1999/xhtml\"><table class=\"hl7__eu__lab__report\"><tr><th>Test</th><th>16-Mar-2016</th><th>Reference&#xA0;Range</th><th>Unit</th></tr><tr><td>Bilirubin.total [Mass/volume] in Urine by Test strip</td><td>0.2</td><td>0 - 1</td><td></td><td>mg/dL</td></tr></table></div>"
        },
        "status": "final",
        "subject": {
          "reference": "urn:uuid:d82a0be7-57fe-4215-9b35-4176cae274b1",
          "display": "Iva Kratochvílová"
        },
        "effectiveDateTime": "2016-03-16T06:19:29Z",
        "specimen": {
          "reference": "urn:uuid:09a0d300-a1d6-4077-9f4a-e85ad70d9437"
        }
      }
    },
    {
      "fullUrl": "urn:uuid:58410cdd-34b1-47c8-8b2e-55b9142f377f",
      "resource": {
        "resourceType": "Observation",
        "id": "58410cdd-34b1-47c8-8b2e-55b9142f377f",
        "meta": {
          "profile": [
            "http://hl7.eu/fhir/laboratory/StructureDefinition/Observation-resultslab-eu-lab"
          ]
        },
        "performer": [
          {
            "display": "The Central European Lab"
          }
        ],
        "category": [
          {
            "coding": [
              {
                "system": "http://terminology.hl7.org/CodeSystem/observation-category",
                "code": "laboratory"
              }
            ]
          }
        ],
        "code": {
          "coding": [
            {
              "code": "5770-3",
              "system": "http://loinc.org",
              "display": "Bilirubin.total [Presence] in Urine by Test strip"
            }
          ],
          "text": "Bilirubin.total [Presence] in Urine by Test strip"
        },
        "text": {
          "status": "generated",
          "div": "<div xmlns=\"http://www.w3.org/1999/xhtml\"><table class=\"hl7__eu__lab__report\"><tr><th>Test</th><th>16-Mar-2016</th><th>Reference&#xA0;Range</th><th>Unit</th></tr><tr><td>Bilirubin.total [Presence] in Urine by Test strip</td></tr></table></div>"
        },
        "status": "final",
        "subject": {
          "reference": "urn:uuid:d82a0be7-57fe-4215-9b35-4176cae274b1",
          "display": "Iva Kratochvílová"
        },
        "effectiveDateTime": "2016-03-16T06:19:29Z",
        "specimen": {
          "reference": "urn:uuid:09a0d300-a1d6-4077-9f4a-e85ad70d9437"
        }
      }
    },
    {
      "fullUrl": "urn:uuid:b4e60b2d-16c2-42f6-8f73-3376c9f0ceaa",
      "resource": {
        "resourceType": "Observation",
        "id": "b4e60b2d-16c2-42f6-8f73-3376c9f0ceaa",
        "meta": {
          "profile": [
            "http://hl7.eu/fhir/laboratory/StructureDefinition/Observation-resultslab-eu-lab"
          ]
        },
        "performer": [
          {
            "display": "The Central European Lab"
          }
        ],
        "category": [
          {
            "coding": [
              {
                "system": "http://terminology.hl7.org/CodeSystem/observation-category",
                "code": "laboratory"
              }
            ]
          }
        ],
        "code": {
          "coding": [
            {
              "code": "5797-6",
              "system": "http://loinc.org",
              "display": "Ketones [Mass/volume] in Urine by Test strip"
            }
          ],
          "text": "Ketones [Mass/volume] in Urine by Test strip"
        },
        "valueQuantity": {
          "system": "http://unitsofmeasure.org",
          "value": 4.4,
          "unit": "mg/dL",
          "code": "mg/dL"
        },
        "referenceRange": [
          {
            "low": {
              "value": 0,
              "code": "mg/dL",
              "system": "http://unitsofmeasure.org"
            }
          },
          {
            "high": {
              "value": 4,
              "code": "mg/dL",
              "system": "http://unitsofmeasure.org"
            }
          }
        ],
        "interpretation": [
          {
            "coding": [
              {
                "code": "H",
                "system": "http://terminology.hl7.org/CodeSystem/v3-ObservationInterpretation",
                "display": "High"
              }
            ]
          }
        ],
        "text": {
          "status": "generated",
          "div": "<div xmlns=\"http://www.w3.org/1999/xhtml\"><table class=\"hl7__eu__lab__report\"><tr><th>Test</th><th>16-Mar-2016</th><th>Reference&#xA0;Range</th><th>Unit</th></tr><tr><td>Ketones [Mass/volume] in Urine by Test strip</td><td>4.4</td><td>0 - 4</td><td>H</td><td>mg/dL</td></tr></table></div>"
        },
        "status": "final",
        "subject": {
          "reference": "urn:uuid:d82a0be7-57fe-4215-9b35-4176cae274b1",
          "display": "Iva Kratochvílová"
        },
        "effectiveDateTime": "2016-03-16T06:19:29Z",
        "specimen": {
          "reference": "urn:uuid:09a0d300-a1d6-4077-9f4a-e85ad70d9437"
        }
      }
    },
    {
      "fullUrl": "urn:uuid:4a738c52-bf3c-4ae8-a91d-700d6756f09b",
      "resource": {
        "resourceType": "Observation",
        "id": "4a738c52-bf3c-4ae8-a91d-700d6756f09b",
        "meta": {
          "profile": [
            "http://hl7.eu/fhir/laboratory/StructureDefinition/Observation-resultslab-eu-lab"
          ]
        },
        "performer": [
          {
            "display": "The Central European Lab"
          }
        ],
        "category": [
          {
            "coding": [
              {
                "system": "http://terminology.hl7.org/CodeSystem/observation-category",
                "code": "laboratory"
              }
            ]
          }
        ],
        "code": {
          "coding": [
            {
              "code": "2514-8",
              "system": "http://loinc.org",
              "display": "Ketones [Presence] in Urine by Test strip"
            }
          ],
          "text": "Ketones [Presence] in Urine by Test strip"
        },
        "text": {
          "status": "generated",
          "div": "<div xmlns=\"http://www.w3.org/1999/xhtml\"><table class=\"hl7__eu__lab__report\"><tr><th>Test</th><th>16-Mar-2016</th><th>Reference&#xA0;Range</th><th>Unit</th></tr><tr><td>Ketones [Presence] in Urine by Test strip</td></tr></table></div>"
        },
        "status": "final",
        "subject": {
          "reference": "urn:uuid:d82a0be7-57fe-4215-9b35-4176cae274b1",
          "display": "Iva Kratochvílová"
        },
        "effectiveDateTime": "2016-03-16T06:19:29Z",
        "specimen": {
          "reference": "urn:uuid:09a0d300-a1d6-4077-9f4a-e85ad70d9437"
        }
      }
    },
    {
      "fullUrl": "urn:uuid:2b523963-d78e-46e8-a667-fb75cec1f33b",
      "resource": {
        "resourceType": "Observation",
        "id": "2b523963-d78e-46e8-a667-fb75cec1f33b",
        "meta": {
          "profile": [
            "http://hl7.eu/fhir/laboratory/StructureDefinition/Observation-resultslab-eu-lab"
          ]
        },
        "performer": [
          {
            "display": "The Central European Lab"
          }
        ],
        "category": [
          {
            "coding": [
              {
                "system": "http://terminology.hl7.org/CodeSystem/observation-category",
                "code": "laboratory"
              }
            ]
          }
        ],
        "code": {
          "coding": [
            {
              "code": "5811-5",
              "system": "http://loinc.org",
              "display": "Specific gravity of Urine by Test strip"
            }
          ],
          "text": "Specific gravity of Urine by Test strip"
        },
        "valueQuantity": {
          "system": "http://unitsofmeasure.org",
          "value": 1,
          "unit": "{nominal}",
          "code": "{nominal}"
        },
        "referenceRange": [
          {
            "low": {
              "value": 1.005,
              "code": "g/mL",
              "system": "http://unitsofmeasure.org"
            }
          },
          {
            "high": {
              "value": 1.03,
              "code": "g/mL",
              "system": "http://unitsofmeasure.org"
            }
          }
        ],
        "interpretation": [
          {
            "coding": [
              {
                "code": "L",
                "system": "http://terminology.hl7.org/CodeSystem/v3-ObservationInterpretation",
                "display": "Low"
              }
            ]
          }
        ],
        "text": {
          "status": "generated",
          "div": "<div xmlns=\"http://www.w3.org/1999/xhtml\"><table class=\"hl7__eu__lab__report\"><tr><th>Test</th><th>16-Mar-2016</th><th>Reference&#xA0;Range</th><th>Unit</th></tr><tr><td>Specific gravity of Urine by Test strip</td><td>1.0</td><td>1.005 - 1.03</td><td>L</td><td>{nominal}</td></tr></table></div>"
        },
        "status": "final",
        "subject": {
          "reference": "urn:uuid:d82a0be7-57fe-4215-9b35-4176cae274b1",
          "display": "Iva Kratochvílová"
        },
        "effectiveDateTime": "2016-03-16T06:19:29Z",
        "specimen": {
          "reference": "urn:uuid:09a0d300-a1d6-4077-9f4a-e85ad70d9437"
        }
      }
    },
    {
      "fullUrl": "urn:uuid:8bac652d-2fdb-4020-aa41-323e256c3974",
      "resource": {
        "resourceType": "Observation",
        "id": "8bac652d-2fdb-4020-aa41-323e256c3974",
        "meta": {
          "profile": [
            "http://hl7.eu/fhir/laboratory/StructureDefinition/Observation-resultslab-eu-lab"
          ]
        },
        "performer": [
          {
            "display": "The Central European Lab"
          }
        ],
        "category": [
          {
            "coding": [
              {
                "system": "http://terminology.hl7.org/CodeSystem/observation-category",
                "code": "laboratory"
              }
            ]
          }
        ],
        "code": {
          "coding": [
            {
              "code": "5803-2",
              "system": "http://loinc.org",
              "display": "pH of Urine by Test strip"
            }
          ],
          "text": "pH of Urine by Test strip"
        },
        "valueQuantity": {
          "system": "http://unitsofmeasure.org",
          "value": 6.6,
          "unit": "pH",
          "code": "pH"
        },
        "referenceRange": [
          {
            "low": {
              "value": 4.5,
              "code": "pH",
              "system": "http://unitsofmeasure.org"
            }
          },
          {
            "high": {
              "value": 7,
              "code": "pH",
              "system": "http://unitsofmeasure.org"
            }
          }
        ],
        "text": {
          "status": "generated",
          "div": "<div xmlns=\"http://www.w3.org/1999/xhtml\"><table class=\"hl7__eu__lab__report\"><tr><th>Test</th><th>16-Mar-2016</th><th>Reference&#xA0;Range</th><th>Unit</th></tr><tr><td>pH of Urine by Test strip</td><td>6.6</td><td>4.5 - 7</td><td></td><td>pH</td></tr></table></div>"
        },
        "status": "final",
        "subject": {
          "reference": "urn:uuid:d82a0be7-57fe-4215-9b35-4176cae274b1",
          "display": "Iva Kratochvílová"
        },
        "effectiveDateTime": "2016-03-16T06:19:29Z",
        "specimen": {
          "reference": "urn:uuid:09a0d300-a1d6-4077-9f4a-e85ad70d9437"
        }
      }
    },
    {
      "fullUrl": "urn:uuid:85d20559-96ba-4876-b744-302bc83fdb44",
      "resource": {
        "resourceType": "Observation",
        "id": "85d20559-96ba-4876-b744-302bc83fdb44",
        "meta": {
          "profile": [
            "http://hl7.eu/fhir/laboratory/StructureDefinition/Observation-resultslab-eu-lab"
          ]
        },
        "performer": [
          {
            "display": "The Central European Lab"
          }
        ],
        "category": [
          {
            "coding": [
              {
                "system": "http://terminology.hl7.org/CodeSystem/observation-category",
                "code": "laboratory"
              }
            ]
          }
        ],
        "code": {
          "coding": [
            {
              "code": "5804-0",
              "system": "http://loinc.org",
              "display": "Protein [Mass/volume] in Urine by Test strip"
            }
          ],
          "text": "Protein [Mass/volume] in Urine by Test strip"
        },
        "valueQuantity": {
          "system": "http://unitsofmeasure.org",
          "value": 421.1,
          "unit": "mg/dL",
          "code": "mg/dL"
        },
        "referenceRange": [
          {
            "low": {
              "value": 0,
              "code": "mg/dL",
              "system": "http://unitsofmeasure.org"
            }
          },
          {
            "high": {
              "value": 145,
              "code": "mg/dL",
              "system": "http://unitsofmeasure.org"
            }
          }
        ],
        "interpretation": [
          {
            "coding": [
              {
                "code": "H",
                "system": "http://terminology.hl7.org/CodeSystem/v3-ObservationInterpretation",
                "display": "High"
              }
            ]
          }
        ],
        "text": {
          "status": "generated",
          "div": "<div xmlns=\"http://www.w3.org/1999/xhtml\"><table class=\"hl7__eu__lab__report\"><tr><th>Test</th><th>16-Mar-2016</th><th>Reference&#xA0;Range</th><th>Unit</th></tr><tr><td>Protein [Mass/volume] in Urine by Test strip</td><td>421.1</td><td>0 - 145</td><td>H</td><td>mg/dL</td></tr></table></div>"
        },
        "status": "final",
        "subject": {
          "reference": "urn:uuid:d82a0be7-57fe-4215-9b35-4176cae274b1",
          "display": "Iva Kratochvílová"
        },
        "effectiveDateTime": "2016-03-16T06:19:29Z",
        "specimen": {
          "reference": "urn:uuid:09a0d300-a1d6-4077-9f4a-e85ad70d9437"
        }
      }
    },
    {
      "fullUrl": "urn:uuid:74cdb337-83b8-4e9a-92ea-f553410c041e",
      "resource": {
        "resourceType": "Observation",
        "id": "74cdb337-83b8-4e9a-92ea-f553410c041e",
        "meta": {
          "profile": [
            "http://hl7.eu/fhir/laboratory/StructureDefinition/Observation-resultslab-eu-lab"
          ]
        },
        "performer": [
          {
            "display": "The Central European Lab"
          }
        ],
        "category": [
          {
            "coding": [
              {
                "system": "http://terminology.hl7.org/CodeSystem/observation-category",
                "code": "laboratory"
              }
            ]
          }
        ],
        "code": {
          "coding": [
            {
              "code": "20454-5",
              "system": "http://loinc.org",
              "display": "Protein [Presence] in Urine by Test strip"
            }
          ],
          "text": "Protein [Presence] in Urine by Test strip"
        },
        "text": {
          "status": "generated",
          "div": "<div xmlns=\"http://www.w3.org/1999/xhtml\"><table class=\"hl7__eu__lab__report\"><tr><th>Test</th><th>16-Mar-2016</th><th>Reference&#xA0;Range</th><th>Unit</th></tr><tr><td>Protein [Presence] in Urine by Test strip</td></tr></table></div>"
        },
        "status": "final",
        "subject": {
          "reference": "urn:uuid:d82a0be7-57fe-4215-9b35-4176cae274b1",
          "display": "Iva Kratochvílová"
        },
        "effectiveDateTime": "2016-03-16T06:19:29Z",
        "specimen": {
          "reference": "urn:uuid:09a0d300-a1d6-4077-9f4a-e85ad70d9437"
        }
      }
    },
    {
      "fullUrl": "urn:uuid:464691aa-fffe-4b6b-91ff-15233a1ccf7a",
      "resource": {
        "resourceType": "Observation",
        "id": "464691aa-fffe-4b6b-91ff-15233a1ccf7a",
        "meta": {
          "profile": [
            "http://hl7.eu/fhir/laboratory/StructureDefinition/Observation-resultslab-eu-lab"
          ]
        },
        "performer": [
          {
            "display": "The Central European Lab"
          }
        ],
        "category": [
          {
            "coding": [
              {
                "system": "http://terminology.hl7.org/CodeSystem/observation-category",
                "code": "laboratory"
              }
            ]
          }
        ],
        "code": {
          "coding": [
            {
              "code": "5802-4",
              "system": "http://loinc.org",
              "display": "Nitrite [Presence] in Urine by Test strip"
            }
          ],
          "text": "Nitrite [Presence] in Urine by Test strip"
        },
        "text": {
          "status": "generated",
          "div": "<div xmlns=\"http://www.w3.org/1999/xhtml\"><table class=\"hl7__eu__lab__report\"><tr><th>Test</th><th>16-Mar-2016</th><th>Reference&#xA0;Range</th><th>Unit</th></tr><tr><td>Nitrite [Presence] in Urine by Test strip</td></tr></table></div>"
        },
        "status": "final",
        "subject": {
          "reference": "urn:uuid:d82a0be7-57fe-4215-9b35-4176cae274b1",
          "display": "Iva Kratochvílová"
        },
        "effectiveDateTime": "2016-03-16T06:19:29Z",
        "specimen": {
          "reference": "urn:uuid:09a0d300-a1d6-4077-9f4a-e85ad70d9437"
        }
      }
    },
    {
      "fullUrl": "urn:uuid:c2236970-4154-47ff-80a8-c5ae9e4e6923",
      "resource": {
        "resourceType": "Observation",
        "id": "c2236970-4154-47ff-80a8-c5ae9e4e6923",
        "meta": {
          "profile": [
            "http://hl7.eu/fhir/laboratory/StructureDefinition/Observation-resultslab-eu-lab"
          ]
        },
        "performer": [
          {
            "display": "The Central European Lab"
          }
        ],
        "category": [
          {
            "coding": [
              {
                "system": "http://terminology.hl7.org/CodeSystem/observation-category",
                "code": "laboratory"
              }
            ]
          }
        ],
        "code": {
          "coding": [
            {
              "code": "5794-3",
              "system": "http://loinc.org",
              "display": "Hemoglobin [Presence] in Urine by Test strip"
            }
          ],
          "text": "Hemoglobin [Presence] in Urine by Test strip"
        },
        "text": {
          "status": "generated",
          "div": "<div xmlns=\"http://www.w3.org/1999/xhtml\"><table class=\"hl7__eu__lab__report\"><tr><th>Test</th><th>16-Mar-2016</th><th>Reference&#xA0;Range</th><th>Unit</th></tr><tr><td>Hemoglobin [Presence] in Urine by Test strip</td></tr></table></div>"
        },
        "status": "final",
        "subject": {
          "reference": "urn:uuid:d82a0be7-57fe-4215-9b35-4176cae274b1",
          "display": "Iva Kratochvílová"
        },
        "effectiveDateTime": "2016-03-16T06:19:29Z",
        "specimen": {
          "reference": "urn:uuid:09a0d300-a1d6-4077-9f4a-e85ad70d9437"
        }
      }
    },
    {
      "fullUrl": "urn:uuid:fa4c8a27-6aba-418f-b8b9-5f64c00a807e",
      "resource": {
        "resourceType": "Observation",
        "id": "fa4c8a27-6aba-418f-b8b9-5f64c00a807e",
        "meta": {
          "profile": [
            "http://hl7.eu/fhir/laboratory/StructureDefinition/Observation-resultslab-eu-lab"
          ]
        },
        "performer": [
          {
            "display": "The Central European Lab"
          }
        ],
        "category": [
          {
            "coding": [
              {
                "system": "http://terminology.hl7.org/CodeSystem/observation-category",
                "code": "laboratory"
              }
            ]
          }
        ],
        "code": {
          "coding": [
            {
              "code": "5799-2",
              "system": "http://loinc.org",
              "display": "Leukocyte esterase [Presence] in Urine by Test strip"
            }
          ],
          "text": "Leukocyte esterase [Presence] in Urine by Test strip"
        },
        "text": {
          "status": "generated",
          "div": "<div xmlns=\"http://www.w3.org/1999/xhtml\"><table class=\"hl7__eu__lab__report\"><tr><th>Test</th><th>16-Mar-2016</th><th>Reference&#xA0;Range</th><th>Unit</th></tr><tr><td>Leukocyte esterase [Presence] in Urine by Test strip</td></tr></table></div>"
        },
        "status": "final",
        "subject": {
          "reference": "urn:uuid:d82a0be7-57fe-4215-9b35-4176cae274b1",
          "display": "Iva Kratochvílová"
        },
        "effectiveDateTime": "2016-03-16T06:19:29Z",
        "specimen": {
          "reference": "urn:uuid:09a0d300-a1d6-4077-9f4a-e85ad70d9437"
        }
      }
    },
    {
      "fullUrl": "urn:uuid:8096fc8b-ad56-4b50-bcd3-c7fa459e932f",
      "resource": {
        "resourceType": "Device",
        "id": "8096fc8b-ad56-4b50-bcd3-c7fa459e932f",
        "deviceName": [
          {
            "name": "SYNDERAI Synthetic Generator",
            "type": "manufacturer-name"
          }
        ],
        "version": [
          {
            "value": "5.0"
          }
        ],
        "text": {
          "status": "generated",
          "div": "<div xmlns=\"http://www.w3.org/1999/xhtml\">SYNDERAI Synthetic Generator v5.0</div>"
        },
        "status": "active\"",
        "distinctIdentifier": "synderai-generator-50",
        "manufacturer": "SYNDERAI Project"
      }
    },
    {
      "fullUrl": "urn:uuid:86994de6-0853-4367-a184-67dd16a1f803",
      "resource": {
        "resourceType": "Provenance",
        "id": "86994de6-0853-4367-a184-67dd16a1f803",
        "target": [
          {
            "reference": "Patient/d82a0be7-57fe-4215-9b35-4176cae274b1"
          },
          {
            "reference": "Bundle/9873928c-edde-4af6-bc8d-c935172753cb"
          },
          {
            "reference": "Composition/21c9eada-04df-4b66-85f4-54b919d672c2"
          },
          {
            "reference": "PractitionerRole/e6393efb-c276-492f-975e-3a1c9155a312"
          },
          {
            "reference": "Practitioner/e42c416d-b744-436f-a76d-40ffd0689094"
          },
          {
            "reference": "PractitionerRole/4836ede7-d9a8-408d-a732-051c47a7855e"
          },
          {
            "reference": "Organization/daa3e136-4af0-40ee-9228-a8f29474d53e"
          }
        ],
        "activity": {
          "text": "Synthetic Example Data Generation"
        },
        "policy": [
          "https://synderai.net/synderai-synthetic-data-policy"
        ],
        "agent": [
          {
            "type": {
              "text": "author"
            },
            "who": {
              "reference": "Device/8096fc8b-ad56-4b50-bcd3-c7fa459e932f"
            }
          }
        ],
        "reason": [
          {
            "text": "Interoperability Testing and Training (non-clinical use)"
          }
        ],
        "text": {
          "status": "generated",
          "div": "<div xmlns=\"http://www.w3.org/1999/xhtml\">Provenance for SYNDERAI Synthetic Example Data Resource</div>"
        },
        "recorded": "2016-03-16T07:19:29Z"
      }
    },
    {
      "fullUrl": "urn:uuid:e6393efb-c276-492f-975e-3a1c9155a312",
      "resource": {
        "resourceType": "PractitionerRole",
        "id": "e6393efb-c276-492f-975e-3a1c9155a312",
        "meta": {
          "profile": [
            "http://hl7.eu/fhir/base/StructureDefinition/practitionerRole-eu"
          ]
        },
        "text": {
          "status": "generated",
          "div": "<div xmlns=\"http://www.w3.org/1999/xhtml\">Laboratory Role Id: e6393efb-c276-492f-975e-3a1c9155a312</div>"
        },
        "practitioner": {
          "reference": "urn:uuid:e42c416d-b744-436f-a76d-40ffd0689094"
        }
      }
    },
    {
      "fullUrl": "urn:uuid:e42c416d-b744-436f-a76d-40ffd0689094",
      "resource": {
        "resourceType": "Practitioner",
        "id": "e42c416d-b744-436f-a76d-40ffd0689094",
        "meta": {
          "profile": [
            "http://hl7.eu/fhir/base/StructureDefinition/practitioner-eu"
          ]
        },
        "identifier": [
          {
            "assigner": {
              "display": "HL7 Europe"
            },
            "system": "urn:oid:2.16.840.1.113883.2.51.999",
            "value": "c8485a50-9199-48b3-b7e9-0c85dda1e815"
          }
        ],
        "name": [
          {
            "prefix": [
              "dr"
            ],
            "given": [
              "Ex"
            ],
            "family": "Ample"
          }
        ],
        "address": [
          {
            "line": [
              "Laboratoire Central Européenne",
              "Boulevard du Jardin Botanique 32"
            ],
            "postalCode": "1000",
            "city": "Brussels",
            "country": "Belgium"
          }
        ],
        "text": {
          "status": "generated",
          "div": "<div xmlns=\"http://www.w3.org/1999/xhtml\">Laboratory: Laboratoire Central Européenne, 1000 Brussels, Belgium</div>"
        }
      }
    }
  ],
  "type": "document",
  "timestamp": "2016-03-16T07:19:29Z"
}
