<Bundle xmlns="http://hl7.org/fhir">
   <id value="b844549c-4cca-44be-9e6d-07fa04be074b"/>
   <meta>
      <profile value="http://hl7.eu/fhir/laboratory/StructureDefinition/Bundle-eu-lab"/>
   </meta>
   <identifier>
      <system value="urn:oid:2.16.840.1.113883.2.51.999"/>
      <value value="45544eea-e79a-4291-a771-c1df885d309a"/>
      <assigner>
         <display value="HL7 Europe"/>
      </assigner>
   </identifier>
   <type value="document"/>
   <timestamp value="2015-11-17T06:26:59Z"/>
   <entry>
      <fullUrl value="urn:uuid:37c420e2-bee6-4102-9fa2-71f197da9bf5"/>
      <resource>
         <Composition>
            <id value="37c420e2-bee6-4102-9fa2-71f197da9bf5"/>
            <meta>
               <profile value="http://hl7.eu/fhir/laboratory/StructureDefinition/Composition-eu-lab"/>
            </meta>
            <identifier>
               <system value="urn:oid:2.16.840.1.113883.2.51.999"/>
               <value value="ca43c171-97ad-4596-a9a6-ebcfdd0d8f00"/>
               <assigner>
                  <display value="HL7 Europe"/>
               </assigner>
            </identifier>
            <status value="final"/>
            <type>
               <coding>
                  <system value="http://loinc.org"/>
                  <code value="11502-2"/>
                  <display value="Laboratory report"/>
               </coding>
               <text value="Laboratory Report"/>
            </type>
            <category>
               <coding>
                  <system value="http://loinc.org"/>
                  <code value="26436-6"/>
                  <display value="Laboratory studies (set)"/>
               </coding>
            </category>
            <subject>
               <reference value="urn:uuid:a3ffa6bc-93c6-4d4e-95db-06f021de2a4e"/>
               <display value="Aniela Sacharczuk"/>
            </subject>
            <date value="2015-11-17T06:26:59Z"/>
            <author>
               <reference value="urn:uuid:289abe7a-da3a-415b-b446-cfc1984621b7"/>
            </author>
            <title value="Laboratory Report"/>
            <confidentiality value="N"/>
            <section>
               <title value="Laboratory Report"/>
               <code>
                  <coding>
                     <system value="http://loinc.org"/>
                     <code value="26436-6"/>
                     <display value="Laboratory studies (set)"/>
                  </coding>
                  <text value="Laboratory studies"/>
               </code>
               <section>
                  <title value="Chemistry"/>
                  <code>
                     <coding>
                        <system value="http://loinc.org"/>
                        <code value="$18719-5"/>
                        <display value="Chemistry studies (set)"/>
                     </coding>
                     <text value="Chemistry"/>
                  </code>
                  <text>
                     <status value="generated"/>
                     <div xmlns="http://www.w3.org/1999/xhtml">
                        <h3>Chemistry</h3>
                        <table class="hl7__eu__lab__report">
                           <thead>
                              <tr>
                                 <th>Test</th>
                                 <th>17-NOV-2015</th>
                                 <th>Reference Range</th>
                                 <th>Unit</th>
                              </tr>
                           </thead>
                           <tbody>
                              <tr>
                                 <td>Hemoglobin A1c/Hemoglobin.total in Blood</td>
                                 <td>
                                    <strong>6.4 H</strong>
                                 </td>
                                 <td>4.8 - 5.7</td>
                                 <td>%</td>
                              </tr>
                              <tr>
                                 <td>Glucose [Mass/volume] in Blood</td>
                                 <td>90.5</td>
                                 <td>70 - 99</td>
                                 <td>mg/dL</td>
                              </tr>
                              <tr>
                                 <td>Urea nitrogen [Mass/volume] in Blood</td>
                                 <td>19.9</td>
                                 <td>7 - 20</td>
                                 <td>mg/dL</td>
                              </tr>
                              <tr>
                                 <td>Creatinine [Mass/volume] in Blood</td>
                                 <td>1.1</td>
                                 <td>0.6 - 1.1</td>
                                 <td>mg/dL</td>
                              </tr>
                              <tr>
                                 <td>Calcium [Mass/volume] in Blood</td>
                                 <td>9.1</td>
                                 <td>8.5 - 10.5</td>
                                 <td>mg/dL</td>
                              </tr>
                              <tr>
                                 <td>Sodium [Moles/volume] in Blood</td>
                                 <td>143.9</td>
                                 <td>135 - 145</td>
                                 <td>mmol/L</td>
                              </tr>
                              <tr>
                                 <td>Potassium [Moles/volume] in Blood</td>
                                 <td>5.1</td>
                                 <td>3.5 - 5.3</td>
                                 <td>mmol/L</td>
                              </tr>
                              <tr>
                                 <td>Chloride [Moles/volume] in Blood</td>
                                 <td>110.9</td>
                                 <td>98 - 114</td>
                                 <td>mmol/L</td>
                              </tr>
                              <tr>
                                 <td>Carbon dioxide, total [Moles/volume] in Blood</td>
                                 <td>25.0</td>
                                 <td>22 - 29</td>
                                 <td>mmol/L</td>
                              </tr>
                           </tbody>
                        </table>
                     </div>
                  </text>
                  <entry>
                     <reference value="urn:uuid:2791f8cc-a32d-479d-a7af-4ceee6474b7a"/>
                  </entry>
                  <entry>
                     <reference value="urn:uuid:dd4d2648-cbf4-43b4-a724-5e6a90e7e6ad"/>
                  </entry>
                  <entry>
                     <reference value="urn:uuid:54791f27-3a31-4aad-bddd-95749e25755c"/>
                  </entry>
                  <entry>
                     <reference value="urn:uuid:02bcd1a1-19ac-47b6-95c0-c6c70246830f"/>
                  </entry>
                  <entry>
                     <reference value="urn:uuid:53da71e0-67da-4b26-8be0-f371ac95d32b"/>
                  </entry>
                  <entry>
                     <reference value="urn:uuid:2eefdadf-2967-4b49-a7f6-614b229cae3a"/>
                  </entry>
                  <entry>
                     <reference value="urn:uuid:303d94b7-ba84-42ad-a52e-2b94cbcf052e"/>
                  </entry>
                  <entry>
                     <reference value="urn:uuid:3c5c52b4-0dec-4d12-a53f-4ba061930336"/>
                  </entry>
                  <entry>
                     <reference value="urn:uuid:81b853ad-ae97-494f-850b-742ed7fef158"/>
                  </entry>
               </section>
            </section>
            <section>
               <title value="Annotation comment"/>
               <code>
                  <coding>
                     <system value="http://loinc.org"/>
                     <code value="48767-8"/>
                     <display value="Annotation comment"/>
                  </coding>
               </code>
               <text>
                  <status value="generated"/>
                  <div xmlns="http://www.w3.org/1999/xhtml">
                     <h3>Annotation</h3>
                     <table class="hl7__eu__lab__report">
                        <tr>
                           <th>Conclusion and Recommendations based on this report and previous findings known to us</th>
                        </tr>
                        <tr>
                           <td>The laboratory results show an elevated HbA1c (6.4%), indicating impaired glucose metabolism consistent with prediabetes or early diabetes, despite a normal fasting glucose. Renal function, electrolytes, and other parameters are within normal limits. Recommend clinical correlation and consideration of further evaluation or management for glycemic control.</td>
                        </tr>
                     </table>
                  </div>
               </text>
            </section>
         </Composition>
      </resource>
   </entry>
   <entry>
      <fullUrl value="urn:uuid:0fd9367f-fab6-49e0-b225-b5fced15e436"/>
      <resource>
         <DiagnosticReport>
            <id value="0fd9367f-fab6-49e0-b225-b5fced15e436"/>
            <meta>
               <profile value="http://hl7.eu/fhir/laboratory/StructureDefinition/DiagnosticReport-eu-lab"/>
            </meta>
            <extension url="http://hl7.org/fhir/5.0/StructureDefinition/extension-DiagnosticReport.composition">
               <valueReference>
                  <reference value="urn:uuid:ca43c171-97ad-4596-a9a6-ebcfdd0d8f00"/>
               </valueReference>
            </extension>
            <identifier>
               <system value="urn:oid:2.16.840.1.113883.2.51.999"/>
               <value value="e2f33060-5580-4619-9cb6-35a81e4e1364"/>
               <assigner>
                  <display value="HL7 Europe"/>
               </assigner>
            </identifier>
            <status value="registered"/>
            <category>
               <coding>
                  <system value="http://loinc.org"/>
                  <code value="26436-6"/>
                  <display value="Laboratory studies (set)"/>
               </coding>
            </category>
            <code>
               <coding>
                  <system value="http://loinc.org"/>
                  <code value="11502-2"/>
                  <display value="Laboratory report"/>
               </coding>
            </code>
            <subject>
               <reference value="urn:uuid:a3ffa6bc-93c6-4d4e-95db-06f021de2a4e"/>
               <display value="Aniela Sacharczuk"/>
            </subject>
            <specimen>
               <reference value="urn:uuid:d22316bd-7f5f-4394-9e37-3dc7e2446c28"/>
            </specimen>
            <result>
               <reference value="urn:uuid:2791f8cc-a32d-479d-a7af-4ceee6474b7a"/>
            </result>
            <result>
               <reference value="urn:uuid:dd4d2648-cbf4-43b4-a724-5e6a90e7e6ad"/>
            </result>
            <result>
               <reference value="urn:uuid:54791f27-3a31-4aad-bddd-95749e25755c"/>
            </result>
            <result>
               <reference value="urn:uuid:02bcd1a1-19ac-47b6-95c0-c6c70246830f"/>
            </result>
            <result>
               <reference value="urn:uuid:53da71e0-67da-4b26-8be0-f371ac95d32b"/>
            </result>
            <result>
               <reference value="urn:uuid:2eefdadf-2967-4b49-a7f6-614b229cae3a"/>
            </result>
            <result>
               <reference value="urn:uuid:303d94b7-ba84-42ad-a52e-2b94cbcf052e"/>
            </result>
            <result>
               <reference value="urn:uuid:3c5c52b4-0dec-4d12-a53f-4ba061930336"/>
            </result>
            <result>
               <reference value="urn:uuid:81b853ad-ae97-494f-850b-742ed7fef158"/>
            </result>
         </DiagnosticReport>
      </resource>
   </entry>
   <entry>
      <fullUrl value="urn:uuid:a3ffa6bc-93c6-4d4e-95db-06f021de2a4e"/>
      <resource>
         <Patient>
            <id value="a3ffa6bc-93c6-4d4e-95db-06f021de2a4e"/>
            <meta>
               <profile value="http://hl7.eu/fhir/base/StructureDefinition/patient-eu-core"/>
               <security>
                  <system value="http://terminology.hl7.org/CodeSystem/v3-ActReason"/>
                  <code value="HTEST"/>
               </security>
               <security>
                  <system value="http://terminology.hl7.org/CodeSystem/v3-ActReason"/>
                  <code value="TRAIN"/>
               </security>
               <tag>
                  <system value="https://synderai.net/fhir/CodeSystem/tags"/>
                  <code value="synthetic"/>
                  <display value="SYNDERAI Synthetic data"/>
               </tag>
            </meta>
            <text>
               <status value="generated"/>
               <div xmlns="http://www.w3.org/1999/xhtml">
                  <table class="hl7__ips">
                     <tr>
                        <td>Aniela Sacharczuk</td>
                        <td>female</td>
                        <td>02-Nov-1970</td>
                     </tr>
                  </table>
               </div>
            </text>
            <extension url="http://hl7.org/fhir/StructureDefinition/patient-nationality">
               <valueCodeableConcept>
                  <coding>
                     <system value="http://hl7.org/fhir/ValueSet/country"/>
                     <code value="PL"/>
                  </coding>
               </valueCodeableConcept>
            </extension>
            <identifier>
               <type>
                  <coding>
                     <system value="http://terminology.hl7.org/CodeSystem/v2-0203"/>
                     <code value="PT"/>
                  </coding>
               </type>
               <system value="http://ec.europa.eu/identifier/eci"/>
               <value value="3843-787162-7"/>
            </identifier>
            <identifier>
               <type>
                  <coding>
                     <system value="http://terminology.hl7.org/CodeSystem/v2-0203"/>
                     <code value="MR"/>
                  </coding>
               </type>
               <system value="http://local.setting.eu/identifier"/>
               <value value="cd2e7aac-e2c0-8306-b862-9ed4c443c8b5"/>
            </identifier>
            <name>
               <family value="Sacharczuk"/>
            </name>
            <name>
               <given value="Aniela"/>
            </name>
            <name>
               <text value="Aniela Sacharczuk"/>
            </name>
            <telecom>
               <system value="phone"/>
               <value value="+48 536 227 035"/>
            </telecom>
            <gender value="female"/>
            <birthDate value="1970-11-02"/>
            <address>
               <use value="home"/>
               <type value="physical"/>
               <line value="plac Szpitalna 13"/>
               <city value="Sandomierz"/>
               <postalCode value="27-600"/>
               <country value="Poland"/>
            </address>
         </Patient>
      </resource>
   </entry>
   <entry>
      <fullUrl value="urn:uuid:f83c1c7e-00ed-449e-9f52-1fe93968e740"/>
      <resource>
         <ServiceRequest>
            <id value="f83c1c7e-00ed-449e-9f52-1fe93968e740"/>
            <meta>
               <profile value="http://hl7.eu/fhir/laboratory/StructureDefinition/ServiceRequest-eu-lab"/>
            </meta>
            <identifier>
               <system value="http://example.org"/>
               <value value="5c70503c-835d-4981-8bbc-fb9769dc355b"/>
            </identifier>
            <status value="active"/>
            <intent value="order"/>
            <code>
               <coding>
                  <system value="http://snomed.info/sct"/>
                  <code value="108252007"/>
                  <display value="Laboratory procedure"/>
               </coding>
            </code>
            <subject>
               <reference value="urn:uuid:a3ffa6bc-93c6-4d4e-95db-06f021de2a4e"/>
               <display value="Aniela Sacharczuk"/>
            </subject>
            <requester>
               <reference value="urn:uuid:1dcf17ad-3621-49ab-b2d6-c9f047fe8bbf"/>
            </requester>
            <reasonCode>
               <coding>
                  <system value="http://snomed.info/sct"/>
                  <code value="237602007"/>
                  <display value="Metabolic syndrome X"/>
               </coding>
            </reasonCode>
            <reasonCode>
               <coding>
                  <system value="http://snomed.info/sct"/>
                  <code value="15777000"/>
                  <display value="Prediabetes"/>
               </coding>
            </reasonCode>
            <reasonCode>
               <coding>
                  <system value="http://snomed.info/sct"/>
                  <code value="59621000"/>
                  <display value="Essential hypertension"/>
               </coding>
            </reasonCode>
            <specimen>
               <reference value="urn:uuid:d22316bd-7f5f-4394-9e37-3dc7e2446c28"/>
            </specimen>
         </ServiceRequest>
      </resource>
   </entry>
   <entry>
      <fullUrl value="urn:uuid:1dcf17ad-3621-49ab-b2d6-c9f047fe8bbf"/>
      <resource>
         <PractitionerRole>
            <id value="1dcf17ad-3621-49ab-b2d6-c9f047fe8bbf"/>
            <meta>
               <profile value="http://hl7.eu/fhir/base/StructureDefinition/practitionerRole-eu"/>
            </meta>
            <text>
               <status value="generated"/>
               <div xmlns="http://www.w3.org/1999/xhtml">Provider Role Id: 1dcf17ad-3621-49ab-b2d6-c9f047fe8bbf</div>
            </text>
            <organization>
               <reference value="urn:uuid:a55c2d8b-8398-4c5f-b3a0-aecc3cda7e74"/>
            </organization>
         </PractitionerRole>
      </resource>
   </entry>
   <entry>
      <fullUrl value="urn:uuid:a55c2d8b-8398-4c5f-b3a0-aecc3cda7e74"/>
      <resource>
         <Organization>
            <id value="a55c2d8b-8398-4c5f-b3a0-aecc3cda7e74"/>
            <meta>
               <profile value="http://hl7.eu/fhir/base/StructureDefinition/organization-eu"/>
            </meta>
            <text>
               <status value="generated"/>
               <div xmlns="http://www.w3.org/1999/xhtml">Provider Organization: Ośrodek Zdrowia</div>
            </text>
            <identifier>
               <system value="urn:oid:2.16.840.1.113883.2.51.999"/>
               <value value="196cdf12-69a7-430f-88dd-08319c2c61ed"/>
               <assigner>
                  <display value="HL7 Europe"/>
               </assigner>
            </identifier>
            <name value="Ośrodek Zdrowia"/>
            <address>
               <line value="Józefa Piłsudskiego 17"/>
               <city value="Gorzyce"/>
               <postalCode value="39-432"/>
               <country value="Poland"/>
            </address>
         </Organization>
      </resource>
   </entry>
   <entry>
      <fullUrl value="urn:uuid:d22316bd-7f5f-4394-9e37-3dc7e2446c28"/>
      <resource>
         <Specimen>
            <id value="d22316bd-7f5f-4394-9e37-3dc7e2446c28"/>
            <meta>
               <profile value="http://hl7.eu/fhir/laboratory/StructureDefinition/Specimen-eu-lab"/>
            </meta>
            <text>
               <status value="generated"/>
               <div xmlns="http://www.w3.org/1999/xhtml">
                  <table class="hl7__eu__lab__report">
                     <tr>
                        <th>Specimen</th>
                        <th>Collection Date</th>
                     </tr>
                     <tr>
                        <td>Whole blood specimen (specimen)</td>
                        <td>
                           <span class="nb">17-Nov-2015</span>
                        </td>
                     </tr>
                  </table>
               </div>
            </text>
            <type>
               <coding>
                  <system value="http://snomed.info/sct"/>
                  <code value="258580003"/>
                  <display value="Whole blood specimen (specimen)"/>
               </coding>
            </type>
            <collection>
               <collectedDateTime value="2015-11-17"/>
            </collection>
         </Specimen>
      </resource>
   </entry>
   <entry>
      <fullUrl value="urn:uuid:2791f8cc-a32d-479d-a7af-4ceee6474b7a"/>
      <resource>
         <Observation>
            <id value="2791f8cc-a32d-479d-a7af-4ceee6474b7a"/>
            <meta>
               <profile value="http://hl7.eu/fhir/laboratory/StructureDefinition/Observation-resultslab-eu-lab"/>
            </meta>
            <text>
               <status value="generated"/>
               <div xmlns="http://www.w3.org/1999/xhtml">
                  <table class="hl7__eu__lab__report">
                     <tr>
                        <th>Test</th>
                        <th>17-Nov-2015</th>
                        <th>Reference Range</th>
                        <th>Unit</th>
                     </tr>
                     <tr>
                        <td>Hemoglobin A1c/Hemoglobin.total in Blood</td>
                        <td>6.4</td>
                        <td>4.8 - 5.7</td>
                        <td>H</td>
                        <td>%</td>
                     </tr>
                  </table>
               </div>
            </text>
            <status value="final"/>
            <category>
               <coding>
                  <system value="http://terminology.hl7.org/CodeSystem/observation-category"/>
                  <code value="laboratory"/>
               </coding>
            </category>
            <code>
               <coding>
                  <system value="http://loinc.org"/>
                  <code value="4548-4"/>
                  <display value="Hemoglobin A1c/Hemoglobin.total in Blood"/>
               </coding>
               <text value="Hemoglobin A1c/Hemoglobin.total in Blood"/>
            </code>
            <subject>
               <reference value="urn:uuid:a3ffa6bc-93c6-4d4e-95db-06f021de2a4e"/>
               <display value="Aniela Sacharczuk"/>
            </subject>
            <effectiveDateTime value="2015-11-17T05:26:59Z"/>
            <performer>
               <display value="The Central European Lab"/>
            </performer>
            <valueQuantity>
               <value value="6.4"/>
               <unit value="%"/>
               <system value="http://unitsofmeasure.org"/>
               <code value="%"/>
            </valueQuantity>
            <interpretation>
               <coding>
                  <system value="http://terminology.hl7.org/CodeSystem/v3-ObservationInterpretation"/>
                  <code value="H"/>
                  <display value="High"/>
               </coding>
            </interpretation>
            <specimen>
               <reference value="urn:uuid:d22316bd-7f5f-4394-9e37-3dc7e2446c28"/>
            </specimen>
            <referenceRange>
               <low>
                  <value value="4.8"/>
                  <system value="http://unitsofmeasure.org"/>
                  <code value="%"/>
               </low>
            </referenceRange>
            <referenceRange>
               <high>
                  <value value="5.7"/>
                  <system value="http://unitsofmeasure.org"/>
                  <code value="%"/>
               </high>
            </referenceRange>
         </Observation>
      </resource>
   </entry>
   <entry>
      <fullUrl value="urn:uuid:dd4d2648-cbf4-43b4-a724-5e6a90e7e6ad"/>
      <resource>
         <Observation>
            <id value="dd4d2648-cbf4-43b4-a724-5e6a90e7e6ad"/>
            <meta>
               <profile value="http://hl7.eu/fhir/laboratory/StructureDefinition/Observation-resultslab-eu-lab"/>
            </meta>
            <text>
               <status value="generated"/>
               <div xmlns="http://www.w3.org/1999/xhtml">
                  <table class="hl7__eu__lab__report">
                     <tr>
                        <th>Test</th>
                        <th>17-Nov-2015</th>
                        <th>Reference Range</th>
                        <th>Unit</th>
                     </tr>
                     <tr>
                        <td>Glucose [Mass/volume] in Blood</td>
                        <td>90.5</td>
                        <td>70 - 99</td>
                        <td/>
                        <td>mg/dL</td>
                     </tr>
                  </table>
               </div>
            </text>
            <status value="final"/>
            <category>
               <coding>
                  <system value="http://terminology.hl7.org/CodeSystem/observation-category"/>
                  <code value="laboratory"/>
               </coding>
            </category>
            <code>
               <coding>
                  <system value="http://loinc.org"/>
                  <code value="2339-0"/>
                  <display value="Glucose [Mass/volume] in Blood"/>
               </coding>
               <text value="Glucose [Mass/volume] in Blood"/>
            </code>
            <subject>
               <reference value="urn:uuid:a3ffa6bc-93c6-4d4e-95db-06f021de2a4e"/>
               <display value="Aniela Sacharczuk"/>
            </subject>
            <effectiveDateTime value="2015-11-17T05:26:59Z"/>
            <performer>
               <display value="The Central European Lab"/>
            </performer>
            <valueQuantity>
               <value value="90.5"/>
               <unit value="mg/dL"/>
               <system value="http://unitsofmeasure.org"/>
               <code value="mg/dL"/>
            </valueQuantity>
            <specimen>
               <reference value="urn:uuid:d22316bd-7f5f-4394-9e37-3dc7e2446c28"/>
            </specimen>
            <referenceRange>
               <low>
                  <value value="70"/>
                  <system value="http://unitsofmeasure.org"/>
                  <code value="mg/dL"/>
               </low>
            </referenceRange>
            <referenceRange>
               <high>
                  <value value="99"/>
                  <system value="http://unitsofmeasure.org"/>
                  <code value="mg/dL"/>
               </high>
            </referenceRange>
         </Observation>
      </resource>
   </entry>
   <entry>
      <fullUrl value="urn:uuid:54791f27-3a31-4aad-bddd-95749e25755c"/>
      <resource>
         <Observation>
            <id value="54791f27-3a31-4aad-bddd-95749e25755c"/>
            <meta>
               <profile value="http://hl7.eu/fhir/laboratory/StructureDefinition/Observation-resultslab-eu-lab"/>
            </meta>
            <text>
               <status value="generated"/>
               <div xmlns="http://www.w3.org/1999/xhtml">
                  <table class="hl7__eu__lab__report">
                     <tr>
                        <th>Test</th>
                        <th>17-Nov-2015</th>
                        <th>Reference Range</th>
                        <th>Unit</th>
                     </tr>
                     <tr>
                        <td>Urea nitrogen [Mass/volume] in Blood</td>
                        <td>19.9</td>
                        <td>7 - 20</td>
                        <td/>
                        <td>mg/dL</td>
                     </tr>
                  </table>
               </div>
            </text>
            <status value="final"/>
            <category>
               <coding>
                  <system value="http://terminology.hl7.org/CodeSystem/observation-category"/>
                  <code value="laboratory"/>
               </coding>
            </category>
            <code>
               <coding>
                  <system value="http://loinc.org"/>
                  <code value="6299-2"/>
                  <display value="Urea nitrogen [Mass/volume] in Blood"/>
               </coding>
               <text value="Urea nitrogen [Mass/volume] in Blood"/>
            </code>
            <subject>
               <reference value="urn:uuid:a3ffa6bc-93c6-4d4e-95db-06f021de2a4e"/>
               <display value="Aniela Sacharczuk"/>
            </subject>
            <effectiveDateTime value="2015-11-17T05:26:59Z"/>
            <performer>
               <display value="The Central European Lab"/>
            </performer>
            <valueQuantity>
               <value value="19.9"/>
               <unit value="mg/dL"/>
               <system value="http://unitsofmeasure.org"/>
               <code value="mg/dL"/>
            </valueQuantity>
            <specimen>
               <reference value="urn:uuid:d22316bd-7f5f-4394-9e37-3dc7e2446c28"/>
            </specimen>
            <referenceRange>
               <low>
                  <value value="7"/>
                  <system value="http://unitsofmeasure.org"/>
                  <code value="mg/dL"/>
               </low>
            </referenceRange>
            <referenceRange>
               <high>
                  <value value="20"/>
                  <system value="http://unitsofmeasure.org"/>
                  <code value="mg/dL"/>
               </high>
            </referenceRange>
         </Observation>
      </resource>
   </entry>
   <entry>
      <fullUrl value="urn:uuid:02bcd1a1-19ac-47b6-95c0-c6c70246830f"/>
      <resource>
         <Observation>
            <id value="02bcd1a1-19ac-47b6-95c0-c6c70246830f"/>
            <meta>
               <profile value="http://hl7.eu/fhir/laboratory/StructureDefinition/Observation-resultslab-eu-lab"/>
            </meta>
            <text>
               <status value="generated"/>
               <div xmlns="http://www.w3.org/1999/xhtml">
                  <table class="hl7__eu__lab__report">
                     <tr>
                        <th>Test</th>
                        <th>17-Nov-2015</th>
                        <th>Reference Range</th>
                        <th>Unit</th>
                     </tr>
                     <tr>
                        <td>Creatinine [Mass/volume] in Blood</td>
                        <td>1.1</td>
                        <td>0.6 - 1.1</td>
                        <td/>
                        <td>mg/dL</td>
                     </tr>
                  </table>
               </div>
            </text>
            <status value="final"/>
            <category>
               <coding>
                  <system value="http://terminology.hl7.org/CodeSystem/observation-category"/>
                  <code value="laboratory"/>
               </coding>
            </category>
            <code>
               <coding>
                  <system value="http://loinc.org"/>
                  <code value="38483-4"/>
                  <display value="Creatinine [Mass/volume] in Blood"/>
               </coding>
               <text value="Creatinine [Mass/volume] in Blood"/>
            </code>
            <subject>
               <reference value="urn:uuid:a3ffa6bc-93c6-4d4e-95db-06f021de2a4e"/>
               <display value="Aniela Sacharczuk"/>
            </subject>
            <effectiveDateTime value="2015-11-17T05:26:59Z"/>
            <performer>
               <display value="The Central European Lab"/>
            </performer>
            <valueQuantity>
               <value value="1.1"/>
               <unit value="mg/dL"/>
               <system value="http://unitsofmeasure.org"/>
               <code value="mg/dL"/>
            </valueQuantity>
            <specimen>
               <reference value="urn:uuid:d22316bd-7f5f-4394-9e37-3dc7e2446c28"/>
            </specimen>
            <referenceRange>
               <low>
                  <value value="0.6"/>
                  <system value="http://unitsofmeasure.org"/>
                  <code value="mg/dL"/>
               </low>
            </referenceRange>
            <referenceRange>
               <high>
                  <value value="1.1"/>
                  <system value="http://unitsofmeasure.org"/>
                  <code value="mg/dL"/>
               </high>
            </referenceRange>
         </Observation>
      </resource>
   </entry>
   <entry>
      <fullUrl value="urn:uuid:53da71e0-67da-4b26-8be0-f371ac95d32b"/>
      <resource>
         <Observation>
            <id value="53da71e0-67da-4b26-8be0-f371ac95d32b"/>
            <meta>
               <profile value="http://hl7.eu/fhir/laboratory/StructureDefinition/Observation-resultslab-eu-lab"/>
            </meta>
            <text>
               <status value="generated"/>
               <div xmlns="http://www.w3.org/1999/xhtml">
                  <table class="hl7__eu__lab__report">
                     <tr>
                        <th>Test</th>
                        <th>17-Nov-2015</th>
                        <th>Reference Range</th>
                        <th>Unit</th>
                     </tr>
                     <tr>
                        <td>Calcium [Mass/volume] in Blood</td>
                        <td>9.1</td>
                        <td>8.5 - 10.5</td>
                        <td/>
                        <td>mg/dL</td>
                     </tr>
                  </table>
               </div>
            </text>
            <status value="final"/>
            <category>
               <coding>
                  <system value="http://terminology.hl7.org/CodeSystem/observation-category"/>
                  <code value="laboratory"/>
               </coding>
            </category>
            <code>
               <coding>
                  <system value="http://loinc.org"/>
                  <code value="49765-1"/>
                  <display value="Calcium [Mass/volume] in Blood"/>
               </coding>
               <text value="Calcium [Mass/volume] in Blood"/>
            </code>
            <subject>
               <reference value="urn:uuid:a3ffa6bc-93c6-4d4e-95db-06f021de2a4e"/>
               <display value="Aniela Sacharczuk"/>
            </subject>
            <effectiveDateTime value="2015-11-17T05:26:59Z"/>
            <performer>
               <display value="The Central European Lab"/>
            </performer>
            <valueQuantity>
               <value value="9.1"/>
               <unit value="mg/dL"/>
               <system value="http://unitsofmeasure.org"/>
               <code value="mg/dL"/>
            </valueQuantity>
            <specimen>
               <reference value="urn:uuid:d22316bd-7f5f-4394-9e37-3dc7e2446c28"/>
            </specimen>
            <referenceRange>
               <low>
                  <value value="8.5"/>
                  <system value="http://unitsofmeasure.org"/>
                  <code value="mg/dL"/>
               </low>
            </referenceRange>
            <referenceRange>
               <high>
                  <value value="10.5"/>
                  <system value="http://unitsofmeasure.org"/>
                  <code value="mg/dL"/>
               </high>
            </referenceRange>
         </Observation>
      </resource>
   </entry>
   <entry>
      <fullUrl value="urn:uuid:2eefdadf-2967-4b49-a7f6-614b229cae3a"/>
      <resource>
         <Observation>
            <id value="2eefdadf-2967-4b49-a7f6-614b229cae3a"/>
            <meta>
               <profile value="http://hl7.eu/fhir/laboratory/StructureDefinition/Observation-resultslab-eu-lab"/>
            </meta>
            <text>
               <status value="generated"/>
               <div xmlns="http://www.w3.org/1999/xhtml">
                  <table class="hl7__eu__lab__report">
                     <tr>
                        <th>Test</th>
                        <th>17-Nov-2015</th>
                        <th>Reference Range</th>
                        <th>Unit</th>
                     </tr>
                     <tr>
                        <td>Sodium [Moles/volume] in Blood</td>
                        <td>143.9</td>
                        <td>135 - 145</td>
                        <td/>
                        <td>mmol/L</td>
                     </tr>
                  </table>
               </div>
            </text>
            <status value="final"/>
            <category>
               <coding>
                  <system value="http://terminology.hl7.org/CodeSystem/observation-category"/>
                  <code value="laboratory"/>
               </coding>
            </category>
            <code>
               <coding>
                  <system value="http://loinc.org"/>
                  <code value="2947-0"/>
                  <display value="Sodium [Moles/volume] in Blood"/>
               </coding>
               <text value="Sodium [Moles/volume] in Blood"/>
            </code>
            <subject>
               <reference value="urn:uuid:a3ffa6bc-93c6-4d4e-95db-06f021de2a4e"/>
               <display value="Aniela Sacharczuk"/>
            </subject>
            <effectiveDateTime value="2015-11-17T05:26:59Z"/>
            <performer>
               <display value="The Central European Lab"/>
            </performer>
            <valueQuantity>
               <value value="143.9"/>
               <unit value="mmol/L"/>
               <system value="http://unitsofmeasure.org"/>
               <code value="mmol/L"/>
            </valueQuantity>
            <specimen>
               <reference value="urn:uuid:d22316bd-7f5f-4394-9e37-3dc7e2446c28"/>
            </specimen>
            <referenceRange>
               <low>
                  <value value="135"/>
                  <system value="http://unitsofmeasure.org"/>
                  <code value="mmol/L"/>
               </low>
            </referenceRange>
            <referenceRange>
               <high>
                  <value value="145"/>
                  <system value="http://unitsofmeasure.org"/>
                  <code value="mmol/L"/>
               </high>
            </referenceRange>
         </Observation>
      </resource>
   </entry>
   <entry>
      <fullUrl value="urn:uuid:303d94b7-ba84-42ad-a52e-2b94cbcf052e"/>
      <resource>
         <Observation>
            <id value="303d94b7-ba84-42ad-a52e-2b94cbcf052e"/>
            <meta>
               <profile value="http://hl7.eu/fhir/laboratory/StructureDefinition/Observation-resultslab-eu-lab"/>
            </meta>
            <text>
               <status value="generated"/>
               <div xmlns="http://www.w3.org/1999/xhtml">
                  <table class="hl7__eu__lab__report">
                     <tr>
                        <th>Test</th>
                        <th>17-Nov-2015</th>
                        <th>Reference Range</th>
                        <th>Unit</th>
                     </tr>
                     <tr>
                        <td>Potassium [Moles/volume] in Blood</td>
                        <td>5.1</td>
                        <td>3.5 - 5.3</td>
                        <td/>
                        <td>mmol/L</td>
                     </tr>
                  </table>
               </div>
            </text>
            <status value="final"/>
            <category>
               <coding>
                  <system value="http://terminology.hl7.org/CodeSystem/observation-category"/>
                  <code value="laboratory"/>
               </coding>
            </category>
            <code>
               <coding>
                  <system value="http://loinc.org"/>
                  <code value="6298-4"/>
                  <display value="Potassium [Moles/volume] in Blood"/>
               </coding>
               <text value="Potassium [Moles/volume] in Blood"/>
            </code>
            <subject>
               <reference value="urn:uuid:a3ffa6bc-93c6-4d4e-95db-06f021de2a4e"/>
               <display value="Aniela Sacharczuk"/>
            </subject>
            <effectiveDateTime value="2015-11-17T05:26:59Z"/>
            <performer>
               <display value="The Central European Lab"/>
            </performer>
            <valueQuantity>
               <value value="5.1"/>
               <unit value="mmol/L"/>
               <system value="http://unitsofmeasure.org"/>
               <code value="mmol/L"/>
            </valueQuantity>
            <specimen>
               <reference value="urn:uuid:d22316bd-7f5f-4394-9e37-3dc7e2446c28"/>
            </specimen>
            <referenceRange>
               <low>
                  <value value="3.5"/>
                  <system value="http://unitsofmeasure.org"/>
                  <code value="mmol/L"/>
               </low>
            </referenceRange>
            <referenceRange>
               <high>
                  <value value="5.3"/>
                  <system value="http://unitsofmeasure.org"/>
                  <code value="mmol/L"/>
               </high>
            </referenceRange>
         </Observation>
      </resource>
   </entry>
   <entry>
      <fullUrl value="urn:uuid:3c5c52b4-0dec-4d12-a53f-4ba061930336"/>
      <resource>
         <Observation>
            <id value="3c5c52b4-0dec-4d12-a53f-4ba061930336"/>
            <meta>
               <profile value="http://hl7.eu/fhir/laboratory/StructureDefinition/Observation-resultslab-eu-lab"/>
            </meta>
            <text>
               <status value="generated"/>
               <div xmlns="http://www.w3.org/1999/xhtml">
                  <table class="hl7__eu__lab__report">
                     <tr>
                        <th>Test</th>
                        <th>17-Nov-2015</th>
                        <th>Reference Range</th>
                        <th>Unit</th>
                     </tr>
                     <tr>
                        <td>Chloride [Moles/volume] in Blood</td>
                        <td>110.9</td>
                        <td>98 - 114</td>
                        <td/>
                        <td>mmol/L</td>
                     </tr>
                  </table>
               </div>
            </text>
            <status value="final"/>
            <category>
               <coding>
                  <system value="http://terminology.hl7.org/CodeSystem/observation-category"/>
                  <code value="laboratory"/>
               </coding>
            </category>
            <code>
               <coding>
                  <system value="http://loinc.org"/>
                  <code value="2069-3"/>
                  <display value="Chloride [Moles/volume] in Blood"/>
               </coding>
               <text value="Chloride [Moles/volume] in Blood"/>
            </code>
            <subject>
               <reference value="urn:uuid:a3ffa6bc-93c6-4d4e-95db-06f021de2a4e"/>
               <display value="Aniela Sacharczuk"/>
            </subject>
            <effectiveDateTime value="2015-11-17T05:26:59Z"/>
            <performer>
               <display value="The Central European Lab"/>
            </performer>
            <valueQuantity>
               <value value="110.9"/>
               <unit value="mmol/L"/>
               <system value="http://unitsofmeasure.org"/>
               <code value="mmol/L"/>
            </valueQuantity>
            <specimen>
               <reference value="urn:uuid:d22316bd-7f5f-4394-9e37-3dc7e2446c28"/>
            </specimen>
            <referenceRange>
               <low>
                  <value value="98"/>
                  <system value="http://unitsofmeasure.org"/>
                  <code value="mmol/L"/>
               </low>
            </referenceRange>
            <referenceRange>
               <high>
                  <value value="114"/>
                  <system value="http://unitsofmeasure.org"/>
                  <code value="mmol/L"/>
               </high>
            </referenceRange>
         </Observation>
      </resource>
   </entry>
   <entry>
      <fullUrl value="urn:uuid:81b853ad-ae97-494f-850b-742ed7fef158"/>
      <resource>
         <Observation>
            <id value="81b853ad-ae97-494f-850b-742ed7fef158"/>
            <meta>
               <profile value="http://hl7.eu/fhir/laboratory/StructureDefinition/Observation-resultslab-eu-lab"/>
            </meta>
            <text>
               <status value="generated"/>
               <div xmlns="http://www.w3.org/1999/xhtml">
                  <table class="hl7__eu__lab__report">
                     <tr>
                        <th>Test</th>
                        <th>17-Nov-2015</th>
                        <th>Reference Range</th>
                        <th>Unit</th>
                     </tr>
                     <tr>
                        <td>Carbon dioxide, total [Moles/volume] in Blood</td>
                        <td>25.0</td>
                        <td>22 - 29</td>
                        <td/>
                        <td>mmol/L</td>
                     </tr>
                  </table>
               </div>
            </text>
            <status value="final"/>
            <category>
               <coding>
                  <system value="http://terminology.hl7.org/CodeSystem/observation-category"/>
                  <code value="laboratory"/>
               </coding>
            </category>
            <code>
               <coding>
                  <system value="http://loinc.org"/>
                  <code value="20565-8"/>
                  <display value="Carbon dioxide, total [Moles/volume] in Blood"/>
               </coding>
               <text value="Carbon dioxide, total [Moles/volume] in Blood"/>
            </code>
            <subject>
               <reference value="urn:uuid:a3ffa6bc-93c6-4d4e-95db-06f021de2a4e"/>
               <display value="Aniela Sacharczuk"/>
            </subject>
            <effectiveDateTime value="2015-11-17T05:26:59Z"/>
            <performer>
               <display value="The Central European Lab"/>
            </performer>
            <valueQuantity>
               <value value="25"/>
               <unit value="mmol/L"/>
               <system value="http://unitsofmeasure.org"/>
               <code value="mmol/L"/>
            </valueQuantity>
            <specimen>
               <reference value="urn:uuid:d22316bd-7f5f-4394-9e37-3dc7e2446c28"/>
            </specimen>
            <referenceRange>
               <low>
                  <value value="22"/>
                  <system value="http://unitsofmeasure.org"/>
                  <code value="mmol/L"/>
               </low>
            </referenceRange>
            <referenceRange>
               <high>
                  <value value="29"/>
                  <system value="http://unitsofmeasure.org"/>
                  <code value="mmol/L"/>
               </high>
            </referenceRange>
         </Observation>
      </resource>
   </entry>
   <entry>
      <fullUrl value="urn:uuid:e8e56bbf-6a72-4740-b78b-eed8add2928d"/>
      <resource>
         <Device>
            <id value="e8e56bbf-6a72-4740-b78b-eed8add2928d"/>
            <text>
               <status value="generated"/>
               <div xmlns="http://www.w3.org/1999/xhtml">SYNDERAI Synthetic Generator v5.0</div>
            </text>
            <status value="active&#34;"/>
            <distinctIdentifier value="synderai-generator-50"/>
            <manufacturer value="SYNDERAI Project"/>
            <deviceName>
               <name value="SYNDERAI Synthetic Generator"/>
               <type value="manufacturer-name"/>
            </deviceName>
            <version>
               <value value="5.0"/>
            </version>
         </Device>
      </resource>
   </entry>
   <entry>
      <fullUrl value="urn:uuid:857d6412-c25a-4aea-9948-9dad646051c4"/>
      <resource>
         <Provenance>
            <id value="857d6412-c25a-4aea-9948-9dad646051c4"/>
            <text>
               <status value="generated"/>
               <div xmlns="http://www.w3.org/1999/xhtml">Provenance for SYNDERAI Synthetic Example Data Resource</div>
            </text>
            <target>
               <reference value="Patient/a3ffa6bc-93c6-4d4e-95db-06f021de2a4e"/>
            </target>
            <target>
               <reference value="Bundle/b844549c-4cca-44be-9e6d-07fa04be074b"/>
            </target>
            <target>
               <reference value="Composition/37c420e2-bee6-4102-9fa2-71f197da9bf5"/>
            </target>
            <target>
               <reference value="PractitionerRole/289abe7a-da3a-415b-b446-cfc1984621b7"/>
            </target>
            <target>
               <reference value="Practitioner/47c646dd-e6c7-4182-8819-976fc90a9592"/>
            </target>
            <target>
               <reference value="PractitionerRole/1dcf17ad-3621-49ab-b2d6-c9f047fe8bbf"/>
            </target>
            <target>
               <reference value="Organization/a55c2d8b-8398-4c5f-b3a0-aecc3cda7e74"/>
            </target>
            <recorded value="2015-11-17T06:26:59Z"/>
            <policy value="https://synderai.net/synderai-synthetic-data-policy"/>
            <reason>
               <text value="Interoperability Testing and Training (non-clinical use)"/>
            </reason>
            <activity>
               <text value="Synthetic Example Data Generation"/>
            </activity>
            <agent>
               <type>
                  <text value="author"/>
               </type>
               <who>
                  <reference value="Device/e8e56bbf-6a72-4740-b78b-eed8add2928d"/>
               </who>
            </agent>
         </Provenance>
      </resource>
   </entry>
   <entry>
      <fullUrl value="urn:uuid:289abe7a-da3a-415b-b446-cfc1984621b7"/>
      <resource>
         <PractitionerRole>
            <id value="289abe7a-da3a-415b-b446-cfc1984621b7"/>
            <meta>
               <profile value="http://hl7.eu/fhir/base/StructureDefinition/practitionerRole-eu"/>
            </meta>
            <text>
               <status value="generated"/>
               <div xmlns="http://www.w3.org/1999/xhtml">Laboratory Role Id: 289abe7a-da3a-415b-b446-cfc1984621b7</div>
            </text>
            <practitioner>
               <reference value="urn:uuid:47c646dd-e6c7-4182-8819-976fc90a9592"/>
            </practitioner>
         </PractitionerRole>
      </resource>
   </entry>
   <entry>
      <fullUrl value="urn:uuid:47c646dd-e6c7-4182-8819-976fc90a9592"/>
      <resource>
         <Practitioner>
            <id value="47c646dd-e6c7-4182-8819-976fc90a9592"/>
            <meta>
               <profile value="http://hl7.eu/fhir/base/StructureDefinition/practitioner-eu"/>
            </meta>
            <text>
               <status value="generated"/>
               <div xmlns="http://www.w3.org/1999/xhtml">Laboratory: Laboratoire Central Européenne, 1000 Brussels, Belgium</div>
            </text>
            <identifier>
               <system value="urn:oid:2.16.840.1.113883.2.51.999"/>
               <value value="8ea9fa28-1fcf-46dc-857b-7af2a2c2d7d0"/>
               <assigner>
                  <display value="HL7 Europe"/>
               </assigner>
            </identifier>
            <name>
               <family value="Ample"/>
               <given value="Ex"/>
               <prefix value="dr"/>
            </name>
            <address>
               <line value="Laboratoire Central Européenne"/>
               <line value="Boulevard du Jardin Botanique 32"/>
               <city value="Brussels"/>
               <postalCode value="1000"/>
               <country value="Belgium"/>
            </address>
         </Practitioner>
      </resource>
   </entry>
</Bundle>