{
  "resourceType": "Bundle",
  "id": "44121d4b-65cf-40e0-ae8e-160dc0f507fd",
  "meta": {
    "profile": [
      "http://hl7.eu/fhir/laboratory/StructureDefinition/Bundle-eu-lab"
    ]
  },
  "identifier": {
    "assigner": {
      "display": "HL7 Europe"
    },
    "system": "urn:oid:2.16.840.1.113883.2.51.999",
    "value": "413a8cc4-fd88-4698-b31f-721df9fb9e26"
  },
  "entry": [
    {
      "fullUrl": "urn:uuid:3d51cd98-7783-44b6-845d-24fbb1370e4a",
      "resource": {
        "resourceType": "Composition",
        "id": "3d51cd98-7783-44b6-845d-24fbb1370e4a",
        "meta": {
          "profile": [
            "http://hl7.eu/fhir/laboratory/StructureDefinition/Composition-eu-lab"
          ]
        },
        "identifier": {
          "assigner": {
            "display": "HL7 Europe"
          },
          "system": "urn:oid:2.16.840.1.113883.2.51.999",
          "value": "88ef8aa7-33b6-43f0-be76-373d7c6731b5"
        },
        "author": [
          {
            "reference": "urn:uuid:7afc8102-c9ae-4f26-8a5b-c60879faf6eb"
          }
        ],
        "category": [
          {
            "coding": [
              {
                "code": "26436-6",
                "system": "http://loinc.org",
                "display": "Laboratory studies (set)"
              }
            ]
          }
        ],
        "type": {
          "coding": [
            {
              "code": "11502-2",
              "system": "http://loinc.org",
              "display": "Laboratory report"
            }
          ],
          "text": "Laboratory Report"
        },
        "section": [
          {
            "code": {
              "coding": [
                {
                  "code": "26436-6",
                  "system": "http://loinc.org",
                  "display": "Laboratory studies (set)"
                }
              ],
              "text": "Laboratory studies"
            },
            "section": [
              {
                "code": {
                  "coding": [
                    {
                      "code": "$18719-5",
                      "system": "http://loinc.org",
                      "display": "Chemistry studies (set)"
                    }
                  ],
                  "text": "Chemistry"
                },
                "entry": [
                  {
                    "reference": "urn:uuid:4facf4b6-e52e-439d-9322-7b5fe90f49cb"
                  },
                  {
                    "reference": "urn:uuid:9c4f4288-77fb-4a89-b1cd-f5901959e68d"
                  },
                  {
                    "reference": "urn:uuid:54a6cd6c-9bbb-4534-82ad-1ec85755d79f"
                  },
                  {
                    "reference": "urn:uuid:818353d8-56a1-4add-8bc5-fd74e93d5776"
                  },
                  {
                    "reference": "urn:uuid:da3d1e4d-3dbe-41c0-8d88-9efbbb7d9115"
                  },
                  {
                    "reference": "urn:uuid:7de35153-1c54-49f2-8291-8909ac152b21"
                  },
                  {
                    "reference": "urn:uuid:94b17894-ef32-4a31-a581-4194fa80919d"
                  },
                  {
                    "reference": "urn:uuid:96629470-b0df-4cd2-b364-fa63c7428ffa"
                  },
                  {
                    "reference": "urn:uuid:0f3be150-6d27-49c1-b008-4c23dc6eee4f"
                  },
                  {
                    "reference": "urn:uuid:eea7ad4d-b45f-42fb-a0cf-4b8090c4f9a0"
                  },
                  {
                    "reference": "urn:uuid:1948ef10-9dcc-4280-8481-641ee3687067"
                  },
                  {
                    "reference": "urn:uuid:ced79ed4-699e-41fe-921c-a5e353e287b1"
                  },
                  {
                    "reference": "urn:uuid:8cc1cf6b-53db-4354-be61-1ac532e7d5cc"
                  },
                  {
                    "reference": "urn:uuid:3b1514a5-bfba-4200-96bb-abbecd016924"
                  },
                  {
                    "reference": "urn:uuid:4075f7e6-b6a6-498b-9b37-e4dc034189d6"
                  },
                  {
                    "reference": "urn:uuid:20bcc223-3654-4eb9-bdc4-9880b307b300"
                  },
                  {
                    "reference": "urn:uuid:507125fb-8f42-41db-858e-8a4ce87afdc4"
                  },
                  {
                    "reference": "urn:uuid:833ab719-6428-4125-9559-210a8320663f"
                  }
                ],
                "text": {
                  "status": "generated",
                  "div": "<div xmlns=\"http://www.w3.org/1999/xhtml\"><h3>Chemistry</h3><table class=\"hl7__eu__lab__report\"><thead><tr><th>Test</th><th>03-NOV-2024</th><th>Reference&#xA0;Range</th><th>Unit</th></tr></thead><tbody><tr><td>Glucose [Mass/volume] in Serum or Plasma</td><td>87.4</td><td>70 - 99</td><td>mg/dL</td></tr><tr><td>Urea nitrogen [Mass/volume] in Serum or Plasma</td><td>10.9</td><td>7 - 20</td><td>mg/dL</td></tr><tr><td>Creatinine [Mass/volume] in Serum or Plasma</td><td><strong>2.1 H</strong></td><td>0.6 - 1.3</td><td>mg/dL</td></tr><tr><td>Calcium [Mass/volume] in Serum or Plasma</td><td>9.2</td><td>8.6 - 10.4</td><td>mg/dL</td></tr><tr><td>Sodium [Moles/volume] in Serum or Plasma</td><td>139.5</td><td>135 - 145</td><td>mmol/L</td></tr><tr><td>Potassium [Moles/volume] in Serum or Plasma</td><td>4.4</td><td>3.5 - 5</td><td>mmol/L</td></tr><tr><td>Chloride [Moles/volume] in Serum or Plasma</td><td><strong>108.6 H</strong></td><td>98 - 106</td><td>mmol/L</td></tr><tr><td>Carbon dioxide, total [Moles/volume] in Serum or Plasma</td><td>26.0</td><td>22 - 29</td><td>mmol/L</td></tr><tr><td>Ketones [Presence] in Urine by Test strip</td><td>Urine ketone test = +</td><td></td><td></td></tr><tr><td>Hemoglobin A1c/Hemoglobin.total in Blood</td><td><strong>3.4 L</strong></td><td>4 - 6</td><td>%</td></tr><tr><td>Glucose [Mass/volume] in Blood</td><td>87.4</td><td>70 - 140</td><td>mg/dL</td></tr><tr><td>Urea nitrogen [Mass/volume] in Blood</td><td>10.9</td><td>7 - 25</td><td>mg/dL</td></tr><tr><td>Creatinine [Mass/volume] in Blood</td><td><strong>1.9 H</strong></td><td>0.6 - 1.1</td><td>mg/dL</td></tr><tr><td>Calcium [Mass/volume] in Blood</td><td>9.2</td><td>8.6 - 10.4</td><td>mg/dL</td></tr><tr><td>Sodium [Moles/volume] in Blood</td><td>139.5</td><td>135 - 145</td><td>mmol/L</td></tr><tr><td>Potassium [Moles/volume] in Blood</td><td>4.4</td><td>3.5 - 5.1</td><td>mmol/L</td></tr><tr><td>Chloride [Moles/volume] in Blood</td><td>108.6</td><td>98 - 110</td><td>mmol/L</td></tr><tr><td>Carbon dioxide, total [Moles/volume] in Blood</td><td>26.0</td><td>22 - 29</td><td>mmol/L</td></tr></tbody></table></div>"
                },
                "title": "Chemistry"
              },
              {
                "code": {
                  "coding": [
                    {
                      "code": "$18729-4",
                      "system": "http://loinc.org",
                      "display": "Urinalysis studies (set)"
                    }
                  ],
                  "text": "Urinalysis"
                },
                "entry": [
                  {
                    "reference": "urn:uuid:ce01f536-da5e-430c-a272-469010239b23"
                  },
                  {
                    "reference": "urn:uuid:2c020a81-dca4-40ae-9076-48dcf32beb2d"
                  },
                  {
                    "reference": "urn:uuid:705c59c8-f70f-4c2c-9ee0-9dce23caf8f2"
                  },
                  {
                    "reference": "urn:uuid:aa36db20-b321-452b-aaf8-6cd92366dcab"
                  },
                  {
                    "reference": "urn:uuid:01c6e5b2-1a80-4f00-a668-b9dec2239725"
                  },
                  {
                    "reference": "urn:uuid:c57da445-491a-4264-8c7f-75aa4801ac39"
                  },
                  {
                    "reference": "urn:uuid:44fdba10-b0ba-4d7b-9b98-2a436a6ed699"
                  },
                  {
                    "reference": "urn:uuid:58b99cdf-db7e-49bd-8c61-e08d781abd48"
                  },
                  {
                    "reference": "urn:uuid:fb655e82-ff8d-4821-8c85-6b0c9df51083"
                  },
                  {
                    "reference": "urn:uuid:067a4a43-afa6-4de4-aef6-67f9f5e99dec"
                  },
                  {
                    "reference": "urn:uuid:20aebb85-83fd-4b1d-a5f0-7998dbae01cf"
                  },
                  {
                    "reference": "urn:uuid:c74f4766-8ae7-47cd-9a02-7ee9fcefcb46"
                  }
                ],
                "text": {
                  "status": "generated",
                  "div": "<div xmlns=\"http://www.w3.org/1999/xhtml\"><h3>Urinalysis</h3><table class=\"hl7__eu__lab__report\"><thead><tr><th>Test</th><th>03-NOV-2024</th><th>Reference&#xA0;Range</th><th>Unit</th></tr></thead><tbody><tr><td>Glucose [Mass/volume] in Urine by Test strip</td><td><strong>2.0 H</strong></td><td>0 - 0.8</td><td>mg/dL</td></tr><tr><td>Glucose [Presence] in Urine by Test strip</td><td>++</td><td></td><td></td></tr><tr><td>Bilirubin.total [Mass/volume] in Urine by Test strip</td><td>0.7</td><td>0 - 1</td><td>mg/dL</td></tr><tr><td>Bilirubin.total [Presence] in Urine by Test strip</td><td>Finding of bilirubin in urine</td><td></td><td></td></tr><tr><td>Ketones [Mass/volume] in Urine by Test strip</td><td><strong>12.6 H</strong></td><td>0 - 4</td><td>mg/dL</td></tr><tr><td>Specific gravity of Urine by Test strip</td><td><strong>1.0 L</strong></td><td>1.005 - 1.03</td><td>{nominal}</td></tr><tr><td>pH of Urine by Test strip</td><td>6.5</td><td>4.5 - 7</td><td>pH</td></tr><tr><td>Protein [Mass/volume] in Urine by Test strip</td><td><strong>288.9 H</strong></td><td>0 - 145</td><td>mg/dL</td></tr><tr><td>Protein [Presence] in Urine by Test strip</td><td>Urine protein test = ++</td><td></td><td></td></tr><tr><td>Nitrite [Presence] in Urine by Test strip</td><td>Urine nitrite negative</td><td></td><td></td></tr><tr><td>Hemoglobin [Presence] in Urine by Test strip</td><td>Urine blood test = negative</td><td></td><td></td></tr><tr><td>Leukocyte esterase [Presence] in Urine by Test strip</td><td>Urine leukocyte test negative</td><td></td><td></td></tr></tbody></table></div>"
                },
                "title": "Urinalysis"
              },
              {
                "code": {
                  "coding": [
                    {
                      "code": "$LP7846-1",
                      "system": "http://loinc.org",
                      "display": "Specimen information"
                    }
                  ],
                  "text": "Specimen information"
                },
                "entry": [
                  {
                    "reference": "urn:uuid:bca6f5d5-83d2-457f-bc07-fc61d5196707"
                  },
                  {
                    "reference": "urn:uuid:041c6af9-1830-4101-be60-749b11d2d113"
                  },
                  {
                    "reference": "urn:uuid:f12d68e4-86bf-438d-a48a-ae1edd61d9a9"
                  },
                  {
                    "reference": "urn:uuid:56cbea13-e36e-45dc-8aba-4b789ffc7344"
                  }
                ],
                "text": {
                  "status": "generated",
                  "div": "<div xmlns=\"http://www.w3.org/1999/xhtml\"><h3>Specimen information</h3><table class=\"hl7__eu__lab__report\"><thead><tr><th>Test</th><th>03-NOV-2024</th><th>Specimen</th><th></th></tr></thead><tbody><tr><td>Appearance of Urine</td><td>Cloudy urine</td><td>Urine</td><td></td></tr><tr><td>Odor of Urine</td><td>Urine smell ammoniacal</td><td>Urine</td><td></td></tr><tr><td>Clarity of Urine</td><td>Translucent</td><td>Urine</td><td></td></tr><tr><td>Color of Urine</td><td>Brown color</td><td>Urine</td><td></td></tr></tbody></table></div>"
                },
                "title": "Specimen information"
              }
            ],
            "title": "Laboratory Report"
          },
          {
            "text": {
              "status": "generated",
              "div": "<div xmlns=\"http://www.w3.org/1999/xhtml\"><h3>Annotation</h3><table class=\"hl7__eu__lab__report\"><tr><th>Conclusion and Recommendations based on this report and previous findings known to us</th></tr><tr><td>The patient shows elevated creatinine, proteinuria, glucosuria, ketonuria, and abnormal urine appearance (cloudy, brown, ammoniacal), suggesting impaired renal function with possible nephrotic features and glycosuria despite normal blood glucose and low HbA1c. These findings may indicate acute or chronic kidney disease, possibly with tubular dysfunction. Further nephrological evaluation and clinical correlation are recommended.</td></tr></table></div>"
            },
            "code": {
              "coding": [
                {
                  "system": "http://loinc.org",
                  "code": "48767-8",
                  "display": "Annotation comment"
                }
              ]
            },
            "title": "Annotation comment"
          }
        ],
        "status": "final",
        "subject": {
          "reference": "urn:uuid:8ee66f6b-e7c7-4de2-9b28-7aa71e08c025",
          "display": "Iva Kratochvílová"
        },
        "date": "2024-11-03T17:10:29Z",
        "title": "Laboratory Report",
        "confidentiality": "N"
      }
    },
    {
      "fullUrl": "urn:uuid:0d6e9091-cdad-476d-8cf0-7057b3dfb709",
      "resource": {
        "resourceType": "DiagnosticReport",
        "id": "0d6e9091-cdad-476d-8cf0-7057b3dfb709",
        "meta": {
          "profile": [
            "http://hl7.eu/fhir/laboratory/StructureDefinition/DiagnosticReport-eu-lab"
          ]
        },
        "identifier": [
          {
            "assigner": {
              "display": "HL7 Europe"
            },
            "system": "urn:oid:2.16.840.1.113883.2.51.999",
            "value": "266c8ed3-a46a-476e-a593-902a9928bcd8"
          }
        ],
        "extension": [
          {
            "url": "http://hl7.org/fhir/5.0/StructureDefinition/extension-DiagnosticReport.composition",
            "valueReference": {
              "reference": "urn:uuid:88ef8aa7-33b6-43f0-be76-373d7c6731b5"
            }
          }
        ],
        "category": [
          {
            "coding": [
              {
                "code": "26436-6",
                "system": "http://loinc.org",
                "display": "Laboratory studies (set)"
              }
            ]
          }
        ],
        "specimen": [
          {
            "reference": "urn:uuid:ac6b7462-1a33-401a-9ea6-c9531473c3eb"
          },
          {
            "reference": "urn:uuid:d6df4b32-2152-4d87-8407-8105b4ca3ac5"
          },
          {
            "reference": "urn:uuid:595e2ac6-5e5a-4699-b317-81c678560b92"
          }
        ],
        "result": [
          {
            "reference": "urn:uuid:4facf4b6-e52e-439d-9322-7b5fe90f49cb"
          },
          {
            "reference": "urn:uuid:9c4f4288-77fb-4a89-b1cd-f5901959e68d"
          },
          {
            "reference": "urn:uuid:54a6cd6c-9bbb-4534-82ad-1ec85755d79f"
          },
          {
            "reference": "urn:uuid:818353d8-56a1-4add-8bc5-fd74e93d5776"
          },
          {
            "reference": "urn:uuid:da3d1e4d-3dbe-41c0-8d88-9efbbb7d9115"
          },
          {
            "reference": "urn:uuid:7de35153-1c54-49f2-8291-8909ac152b21"
          },
          {
            "reference": "urn:uuid:94b17894-ef32-4a31-a581-4194fa80919d"
          },
          {
            "reference": "urn:uuid:96629470-b0df-4cd2-b364-fa63c7428ffa"
          },
          {
            "reference": "urn:uuid:bca6f5d5-83d2-457f-bc07-fc61d5196707"
          },
          {
            "reference": "urn:uuid:041c6af9-1830-4101-be60-749b11d2d113"
          },
          {
            "reference": "urn:uuid:f12d68e4-86bf-438d-a48a-ae1edd61d9a9"
          },
          {
            "reference": "urn:uuid:56cbea13-e36e-45dc-8aba-4b789ffc7344"
          },
          {
            "reference": "urn:uuid:ce01f536-da5e-430c-a272-469010239b23"
          },
          {
            "reference": "urn:uuid:2c020a81-dca4-40ae-9076-48dcf32beb2d"
          },
          {
            "reference": "urn:uuid:705c59c8-f70f-4c2c-9ee0-9dce23caf8f2"
          },
          {
            "reference": "urn:uuid:aa36db20-b321-452b-aaf8-6cd92366dcab"
          },
          {
            "reference": "urn:uuid:01c6e5b2-1a80-4f00-a668-b9dec2239725"
          },
          {
            "reference": "urn:uuid:0f3be150-6d27-49c1-b008-4c23dc6eee4f"
          },
          {
            "reference": "urn:uuid:c57da445-491a-4264-8c7f-75aa4801ac39"
          },
          {
            "reference": "urn:uuid:44fdba10-b0ba-4d7b-9b98-2a436a6ed699"
          },
          {
            "reference": "urn:uuid:58b99cdf-db7e-49bd-8c61-e08d781abd48"
          },
          {
            "reference": "urn:uuid:fb655e82-ff8d-4821-8c85-6b0c9df51083"
          },
          {
            "reference": "urn:uuid:067a4a43-afa6-4de4-aef6-67f9f5e99dec"
          },
          {
            "reference": "urn:uuid:20aebb85-83fd-4b1d-a5f0-7998dbae01cf"
          },
          {
            "reference": "urn:uuid:c74f4766-8ae7-47cd-9a02-7ee9fcefcb46"
          },
          {
            "reference": "urn:uuid:eea7ad4d-b45f-42fb-a0cf-4b8090c4f9a0"
          },
          {
            "reference": "urn:uuid:1948ef10-9dcc-4280-8481-641ee3687067"
          },
          {
            "reference": "urn:uuid:ced79ed4-699e-41fe-921c-a5e353e287b1"
          },
          {
            "reference": "urn:uuid:8cc1cf6b-53db-4354-be61-1ac532e7d5cc"
          },
          {
            "reference": "urn:uuid:3b1514a5-bfba-4200-96bb-abbecd016924"
          },
          {
            "reference": "urn:uuid:4075f7e6-b6a6-498b-9b37-e4dc034189d6"
          },
          {
            "reference": "urn:uuid:20bcc223-3654-4eb9-bdc4-9880b307b300"
          },
          {
            "reference": "urn:uuid:507125fb-8f42-41db-858e-8a4ce87afdc4"
          },
          {
            "reference": "urn:uuid:833ab719-6428-4125-9559-210a8320663f"
          }
        ],
        "status": "registered",
        "code": {
          "coding": [
            {
              "code": "11502-2",
              "system": "http://loinc.org",
              "display": "Laboratory report"
            }
          ]
        },
        "subject": {
          "reference": "urn:uuid:8ee66f6b-e7c7-4de2-9b28-7aa71e08c025",
          "display": "Iva Kratochvílová"
        }
      }
    },
    {
      "fullUrl": "urn:uuid:8ee66f6b-e7c7-4de2-9b28-7aa71e08c025",
      "resource": {
        "resourceType": "Patient",
        "id": "8ee66f6b-e7c7-4de2-9b28-7aa71e08c025",
        "meta": {
          "security": [
            {
              "system": "http://terminology.hl7.org/CodeSystem/v3-ActReason",
              "code": "HTEST"
            },
            {
              "system": "http://terminology.hl7.org/CodeSystem/v3-ActReason",
              "code": "TRAIN"
            }
          ],
          "tag": [
            {
              "system": "https://synderai.net/fhir/CodeSystem/tags",
              "code": "synthetic",
              "display": "SYNDERAI Synthetic data"
            }
          ],
          "profile": [
            "http://hl7.eu/fhir/base/StructureDefinition/patient-eu-core"
          ]
        },
        "identifier": [
          {
            "type": {
              "coding": [
                {
                  "code": "PT",
                  "system": "http://terminology.hl7.org/CodeSystem/v2-0203"
                }
              ]
            },
            "system": "http://ec.europa.eu/identifier/eci",
            "value": "4380-389488-0"
          },
          {
            "type": {
              "coding": [
                {
                  "code": "MR",
                  "system": "http://terminology.hl7.org/CodeSystem/v2-0203"
                }
              ]
            },
            "system": "http://local.setting.eu/identifier",
            "value": "f8f9ebdc-03dd-2fc0-819c-affa4ffd7f67"
          }
        ],
        "name": [
          {
            "family": "Kratochvílová"
          },
          {
            "given": [
              "Iva"
            ]
          },
          {
            "text": "Iva Kratochvílová"
          }
        ],
        "address": [
          {
            "line": [
              "Žofie Podlipské 4"
            ],
            "use": "home",
            "type": "physical",
            "postalCode": "27324",
            "city": "Postoloprty",
            "country": "Czechia"
          }
        ],
        "telecom": [
          {
            "system": "phone",
            "value": "00420 607 985 072"
          }
        ],
        "extension": [
          {
            "url": "http://hl7.org/fhir/StructureDefinition/patient-nationality",
            "valueCodeableConcept": {
              "coding": [
                {
                  "code": "CZ",
                  "system": "http://hl7.org/fhir/ValueSet/country"
                }
              ]
            }
          }
        ],
        "text": {
          "status": "generated",
          "div": "<div xmlns=\"http://www.w3.org/1999/xhtml\"><table class=\"hl7__ips\"><tr><td>Iva Kratochvílová</td><td>female</td><td>17-Sep-1964</td></tr></table></div>"
        },
        "gender": "female",
        "birthDate": "1964-09-17"
      }
    },
    {
      "fullUrl": "urn:uuid:bb100bbd-2176-4f15-be48-dd4c20b1ce7c",
      "resource": {
        "resourceType": "ServiceRequest",
        "id": "bb100bbd-2176-4f15-be48-dd4c20b1ce7c",
        "meta": {
          "profile": [
            "http://hl7.eu/fhir/laboratory/StructureDefinition/ServiceRequest-eu-lab"
          ]
        },
        "identifier": [
          {
            "system": "http://example.org",
            "value": "9658af24-3fed-4edb-9be4-952c0f23b75c"
          }
        ],
        "specimen": [
          {
            "reference": "urn:uuid:ac6b7462-1a33-401a-9ea6-c9531473c3eb"
          },
          {
            "reference": "urn:uuid:d6df4b32-2152-4d87-8407-8105b4ca3ac5"
          },
          {
            "reference": "urn:uuid:595e2ac6-5e5a-4699-b317-81c678560b92"
          }
        ],
        "reasonCode": [
          {
            "coding": [
              {
                "code": "431856006",
                "system": "http://snomed.info/sct",
                "display": "Chronic kidney disease stage 2"
              }
            ]
          },
          {
            "coding": [
              {
                "code": "431855005",
                "system": "http://snomed.info/sct",
                "display": "Chronic kidney disease stage 1"
              }
            ]
          },
          {
            "coding": [
              {
                "code": "237602007",
                "system": "http://snomed.info/sct",
                "display": "Metabolic syndrome X"
              }
            ]
          },
          {
            "coding": [
              {
                "code": "91302008",
                "system": "http://snomed.info/sct",
                "display": "Sepsis"
              }
            ]
          },
          {
            "coding": [
              {
                "code": "271737000",
                "system": "http://snomed.info/sct",
                "display": "Anemia"
              }
            ]
          },
          {
            "coding": [
              {
                "code": "15777000",
                "system": "http://snomed.info/sct",
                "display": "Prediabetes"
              }
            ]
          },
          {
            "coding": [
              {
                "code": "157141000119108",
                "system": "http://snomed.info/sct",
                "display": "Proteinuria due to type 2 diabetes mellitus"
              }
            ]
          },
          {
            "coding": [
              {
                "code": "90781000119102",
                "system": "http://snomed.info/sct",
                "display": "Microalbuminuria due to type 2 diabetes mellitus"
              }
            ]
          },
          {
            "coding": [
              {
                "code": "239872002",
                "system": "http://snomed.info/sct",
                "display": "Osteoarthritis of hip"
              }
            ]
          },
          {
            "coding": [
              {
                "code": "40055000",
                "system": "http://snomed.info/sct",
                "display": "Chronic sinusitis"
              }
            ]
          },
          {
            "coding": [
              {
                "code": "127013003",
                "system": "http://snomed.info/sct",
                "display": "Disorder of kidney due to diabetes mellitus"
              }
            ]
          },
          {
            "coding": [
              {
                "code": "59621000",
                "system": "http://snomed.info/sct",
                "display": "Essential hypertension"
              }
            ]
          }
        ],
        "status": "active",
        "intent": "order",
        "code": {
          "coding": [
            {
              "code": "108252007",
              "system": "http://snomed.info/sct",
              "display": "Laboratory procedure"
            }
          ]
        },
        "subject": {
          "reference": "urn:uuid:8ee66f6b-e7c7-4de2-9b28-7aa71e08c025",
          "display": "Iva Kratochvílová"
        },
        "requester": {
          "reference": "urn:uuid:b3900404-2075-45cb-aee8-769c7552898c"
        }
      }
    },
    {
      "fullUrl": "urn:uuid:b3900404-2075-45cb-aee8-769c7552898c",
      "resource": {
        "resourceType": "PractitionerRole",
        "id": "b3900404-2075-45cb-aee8-769c7552898c",
        "meta": {
          "profile": [
            "http://hl7.eu/fhir/base/StructureDefinition/practitionerRole-eu"
          ]
        },
        "text": {
          "status": "generated",
          "div": "<div xmlns=\"http://www.w3.org/1999/xhtml\">Provider Role Id: b3900404-2075-45cb-aee8-769c7552898c</div>"
        },
        "organization": {
          "reference": "urn:uuid:83e6eba7-4317-4820-96d7-a2424b2e75ca"
        }
      }
    },
    {
      "fullUrl": "urn:uuid:83e6eba7-4317-4820-96d7-a2424b2e75ca",
      "resource": {
        "resourceType": "Organization",
        "id": "83e6eba7-4317-4820-96d7-a2424b2e75ca",
        "meta": {
          "profile": [
            "http://hl7.eu/fhir/base/StructureDefinition/organization-eu"
          ]
        },
        "identifier": [
          {
            "assigner": {
              "display": "HL7 Europe"
            },
            "system": "urn:oid:2.16.840.1.113883.2.51.999",
            "value": "f8954bb7-9b8d-435f-aa53-5228158f397a"
          }
        ],
        "address": [
          {
            "city": "Kadaň",
            "postalCode": "432 01",
            "country": "Czechia"
          }
        ],
        "text": {
          "status": "generated",
          "div": "<div xmlns=\"http://www.w3.org/1999/xhtml\">Provider Organization: Nemocnice s poliklinikou Kadaň</div>"
        },
        "name": "Nemocnice s poliklinikou Kadaň"
      }
    },
    {
      "fullUrl": "urn:uuid:ac6b7462-1a33-401a-9ea6-c9531473c3eb",
      "resource": {
        "resourceType": "Specimen",
        "id": "ac6b7462-1a33-401a-9ea6-c9531473c3eb",
        "meta": {
          "profile": [
            "http://hl7.eu/fhir/laboratory/StructureDefinition/Specimen-eu-lab"
          ]
        },
        "collection": {
          "collectedDateTime": "2024-11-03"
        },
        "text": {
          "status": "generated",
          "div": "<div xmlns=\"http://www.w3.org/1999/xhtml\"><table class=\"hl7__eu__lab__report\"><tr><th>Specimen</th><th>Collection Date</th></tr><tr><td>Acellular blood (serum or plasma) specimen</td><td><span class=\"nb\">03-Nov-2024</span></td></tr></table></div>"
        },
        "type": {
          "coding": [
            {
              "code": "122592007",
              "system": "http://snomed.info/sct",
              "display": "Acellular blood (serum or plasma) specimen"
            }
          ]
        }
      }
    },
    {
      "fullUrl": "urn:uuid:d6df4b32-2152-4d87-8407-8105b4ca3ac5",
      "resource": {
        "resourceType": "Specimen",
        "id": "d6df4b32-2152-4d87-8407-8105b4ca3ac5",
        "meta": {
          "profile": [
            "http://hl7.eu/fhir/laboratory/StructureDefinition/Specimen-eu-lab"
          ]
        },
        "collection": {
          "collectedDateTime": "2024-11-03"
        },
        "text": {
          "status": "generated",
          "div": "<div xmlns=\"http://www.w3.org/1999/xhtml\"><table class=\"hl7__eu__lab__report\"><tr><th>Specimen</th><th>Collection Date</th></tr><tr><td>Urine specimen</td><td><span class=\"nb\">03-Nov-2024</span></td></tr></table></div>"
        },
        "type": {
          "coding": [
            {
              "code": "122575003",
              "system": "http://snomed.info/sct",
              "display": "Urine specimen"
            }
          ]
        }
      }
    },
    {
      "fullUrl": "urn:uuid:595e2ac6-5e5a-4699-b317-81c678560b92",
      "resource": {
        "resourceType": "Specimen",
        "id": "595e2ac6-5e5a-4699-b317-81c678560b92",
        "meta": {
          "profile": [
            "http://hl7.eu/fhir/laboratory/StructureDefinition/Specimen-eu-lab"
          ]
        },
        "collection": {
          "collectedDateTime": "2024-11-03"
        },
        "text": {
          "status": "generated",
          "div": "<div xmlns=\"http://www.w3.org/1999/xhtml\"><table class=\"hl7__eu__lab__report\"><tr><th>Specimen</th><th>Collection Date</th></tr><tr><td>Whole blood specimen (specimen)</td><td><span class=\"nb\">03-Nov-2024</span></td></tr></table></div>"
        },
        "type": {
          "coding": [
            {
              "code": "258580003",
              "system": "http://snomed.info/sct",
              "display": "Whole blood specimen (specimen)"
            }
          ]
        }
      }
    },
    {
      "fullUrl": "urn:uuid:4facf4b6-e52e-439d-9322-7b5fe90f49cb",
      "resource": {
        "resourceType": "Observation",
        "id": "4facf4b6-e52e-439d-9322-7b5fe90f49cb",
        "meta": {
          "profile": [
            "http://hl7.eu/fhir/laboratory/StructureDefinition/Observation-resultslab-eu-lab"
          ]
        },
        "performer": [
          {
            "display": "The Central European Lab"
          }
        ],
        "category": [
          {
            "coding": [
              {
                "system": "http://terminology.hl7.org/CodeSystem/observation-category",
                "code": "laboratory"
              }
            ]
          }
        ],
        "code": {
          "coding": [
            {
              "code": "2345-7",
              "system": "http://loinc.org",
              "display": "Glucose [Mass/volume] in Serum or Plasma"
            }
          ],
          "text": "Glucose [Mass/volume] in Serum or Plasma"
        },
        "valueQuantity": {
          "system": "http://unitsofmeasure.org",
          "value": 87.4,
          "unit": "mg/dL",
          "code": "mg/dL"
        },
        "referenceRange": [
          {
            "low": {
              "value": 70,
              "code": "mg/dL",
              "system": "http://unitsofmeasure.org"
            }
          },
          {
            "high": {
              "value": 99,
              "code": "mg/dL",
              "system": "http://unitsofmeasure.org"
            }
          }
        ],
        "text": {
          "status": "generated",
          "div": "<div xmlns=\"http://www.w3.org/1999/xhtml\"><table class=\"hl7__eu__lab__report\"><tr><th>Test</th><th>03-Nov-2024</th><th>Reference&#xA0;Range</th><th>Unit</th></tr><tr><td>Glucose [Mass/volume] in Serum or Plasma</td><td>87.4</td><td>70 - 99</td><td></td><td>mg/dL</td></tr></table></div>"
        },
        "status": "final",
        "subject": {
          "reference": "urn:uuid:8ee66f6b-e7c7-4de2-9b28-7aa71e08c025",
          "display": "Iva Kratochvílová"
        },
        "effectiveDateTime": "2024-11-03T16:10:29Z",
        "specimen": {
          "reference": "urn:uuid:ac6b7462-1a33-401a-9ea6-c9531473c3eb"
        }
      }
    },
    {
      "fullUrl": "urn:uuid:9c4f4288-77fb-4a89-b1cd-f5901959e68d",
      "resource": {
        "resourceType": "Observation",
        "id": "9c4f4288-77fb-4a89-b1cd-f5901959e68d",
        "meta": {
          "profile": [
            "http://hl7.eu/fhir/laboratory/StructureDefinition/Observation-resultslab-eu-lab"
          ]
        },
        "performer": [
          {
            "display": "The Central European Lab"
          }
        ],
        "category": [
          {
            "coding": [
              {
                "system": "http://terminology.hl7.org/CodeSystem/observation-category",
                "code": "laboratory"
              }
            ]
          }
        ],
        "code": {
          "coding": [
            {
              "code": "3094-0",
              "system": "http://loinc.org",
              "display": "Urea nitrogen [Mass/volume] in Serum or Plasma"
            }
          ],
          "text": "Urea nitrogen [Mass/volume] in Serum or Plasma"
        },
        "valueQuantity": {
          "system": "http://unitsofmeasure.org",
          "value": 10.9,
          "unit": "mg/dL",
          "code": "mg/dL"
        },
        "referenceRange": [
          {
            "low": {
              "value": 7,
              "code": "mg/dL",
              "system": "http://unitsofmeasure.org"
            }
          },
          {
            "high": {
              "value": 20,
              "code": "mg/dL",
              "system": "http://unitsofmeasure.org"
            }
          }
        ],
        "text": {
          "status": "generated",
          "div": "<div xmlns=\"http://www.w3.org/1999/xhtml\"><table class=\"hl7__eu__lab__report\"><tr><th>Test</th><th>03-Nov-2024</th><th>Reference&#xA0;Range</th><th>Unit</th></tr><tr><td>Urea nitrogen [Mass/volume] in Serum or Plasma</td><td>10.9</td><td>7 - 20</td><td></td><td>mg/dL</td></tr></table></div>"
        },
        "status": "final",
        "subject": {
          "reference": "urn:uuid:8ee66f6b-e7c7-4de2-9b28-7aa71e08c025",
          "display": "Iva Kratochvílová"
        },
        "effectiveDateTime": "2024-11-03T16:10:29Z",
        "specimen": {
          "reference": "urn:uuid:ac6b7462-1a33-401a-9ea6-c9531473c3eb"
        }
      }
    },
    {
      "fullUrl": "urn:uuid:54a6cd6c-9bbb-4534-82ad-1ec85755d79f",
      "resource": {
        "resourceType": "Observation",
        "id": "54a6cd6c-9bbb-4534-82ad-1ec85755d79f",
        "meta": {
          "profile": [
            "http://hl7.eu/fhir/laboratory/StructureDefinition/Observation-resultslab-eu-lab"
          ]
        },
        "performer": [
          {
            "display": "The Central European Lab"
          }
        ],
        "category": [
          {
            "coding": [
              {
                "system": "http://terminology.hl7.org/CodeSystem/observation-category",
                "code": "laboratory"
              }
            ]
          }
        ],
        "code": {
          "coding": [
            {
              "code": "2160-0",
              "system": "http://loinc.org",
              "display": "Creatinine [Mass/volume] in Serum or Plasma"
            }
          ],
          "text": "Creatinine [Mass/volume] in Serum or Plasma"
        },
        "valueQuantity": {
          "system": "http://unitsofmeasure.org",
          "value": 2.1,
          "unit": "mg/dL",
          "code": "mg/dL"
        },
        "referenceRange": [
          {
            "low": {
              "value": 0.6,
              "code": "mg/dL",
              "system": "http://unitsofmeasure.org"
            }
          },
          {
            "high": {
              "value": 1.3,
              "code": "mg/dL",
              "system": "http://unitsofmeasure.org"
            }
          }
        ],
        "interpretation": [
          {
            "coding": [
              {
                "code": "H",
                "system": "http://terminology.hl7.org/CodeSystem/v3-ObservationInterpretation",
                "display": "High"
              }
            ]
          }
        ],
        "text": {
          "status": "generated",
          "div": "<div xmlns=\"http://www.w3.org/1999/xhtml\"><table class=\"hl7__eu__lab__report\"><tr><th>Test</th><th>03-Nov-2024</th><th>Reference&#xA0;Range</th><th>Unit</th></tr><tr><td>Creatinine [Mass/volume] in Serum or Plasma</td><td>2.1</td><td>0.6 - 1.3</td><td>H</td><td>mg/dL</td></tr></table></div>"
        },
        "status": "final",
        "subject": {
          "reference": "urn:uuid:8ee66f6b-e7c7-4de2-9b28-7aa71e08c025",
          "display": "Iva Kratochvílová"
        },
        "effectiveDateTime": "2024-11-03T16:10:29Z",
        "specimen": {
          "reference": "urn:uuid:ac6b7462-1a33-401a-9ea6-c9531473c3eb"
        }
      }
    },
    {
      "fullUrl": "urn:uuid:818353d8-56a1-4add-8bc5-fd74e93d5776",
      "resource": {
        "resourceType": "Observation",
        "id": "818353d8-56a1-4add-8bc5-fd74e93d5776",
        "meta": {
          "profile": [
            "http://hl7.eu/fhir/laboratory/StructureDefinition/Observation-resultslab-eu-lab"
          ]
        },
        "performer": [
          {
            "display": "The Central European Lab"
          }
        ],
        "category": [
          {
            "coding": [
              {
                "system": "http://terminology.hl7.org/CodeSystem/observation-category",
                "code": "laboratory"
              }
            ]
          }
        ],
        "code": {
          "coding": [
            {
              "code": "17861-6",
              "system": "http://loinc.org",
              "display": "Calcium [Mass/volume] in Serum or Plasma"
            }
          ],
          "text": "Calcium [Mass/volume] in Serum or Plasma"
        },
        "valueQuantity": {
          "system": "http://unitsofmeasure.org",
          "value": 9.2,
          "unit": "mg/dL",
          "code": "mg/dL"
        },
        "referenceRange": [
          {
            "low": {
              "value": 8.6,
              "code": "mg/dL",
              "system": "http://unitsofmeasure.org"
            }
          },
          {
            "high": {
              "value": 10.4,
              "code": "mg/dL",
              "system": "http://unitsofmeasure.org"
            }
          }
        ],
        "text": {
          "status": "generated",
          "div": "<div xmlns=\"http://www.w3.org/1999/xhtml\"><table class=\"hl7__eu__lab__report\"><tr><th>Test</th><th>03-Nov-2024</th><th>Reference&#xA0;Range</th><th>Unit</th></tr><tr><td>Calcium [Mass/volume] in Serum or Plasma</td><td>9.2</td><td>8.6 - 10.4</td><td></td><td>mg/dL</td></tr></table></div>"
        },
        "status": "final",
        "subject": {
          "reference": "urn:uuid:8ee66f6b-e7c7-4de2-9b28-7aa71e08c025",
          "display": "Iva Kratochvílová"
        },
        "effectiveDateTime": "2024-11-03T16:10:29Z",
        "specimen": {
          "reference": "urn:uuid:ac6b7462-1a33-401a-9ea6-c9531473c3eb"
        }
      }
    },
    {
      "fullUrl": "urn:uuid:da3d1e4d-3dbe-41c0-8d88-9efbbb7d9115",
      "resource": {
        "resourceType": "Observation",
        "id": "da3d1e4d-3dbe-41c0-8d88-9efbbb7d9115",
        "meta": {
          "profile": [
            "http://hl7.eu/fhir/laboratory/StructureDefinition/Observation-resultslab-eu-lab"
          ]
        },
        "performer": [
          {
            "display": "The Central European Lab"
          }
        ],
        "category": [
          {
            "coding": [
              {
                "system": "http://terminology.hl7.org/CodeSystem/observation-category",
                "code": "laboratory"
              }
            ]
          }
        ],
        "code": {
          "coding": [
            {
              "code": "2951-2",
              "system": "http://loinc.org",
              "display": "Sodium [Moles/volume] in Serum or Plasma"
            }
          ],
          "text": "Sodium [Moles/volume] in Serum or Plasma"
        },
        "valueQuantity": {
          "system": "http://unitsofmeasure.org",
          "value": 139.5,
          "unit": "mmol/L",
          "code": "mmol/L"
        },
        "referenceRange": [
          {
            "low": {
              "value": 135,
              "code": "mmol/L",
              "system": "http://unitsofmeasure.org"
            }
          },
          {
            "high": {
              "value": 145,
              "code": "mmol/L",
              "system": "http://unitsofmeasure.org"
            }
          }
        ],
        "text": {
          "status": "generated",
          "div": "<div xmlns=\"http://www.w3.org/1999/xhtml\"><table class=\"hl7__eu__lab__report\"><tr><th>Test</th><th>03-Nov-2024</th><th>Reference&#xA0;Range</th><th>Unit</th></tr><tr><td>Sodium [Moles/volume] in Serum or Plasma</td><td>139.5</td><td>135 - 145</td><td></td><td>mmol/L</td></tr></table></div>"
        },
        "status": "final",
        "subject": {
          "reference": "urn:uuid:8ee66f6b-e7c7-4de2-9b28-7aa71e08c025",
          "display": "Iva Kratochvílová"
        },
        "effectiveDateTime": "2024-11-03T16:10:29Z",
        "specimen": {
          "reference": "urn:uuid:ac6b7462-1a33-401a-9ea6-c9531473c3eb"
        }
      }
    },
    {
      "fullUrl": "urn:uuid:7de35153-1c54-49f2-8291-8909ac152b21",
      "resource": {
        "resourceType": "Observation",
        "id": "7de35153-1c54-49f2-8291-8909ac152b21",
        "meta": {
          "profile": [
            "http://hl7.eu/fhir/laboratory/StructureDefinition/Observation-resultslab-eu-lab"
          ]
        },
        "performer": [
          {
            "display": "The Central European Lab"
          }
        ],
        "category": [
          {
            "coding": [
              {
                "system": "http://terminology.hl7.org/CodeSystem/observation-category",
                "code": "laboratory"
              }
            ]
          }
        ],
        "code": {
          "coding": [
            {
              "code": "2823-3",
              "system": "http://loinc.org",
              "display": "Potassium [Moles/volume] in Serum or Plasma"
            }
          ],
          "text": "Potassium [Moles/volume] in Serum or Plasma"
        },
        "valueQuantity": {
          "system": "http://unitsofmeasure.org",
          "value": 4.4,
          "unit": "mmol/L",
          "code": "mmol/L"
        },
        "referenceRange": [
          {
            "low": {
              "value": 3.5,
              "code": "mmol/L",
              "system": "http://unitsofmeasure.org"
            }
          },
          {
            "high": {
              "value": 5,
              "code": "mmol/L",
              "system": "http://unitsofmeasure.org"
            }
          }
        ],
        "text": {
          "status": "generated",
          "div": "<div xmlns=\"http://www.w3.org/1999/xhtml\"><table class=\"hl7__eu__lab__report\"><tr><th>Test</th><th>03-Nov-2024</th><th>Reference&#xA0;Range</th><th>Unit</th></tr><tr><td>Potassium [Moles/volume] in Serum or Plasma</td><td>4.4</td><td>3.5 - 5</td><td></td><td>mmol/L</td></tr></table></div>"
        },
        "status": "final",
        "subject": {
          "reference": "urn:uuid:8ee66f6b-e7c7-4de2-9b28-7aa71e08c025",
          "display": "Iva Kratochvílová"
        },
        "effectiveDateTime": "2024-11-03T16:10:29Z",
        "specimen": {
          "reference": "urn:uuid:ac6b7462-1a33-401a-9ea6-c9531473c3eb"
        }
      }
    },
    {
      "fullUrl": "urn:uuid:94b17894-ef32-4a31-a581-4194fa80919d",
      "resource": {
        "resourceType": "Observation",
        "id": "94b17894-ef32-4a31-a581-4194fa80919d",
        "meta": {
          "profile": [
            "http://hl7.eu/fhir/laboratory/StructureDefinition/Observation-resultslab-eu-lab"
          ]
        },
        "performer": [
          {
            "display": "The Central European Lab"
          }
        ],
        "category": [
          {
            "coding": [
              {
                "system": "http://terminology.hl7.org/CodeSystem/observation-category",
                "code": "laboratory"
              }
            ]
          }
        ],
        "code": {
          "coding": [
            {
              "code": "2075-0",
              "system": "http://loinc.org",
              "display": "Chloride [Moles/volume] in Serum or Plasma"
            }
          ],
          "text": "Chloride [Moles/volume] in Serum or Plasma"
        },
        "valueQuantity": {
          "system": "http://unitsofmeasure.org",
          "value": 108.6,
          "unit": "mmol/L",
          "code": "mmol/L"
        },
        "referenceRange": [
          {
            "low": {
              "value": 98,
              "code": "mmol/L",
              "system": "http://unitsofmeasure.org"
            }
          },
          {
            "high": {
              "value": 106,
              "code": "mmol/L",
              "system": "http://unitsofmeasure.org"
            }
          }
        ],
        "interpretation": [
          {
            "coding": [
              {
                "code": "H",
                "system": "http://terminology.hl7.org/CodeSystem/v3-ObservationInterpretation",
                "display": "High"
              }
            ]
          }
        ],
        "text": {
          "status": "generated",
          "div": "<div xmlns=\"http://www.w3.org/1999/xhtml\"><table class=\"hl7__eu__lab__report\"><tr><th>Test</th><th>03-Nov-2024</th><th>Reference&#xA0;Range</th><th>Unit</th></tr><tr><td>Chloride [Moles/volume] in Serum or Plasma</td><td>108.6</td><td>98 - 106</td><td>H</td><td>mmol/L</td></tr></table></div>"
        },
        "status": "final",
        "subject": {
          "reference": "urn:uuid:8ee66f6b-e7c7-4de2-9b28-7aa71e08c025",
          "display": "Iva Kratochvílová"
        },
        "effectiveDateTime": "2024-11-03T16:10:29Z",
        "specimen": {
          "reference": "urn:uuid:ac6b7462-1a33-401a-9ea6-c9531473c3eb"
        }
      }
    },
    {
      "fullUrl": "urn:uuid:96629470-b0df-4cd2-b364-fa63c7428ffa",
      "resource": {
        "resourceType": "Observation",
        "id": "96629470-b0df-4cd2-b364-fa63c7428ffa",
        "meta": {
          "profile": [
            "http://hl7.eu/fhir/laboratory/StructureDefinition/Observation-resultslab-eu-lab"
          ]
        },
        "performer": [
          {
            "display": "The Central European Lab"
          }
        ],
        "category": [
          {
            "coding": [
              {
                "system": "http://terminology.hl7.org/CodeSystem/observation-category",
                "code": "laboratory"
              }
            ]
          }
        ],
        "code": {
          "coding": [
            {
              "code": "2028-9",
              "system": "http://loinc.org",
              "display": "Carbon dioxide, total [Moles/volume] in Serum or Plasma"
            }
          ],
          "text": "Carbon dioxide, total [Moles/volume] in Serum or Plasma"
        },
        "valueQuantity": {
          "system": "http://unitsofmeasure.org",
          "value": 26,
          "unit": "mmol/L",
          "code": "mmol/L"
        },
        "referenceRange": [
          {
            "low": {
              "value": 22,
              "code": "mmol/L",
              "system": "http://unitsofmeasure.org"
            }
          },
          {
            "high": {
              "value": 29,
              "code": "mmol/L",
              "system": "http://unitsofmeasure.org"
            }
          }
        ],
        "text": {
          "status": "generated",
          "div": "<div xmlns=\"http://www.w3.org/1999/xhtml\"><table class=\"hl7__eu__lab__report\"><tr><th>Test</th><th>03-Nov-2024</th><th>Reference&#xA0;Range</th><th>Unit</th></tr><tr><td>Carbon dioxide, total [Moles/volume] in Serum or Plasma</td><td>26.0</td><td>22 - 29</td><td></td><td>mmol/L</td></tr></table></div>"
        },
        "status": "final",
        "subject": {
          "reference": "urn:uuid:8ee66f6b-e7c7-4de2-9b28-7aa71e08c025",
          "display": "Iva Kratochvílová"
        },
        "effectiveDateTime": "2024-11-03T16:10:29Z",
        "specimen": {
          "reference": "urn:uuid:ac6b7462-1a33-401a-9ea6-c9531473c3eb"
        }
      }
    },
    {
      "fullUrl": "urn:uuid:bca6f5d5-83d2-457f-bc07-fc61d5196707",
      "resource": {
        "resourceType": "Observation",
        "id": "bca6f5d5-83d2-457f-bc07-fc61d5196707",
        "meta": {
          "profile": [
            "http://hl7.eu/fhir/laboratory/StructureDefinition/Observation-resultslab-eu-lab"
          ]
        },
        "performer": [
          {
            "display": "The Central European Lab"
          }
        ],
        "category": [
          {
            "coding": [
              {
                "system": "http://terminology.hl7.org/CodeSystem/observation-category",
                "code": "laboratory"
              }
            ]
          }
        ],
        "code": {
          "coding": [
            {
              "code": "5767-9",
              "system": "http://loinc.org",
              "display": "Appearance of Urine"
            }
          ],
          "text": "Appearance of Urine"
        },
        "text": {
          "status": "generated",
          "div": "<div xmlns=\"http://www.w3.org/1999/xhtml\"><table class=\"hl7__eu__lab__report\"><tr><th>Test</th><th>03-Nov-2024</th><th>Reference&#xA0;Range</th><th>Unit</th></tr><tr><td>Appearance of Urine</td></tr></table></div>"
        },
        "status": "final",
        "subject": {
          "reference": "urn:uuid:8ee66f6b-e7c7-4de2-9b28-7aa71e08c025",
          "display": "Iva Kratochvílová"
        },
        "effectiveDateTime": "2024-11-03T16:10:29Z",
        "specimen": {
          "reference": "urn:uuid:d6df4b32-2152-4d87-8407-8105b4ca3ac5"
        }
      }
    },
    {
      "fullUrl": "urn:uuid:041c6af9-1830-4101-be60-749b11d2d113",
      "resource": {
        "resourceType": "Observation",
        "id": "041c6af9-1830-4101-be60-749b11d2d113",
        "meta": {
          "profile": [
            "http://hl7.eu/fhir/laboratory/StructureDefinition/Observation-resultslab-eu-lab"
          ]
        },
        "performer": [
          {
            "display": "The Central European Lab"
          }
        ],
        "category": [
          {
            "coding": [
              {
                "system": "http://terminology.hl7.org/CodeSystem/observation-category",
                "code": "laboratory"
              }
            ]
          }
        ],
        "code": {
          "coding": [
            {
              "code": "34533-0",
              "system": "http://loinc.org",
              "display": "Odor of Urine"
            }
          ],
          "text": "Odor of Urine"
        },
        "text": {
          "status": "generated",
          "div": "<div xmlns=\"http://www.w3.org/1999/xhtml\"><table class=\"hl7__eu__lab__report\"><tr><th>Test</th><th>03-Nov-2024</th><th>Reference&#xA0;Range</th><th>Unit</th></tr><tr><td>Odor of Urine</td></tr></table></div>"
        },
        "status": "final",
        "subject": {
          "reference": "urn:uuid:8ee66f6b-e7c7-4de2-9b28-7aa71e08c025",
          "display": "Iva Kratochvílová"
        },
        "effectiveDateTime": "2024-11-03T16:10:29Z",
        "specimen": {
          "reference": "urn:uuid:d6df4b32-2152-4d87-8407-8105b4ca3ac5"
        }
      }
    },
    {
      "fullUrl": "urn:uuid:f12d68e4-86bf-438d-a48a-ae1edd61d9a9",
      "resource": {
        "resourceType": "Observation",
        "id": "f12d68e4-86bf-438d-a48a-ae1edd61d9a9",
        "meta": {
          "profile": [
            "http://hl7.eu/fhir/laboratory/StructureDefinition/Observation-resultslab-eu-lab"
          ]
        },
        "performer": [
          {
            "display": "The Central European Lab"
          }
        ],
        "category": [
          {
            "coding": [
              {
                "system": "http://terminology.hl7.org/CodeSystem/observation-category",
                "code": "laboratory"
              }
            ]
          }
        ],
        "code": {
          "coding": [
            {
              "code": "32167-9",
              "system": "http://loinc.org",
              "display": "Clarity of Urine"
            }
          ],
          "text": "Clarity of Urine"
        },
        "text": {
          "status": "generated",
          "div": "<div xmlns=\"http://www.w3.org/1999/xhtml\"><table class=\"hl7__eu__lab__report\"><tr><th>Test</th><th>03-Nov-2024</th><th>Reference&#xA0;Range</th><th>Unit</th></tr><tr><td>Clarity of Urine</td></tr></table></div>"
        },
        "status": "final",
        "subject": {
          "reference": "urn:uuid:8ee66f6b-e7c7-4de2-9b28-7aa71e08c025",
          "display": "Iva Kratochvílová"
        },
        "effectiveDateTime": "2024-11-03T16:10:29Z",
        "specimen": {
          "reference": "urn:uuid:d6df4b32-2152-4d87-8407-8105b4ca3ac5"
        }
      }
    },
    {
      "fullUrl": "urn:uuid:56cbea13-e36e-45dc-8aba-4b789ffc7344",
      "resource": {
        "resourceType": "Observation",
        "id": "56cbea13-e36e-45dc-8aba-4b789ffc7344",
        "meta": {
          "profile": [
            "http://hl7.eu/fhir/laboratory/StructureDefinition/Observation-resultslab-eu-lab"
          ]
        },
        "performer": [
          {
            "display": "The Central European Lab"
          }
        ],
        "category": [
          {
            "coding": [
              {
                "system": "http://terminology.hl7.org/CodeSystem/observation-category",
                "code": "laboratory"
              }
            ]
          }
        ],
        "code": {
          "coding": [
            {
              "code": "5778-6",
              "system": "http://loinc.org",
              "display": "Color of Urine"
            }
          ],
          "text": "Color of Urine"
        },
        "text": {
          "status": "generated",
          "div": "<div xmlns=\"http://www.w3.org/1999/xhtml\"><table class=\"hl7__eu__lab__report\"><tr><th>Test</th><th>03-Nov-2024</th><th>Reference&#xA0;Range</th><th>Unit</th></tr><tr><td>Color of Urine</td></tr></table></div>"
        },
        "status": "final",
        "subject": {
          "reference": "urn:uuid:8ee66f6b-e7c7-4de2-9b28-7aa71e08c025",
          "display": "Iva Kratochvílová"
        },
        "effectiveDateTime": "2024-11-03T16:10:29Z",
        "specimen": {
          "reference": "urn:uuid:d6df4b32-2152-4d87-8407-8105b4ca3ac5"
        }
      }
    },
    {
      "fullUrl": "urn:uuid:ce01f536-da5e-430c-a272-469010239b23",
      "resource": {
        "resourceType": "Observation",
        "id": "ce01f536-da5e-430c-a272-469010239b23",
        "meta": {
          "profile": [
            "http://hl7.eu/fhir/laboratory/StructureDefinition/Observation-resultslab-eu-lab"
          ]
        },
        "performer": [
          {
            "display": "The Central European Lab"
          }
        ],
        "category": [
          {
            "coding": [
              {
                "system": "http://terminology.hl7.org/CodeSystem/observation-category",
                "code": "laboratory"
              }
            ]
          }
        ],
        "code": {
          "coding": [
            {
              "code": "5792-7",
              "system": "http://loinc.org",
              "display": "Glucose [Mass/volume] in Urine by Test strip"
            }
          ],
          "text": "Glucose [Mass/volume] in Urine by Test strip"
        },
        "valueQuantity": {
          "system": "http://unitsofmeasure.org",
          "value": 2,
          "unit": "mg/dL",
          "code": "mg/dL"
        },
        "referenceRange": [
          {
            "low": {
              "value": 0,
              "code": "mg/dL",
              "system": "http://unitsofmeasure.org"
            }
          },
          {
            "high": {
              "value": 0.8,
              "code": "mg/dL",
              "system": "http://unitsofmeasure.org"
            }
          }
        ],
        "interpretation": [
          {
            "coding": [
              {
                "code": "H",
                "system": "http://terminology.hl7.org/CodeSystem/v3-ObservationInterpretation",
                "display": "High"
              }
            ]
          }
        ],
        "text": {
          "status": "generated",
          "div": "<div xmlns=\"http://www.w3.org/1999/xhtml\"><table class=\"hl7__eu__lab__report\"><tr><th>Test</th><th>03-Nov-2024</th><th>Reference&#xA0;Range</th><th>Unit</th></tr><tr><td>Glucose [Mass/volume] in Urine by Test strip</td><td>2.0</td><td>0 - 0.8</td><td>H</td><td>mg/dL</td></tr></table></div>"
        },
        "status": "final",
        "subject": {
          "reference": "urn:uuid:8ee66f6b-e7c7-4de2-9b28-7aa71e08c025",
          "display": "Iva Kratochvílová"
        },
        "effectiveDateTime": "2024-11-03T16:10:29Z",
        "specimen": {
          "reference": "urn:uuid:d6df4b32-2152-4d87-8407-8105b4ca3ac5"
        }
      }
    },
    {
      "fullUrl": "urn:uuid:2c020a81-dca4-40ae-9076-48dcf32beb2d",
      "resource": {
        "resourceType": "Observation",
        "id": "2c020a81-dca4-40ae-9076-48dcf32beb2d",
        "meta": {
          "profile": [
            "http://hl7.eu/fhir/laboratory/StructureDefinition/Observation-resultslab-eu-lab"
          ]
        },
        "performer": [
          {
            "display": "The Central European Lab"
          }
        ],
        "category": [
          {
            "coding": [
              {
                "system": "http://terminology.hl7.org/CodeSystem/observation-category",
                "code": "laboratory"
              }
            ]
          }
        ],
        "code": {
          "coding": [
            {
              "code": "25428-4",
              "system": "http://loinc.org",
              "display": "Glucose [Presence] in Urine by Test strip"
            }
          ],
          "text": "Glucose [Presence] in Urine by Test strip"
        },
        "text": {
          "status": "generated",
          "div": "<div xmlns=\"http://www.w3.org/1999/xhtml\"><table class=\"hl7__eu__lab__report\"><tr><th>Test</th><th>03-Nov-2024</th><th>Reference&#xA0;Range</th><th>Unit</th></tr><tr><td>Glucose [Presence] in Urine by Test strip</td></tr></table></div>"
        },
        "status": "final",
        "subject": {
          "reference": "urn:uuid:8ee66f6b-e7c7-4de2-9b28-7aa71e08c025",
          "display": "Iva Kratochvílová"
        },
        "effectiveDateTime": "2024-11-03T16:10:29Z",
        "specimen": {
          "reference": "urn:uuid:d6df4b32-2152-4d87-8407-8105b4ca3ac5"
        }
      }
    },
    {
      "fullUrl": "urn:uuid:705c59c8-f70f-4c2c-9ee0-9dce23caf8f2",
      "resource": {
        "resourceType": "Observation",
        "id": "705c59c8-f70f-4c2c-9ee0-9dce23caf8f2",
        "meta": {
          "profile": [
            "http://hl7.eu/fhir/laboratory/StructureDefinition/Observation-resultslab-eu-lab"
          ]
        },
        "performer": [
          {
            "display": "The Central European Lab"
          }
        ],
        "category": [
          {
            "coding": [
              {
                "system": "http://terminology.hl7.org/CodeSystem/observation-category",
                "code": "laboratory"
              }
            ]
          }
        ],
        "code": {
          "coding": [
            {
              "code": "20505-4",
              "system": "http://loinc.org",
              "display": "Bilirubin.total [Mass/volume] in Urine by Test strip"
            }
          ],
          "text": "Bilirubin.total [Mass/volume] in Urine by Test strip"
        },
        "valueQuantity": {
          "system": "http://unitsofmeasure.org",
          "value": 0.7,
          "unit": "mg/dL",
          "code": "mg/dL"
        },
        "referenceRange": [
          {
            "low": {
              "value": 0,
              "code": "mg/dL",
              "system": "http://unitsofmeasure.org"
            }
          },
          {
            "high": {
              "value": 1,
              "code": "mg/dL",
              "system": "http://unitsofmeasure.org"
            }
          }
        ],
        "text": {
          "status": "generated",
          "div": "<div xmlns=\"http://www.w3.org/1999/xhtml\"><table class=\"hl7__eu__lab__report\"><tr><th>Test</th><th>03-Nov-2024</th><th>Reference&#xA0;Range</th><th>Unit</th></tr><tr><td>Bilirubin.total [Mass/volume] in Urine by Test strip</td><td>0.7</td><td>0 - 1</td><td></td><td>mg/dL</td></tr></table></div>"
        },
        "status": "final",
        "subject": {
          "reference": "urn:uuid:8ee66f6b-e7c7-4de2-9b28-7aa71e08c025",
          "display": "Iva Kratochvílová"
        },
        "effectiveDateTime": "2024-11-03T16:10:29Z",
        "specimen": {
          "reference": "urn:uuid:d6df4b32-2152-4d87-8407-8105b4ca3ac5"
        }
      }
    },
    {
      "fullUrl": "urn:uuid:aa36db20-b321-452b-aaf8-6cd92366dcab",
      "resource": {
        "resourceType": "Observation",
        "id": "aa36db20-b321-452b-aaf8-6cd92366dcab",
        "meta": {
          "profile": [
            "http://hl7.eu/fhir/laboratory/StructureDefinition/Observation-resultslab-eu-lab"
          ]
        },
        "performer": [
          {
            "display": "The Central European Lab"
          }
        ],
        "category": [
          {
            "coding": [
              {
                "system": "http://terminology.hl7.org/CodeSystem/observation-category",
                "code": "laboratory"
              }
            ]
          }
        ],
        "code": {
          "coding": [
            {
              "code": "5770-3",
              "system": "http://loinc.org",
              "display": "Bilirubin.total [Presence] in Urine by Test strip"
            }
          ],
          "text": "Bilirubin.total [Presence] in Urine by Test strip"
        },
        "text": {
          "status": "generated",
          "div": "<div xmlns=\"http://www.w3.org/1999/xhtml\"><table class=\"hl7__eu__lab__report\"><tr><th>Test</th><th>03-Nov-2024</th><th>Reference&#xA0;Range</th><th>Unit</th></tr><tr><td>Bilirubin.total [Presence] in Urine by Test strip</td></tr></table></div>"
        },
        "status": "final",
        "subject": {
          "reference": "urn:uuid:8ee66f6b-e7c7-4de2-9b28-7aa71e08c025",
          "display": "Iva Kratochvílová"
        },
        "effectiveDateTime": "2024-11-03T16:10:29Z",
        "specimen": {
          "reference": "urn:uuid:d6df4b32-2152-4d87-8407-8105b4ca3ac5"
        }
      }
    },
    {
      "fullUrl": "urn:uuid:01c6e5b2-1a80-4f00-a668-b9dec2239725",
      "resource": {
        "resourceType": "Observation",
        "id": "01c6e5b2-1a80-4f00-a668-b9dec2239725",
        "meta": {
          "profile": [
            "http://hl7.eu/fhir/laboratory/StructureDefinition/Observation-resultslab-eu-lab"
          ]
        },
        "performer": [
          {
            "display": "The Central European Lab"
          }
        ],
        "category": [
          {
            "coding": [
              {
                "system": "http://terminology.hl7.org/CodeSystem/observation-category",
                "code": "laboratory"
              }
            ]
          }
        ],
        "code": {
          "coding": [
            {
              "code": "5797-6",
              "system": "http://loinc.org",
              "display": "Ketones [Mass/volume] in Urine by Test strip"
            }
          ],
          "text": "Ketones [Mass/volume] in Urine by Test strip"
        },
        "valueQuantity": {
          "system": "http://unitsofmeasure.org",
          "value": 12.6,
          "unit": "mg/dL",
          "code": "mg/dL"
        },
        "referenceRange": [
          {
            "low": {
              "value": 0,
              "code": "mg/dL",
              "system": "http://unitsofmeasure.org"
            }
          },
          {
            "high": {
              "value": 4,
              "code": "mg/dL",
              "system": "http://unitsofmeasure.org"
            }
          }
        ],
        "interpretation": [
          {
            "coding": [
              {
                "code": "H",
                "system": "http://terminology.hl7.org/CodeSystem/v3-ObservationInterpretation",
                "display": "High"
              }
            ]
          }
        ],
        "text": {
          "status": "generated",
          "div": "<div xmlns=\"http://www.w3.org/1999/xhtml\"><table class=\"hl7__eu__lab__report\"><tr><th>Test</th><th>03-Nov-2024</th><th>Reference&#xA0;Range</th><th>Unit</th></tr><tr><td>Ketones [Mass/volume] in Urine by Test strip</td><td>12.6</td><td>0 - 4</td><td>H</td><td>mg/dL</td></tr></table></div>"
        },
        "status": "final",
        "subject": {
          "reference": "urn:uuid:8ee66f6b-e7c7-4de2-9b28-7aa71e08c025",
          "display": "Iva Kratochvílová"
        },
        "effectiveDateTime": "2024-11-03T16:10:29Z",
        "specimen": {
          "reference": "urn:uuid:d6df4b32-2152-4d87-8407-8105b4ca3ac5"
        }
      }
    },
    {
      "fullUrl": "urn:uuid:0f3be150-6d27-49c1-b008-4c23dc6eee4f",
      "resource": {
        "resourceType": "Observation",
        "id": "0f3be150-6d27-49c1-b008-4c23dc6eee4f",
        "meta": {
          "profile": [
            "http://hl7.eu/fhir/laboratory/StructureDefinition/Observation-resultslab-eu-lab"
          ]
        },
        "performer": [
          {
            "display": "The Central European Lab"
          }
        ],
        "category": [
          {
            "coding": [
              {
                "system": "http://terminology.hl7.org/CodeSystem/observation-category",
                "code": "laboratory"
              }
            ]
          }
        ],
        "code": {
          "coding": [
            {
              "code": "2514-8",
              "system": "http://loinc.org",
              "display": "Ketones [Presence] in Urine by Test strip"
            }
          ],
          "text": "Ketones [Presence] in Urine by Test strip"
        },
        "text": {
          "status": "generated",
          "div": "<div xmlns=\"http://www.w3.org/1999/xhtml\"><table class=\"hl7__eu__lab__report\"><tr><th>Test</th><th>03-Nov-2024</th><th>Reference&#xA0;Range</th><th>Unit</th></tr><tr><td>Ketones [Presence] in Urine by Test strip</td></tr></table></div>"
        },
        "status": "final",
        "subject": {
          "reference": "urn:uuid:8ee66f6b-e7c7-4de2-9b28-7aa71e08c025",
          "display": "Iva Kratochvílová"
        },
        "effectiveDateTime": "2024-11-03T16:10:29Z",
        "specimen": {
          "reference": "urn:uuid:d6df4b32-2152-4d87-8407-8105b4ca3ac5"
        }
      }
    },
    {
      "fullUrl": "urn:uuid:c57da445-491a-4264-8c7f-75aa4801ac39",
      "resource": {
        "resourceType": "Observation",
        "id": "c57da445-491a-4264-8c7f-75aa4801ac39",
        "meta": {
          "profile": [
            "http://hl7.eu/fhir/laboratory/StructureDefinition/Observation-resultslab-eu-lab"
          ]
        },
        "performer": [
          {
            "display": "The Central European Lab"
          }
        ],
        "category": [
          {
            "coding": [
              {
                "system": "http://terminology.hl7.org/CodeSystem/observation-category",
                "code": "laboratory"
              }
            ]
          }
        ],
        "code": {
          "coding": [
            {
              "code": "5811-5",
              "system": "http://loinc.org",
              "display": "Specific gravity of Urine by Test strip"
            }
          ],
          "text": "Specific gravity of Urine by Test strip"
        },
        "valueQuantity": {
          "system": "http://unitsofmeasure.org",
          "value": 1,
          "unit": "{nominal}",
          "code": "{nominal}"
        },
        "referenceRange": [
          {
            "low": {
              "value": 1.005,
              "code": "g/mL",
              "system": "http://unitsofmeasure.org"
            }
          },
          {
            "high": {
              "value": 1.03,
              "code": "g/mL",
              "system": "http://unitsofmeasure.org"
            }
          }
        ],
        "interpretation": [
          {
            "coding": [
              {
                "code": "L",
                "system": "http://terminology.hl7.org/CodeSystem/v3-ObservationInterpretation",
                "display": "Low"
              }
            ]
          }
        ],
        "text": {
          "status": "generated",
          "div": "<div xmlns=\"http://www.w3.org/1999/xhtml\"><table class=\"hl7__eu__lab__report\"><tr><th>Test</th><th>03-Nov-2024</th><th>Reference&#xA0;Range</th><th>Unit</th></tr><tr><td>Specific gravity of Urine by Test strip</td><td>1.0</td><td>1.005 - 1.03</td><td>L</td><td>{nominal}</td></tr></table></div>"
        },
        "status": "final",
        "subject": {
          "reference": "urn:uuid:8ee66f6b-e7c7-4de2-9b28-7aa71e08c025",
          "display": "Iva Kratochvílová"
        },
        "effectiveDateTime": "2024-11-03T16:10:29Z",
        "specimen": {
          "reference": "urn:uuid:d6df4b32-2152-4d87-8407-8105b4ca3ac5"
        }
      }
    },
    {
      "fullUrl": "urn:uuid:44fdba10-b0ba-4d7b-9b98-2a436a6ed699",
      "resource": {
        "resourceType": "Observation",
        "id": "44fdba10-b0ba-4d7b-9b98-2a436a6ed699",
        "meta": {
          "profile": [
            "http://hl7.eu/fhir/laboratory/StructureDefinition/Observation-resultslab-eu-lab"
          ]
        },
        "performer": [
          {
            "display": "The Central European Lab"
          }
        ],
        "category": [
          {
            "coding": [
              {
                "system": "http://terminology.hl7.org/CodeSystem/observation-category",
                "code": "laboratory"
              }
            ]
          }
        ],
        "code": {
          "coding": [
            {
              "code": "5803-2",
              "system": "http://loinc.org",
              "display": "pH of Urine by Test strip"
            }
          ],
          "text": "pH of Urine by Test strip"
        },
        "valueQuantity": {
          "system": "http://unitsofmeasure.org",
          "value": 6.5,
          "unit": "pH",
          "code": "pH"
        },
        "referenceRange": [
          {
            "low": {
              "value": 4.5,
              "code": "pH",
              "system": "http://unitsofmeasure.org"
            }
          },
          {
            "high": {
              "value": 7,
              "code": "pH",
              "system": "http://unitsofmeasure.org"
            }
          }
        ],
        "text": {
          "status": "generated",
          "div": "<div xmlns=\"http://www.w3.org/1999/xhtml\"><table class=\"hl7__eu__lab__report\"><tr><th>Test</th><th>03-Nov-2024</th><th>Reference&#xA0;Range</th><th>Unit</th></tr><tr><td>pH of Urine by Test strip</td><td>6.5</td><td>4.5 - 7</td><td></td><td>pH</td></tr></table></div>"
        },
        "status": "final",
        "subject": {
          "reference": "urn:uuid:8ee66f6b-e7c7-4de2-9b28-7aa71e08c025",
          "display": "Iva Kratochvílová"
        },
        "effectiveDateTime": "2024-11-03T16:10:29Z",
        "specimen": {
          "reference": "urn:uuid:d6df4b32-2152-4d87-8407-8105b4ca3ac5"
        }
      }
    },
    {
      "fullUrl": "urn:uuid:58b99cdf-db7e-49bd-8c61-e08d781abd48",
      "resource": {
        "resourceType": "Observation",
        "id": "58b99cdf-db7e-49bd-8c61-e08d781abd48",
        "meta": {
          "profile": [
            "http://hl7.eu/fhir/laboratory/StructureDefinition/Observation-resultslab-eu-lab"
          ]
        },
        "performer": [
          {
            "display": "The Central European Lab"
          }
        ],
        "category": [
          {
            "coding": [
              {
                "system": "http://terminology.hl7.org/CodeSystem/observation-category",
                "code": "laboratory"
              }
            ]
          }
        ],
        "code": {
          "coding": [
            {
              "code": "5804-0",
              "system": "http://loinc.org",
              "display": "Protein [Mass/volume] in Urine by Test strip"
            }
          ],
          "text": "Protein [Mass/volume] in Urine by Test strip"
        },
        "valueQuantity": {
          "system": "http://unitsofmeasure.org",
          "value": 288.9,
          "unit": "mg/dL",
          "code": "mg/dL"
        },
        "referenceRange": [
          {
            "low": {
              "value": 0,
              "code": "mg/dL",
              "system": "http://unitsofmeasure.org"
            }
          },
          {
            "high": {
              "value": 145,
              "code": "mg/dL",
              "system": "http://unitsofmeasure.org"
            }
          }
        ],
        "interpretation": [
          {
            "coding": [
              {
                "code": "H",
                "system": "http://terminology.hl7.org/CodeSystem/v3-ObservationInterpretation",
                "display": "High"
              }
            ]
          }
        ],
        "text": {
          "status": "generated",
          "div": "<div xmlns=\"http://www.w3.org/1999/xhtml\"><table class=\"hl7__eu__lab__report\"><tr><th>Test</th><th>03-Nov-2024</th><th>Reference&#xA0;Range</th><th>Unit</th></tr><tr><td>Protein [Mass/volume] in Urine by Test strip</td><td>288.9</td><td>0 - 145</td><td>H</td><td>mg/dL</td></tr></table></div>"
        },
        "status": "final",
        "subject": {
          "reference": "urn:uuid:8ee66f6b-e7c7-4de2-9b28-7aa71e08c025",
          "display": "Iva Kratochvílová"
        },
        "effectiveDateTime": "2024-11-03T16:10:29Z",
        "specimen": {
          "reference": "urn:uuid:d6df4b32-2152-4d87-8407-8105b4ca3ac5"
        }
      }
    },
    {
      "fullUrl": "urn:uuid:fb655e82-ff8d-4821-8c85-6b0c9df51083",
      "resource": {
        "resourceType": "Observation",
        "id": "fb655e82-ff8d-4821-8c85-6b0c9df51083",
        "meta": {
          "profile": [
            "http://hl7.eu/fhir/laboratory/StructureDefinition/Observation-resultslab-eu-lab"
          ]
        },
        "performer": [
          {
            "display": "The Central European Lab"
          }
        ],
        "category": [
          {
            "coding": [
              {
                "system": "http://terminology.hl7.org/CodeSystem/observation-category",
                "code": "laboratory"
              }
            ]
          }
        ],
        "code": {
          "coding": [
            {
              "code": "20454-5",
              "system": "http://loinc.org",
              "display": "Protein [Presence] in Urine by Test strip"
            }
          ],
          "text": "Protein [Presence] in Urine by Test strip"
        },
        "text": {
          "status": "generated",
          "div": "<div xmlns=\"http://www.w3.org/1999/xhtml\"><table class=\"hl7__eu__lab__report\"><tr><th>Test</th><th>03-Nov-2024</th><th>Reference&#xA0;Range</th><th>Unit</th></tr><tr><td>Protein [Presence] in Urine by Test strip</td></tr></table></div>"
        },
        "status": "final",
        "subject": {
          "reference": "urn:uuid:8ee66f6b-e7c7-4de2-9b28-7aa71e08c025",
          "display": "Iva Kratochvílová"
        },
        "effectiveDateTime": "2024-11-03T16:10:29Z",
        "specimen": {
          "reference": "urn:uuid:d6df4b32-2152-4d87-8407-8105b4ca3ac5"
        }
      }
    },
    {
      "fullUrl": "urn:uuid:067a4a43-afa6-4de4-aef6-67f9f5e99dec",
      "resource": {
        "resourceType": "Observation",
        "id": "067a4a43-afa6-4de4-aef6-67f9f5e99dec",
        "meta": {
          "profile": [
            "http://hl7.eu/fhir/laboratory/StructureDefinition/Observation-resultslab-eu-lab"
          ]
        },
        "performer": [
          {
            "display": "The Central European Lab"
          }
        ],
        "category": [
          {
            "coding": [
              {
                "system": "http://terminology.hl7.org/CodeSystem/observation-category",
                "code": "laboratory"
              }
            ]
          }
        ],
        "code": {
          "coding": [
            {
              "code": "5802-4",
              "system": "http://loinc.org",
              "display": "Nitrite [Presence] in Urine by Test strip"
            }
          ],
          "text": "Nitrite [Presence] in Urine by Test strip"
        },
        "text": {
          "status": "generated",
          "div": "<div xmlns=\"http://www.w3.org/1999/xhtml\"><table class=\"hl7__eu__lab__report\"><tr><th>Test</th><th>03-Nov-2024</th><th>Reference&#xA0;Range</th><th>Unit</th></tr><tr><td>Nitrite [Presence] in Urine by Test strip</td></tr></table></div>"
        },
        "status": "final",
        "subject": {
          "reference": "urn:uuid:8ee66f6b-e7c7-4de2-9b28-7aa71e08c025",
          "display": "Iva Kratochvílová"
        },
        "effectiveDateTime": "2024-11-03T16:10:29Z",
        "specimen": {
          "reference": "urn:uuid:d6df4b32-2152-4d87-8407-8105b4ca3ac5"
        }
      }
    },
    {
      "fullUrl": "urn:uuid:20aebb85-83fd-4b1d-a5f0-7998dbae01cf",
      "resource": {
        "resourceType": "Observation",
        "id": "20aebb85-83fd-4b1d-a5f0-7998dbae01cf",
        "meta": {
          "profile": [
            "http://hl7.eu/fhir/laboratory/StructureDefinition/Observation-resultslab-eu-lab"
          ]
        },
        "performer": [
          {
            "display": "The Central European Lab"
          }
        ],
        "category": [
          {
            "coding": [
              {
                "system": "http://terminology.hl7.org/CodeSystem/observation-category",
                "code": "laboratory"
              }
            ]
          }
        ],
        "code": {
          "coding": [
            {
              "code": "5794-3",
              "system": "http://loinc.org",
              "display": "Hemoglobin [Presence] in Urine by Test strip"
            }
          ],
          "text": "Hemoglobin [Presence] in Urine by Test strip"
        },
        "text": {
          "status": "generated",
          "div": "<div xmlns=\"http://www.w3.org/1999/xhtml\"><table class=\"hl7__eu__lab__report\"><tr><th>Test</th><th>03-Nov-2024</th><th>Reference&#xA0;Range</th><th>Unit</th></tr><tr><td>Hemoglobin [Presence] in Urine by Test strip</td></tr></table></div>"
        },
        "status": "final",
        "subject": {
          "reference": "urn:uuid:8ee66f6b-e7c7-4de2-9b28-7aa71e08c025",
          "display": "Iva Kratochvílová"
        },
        "effectiveDateTime": "2024-11-03T16:10:29Z",
        "specimen": {
          "reference": "urn:uuid:d6df4b32-2152-4d87-8407-8105b4ca3ac5"
        }
      }
    },
    {
      "fullUrl": "urn:uuid:c74f4766-8ae7-47cd-9a02-7ee9fcefcb46",
      "resource": {
        "resourceType": "Observation",
        "id": "c74f4766-8ae7-47cd-9a02-7ee9fcefcb46",
        "meta": {
          "profile": [
            "http://hl7.eu/fhir/laboratory/StructureDefinition/Observation-resultslab-eu-lab"
          ]
        },
        "performer": [
          {
            "display": "The Central European Lab"
          }
        ],
        "category": [
          {
            "coding": [
              {
                "system": "http://terminology.hl7.org/CodeSystem/observation-category",
                "code": "laboratory"
              }
            ]
          }
        ],
        "code": {
          "coding": [
            {
              "code": "5799-2",
              "system": "http://loinc.org",
              "display": "Leukocyte esterase [Presence] in Urine by Test strip"
            }
          ],
          "text": "Leukocyte esterase [Presence] in Urine by Test strip"
        },
        "text": {
          "status": "generated",
          "div": "<div xmlns=\"http://www.w3.org/1999/xhtml\"><table class=\"hl7__eu__lab__report\"><tr><th>Test</th><th>03-Nov-2024</th><th>Reference&#xA0;Range</th><th>Unit</th></tr><tr><td>Leukocyte esterase [Presence] in Urine by Test strip</td></tr></table></div>"
        },
        "status": "final",
        "subject": {
          "reference": "urn:uuid:8ee66f6b-e7c7-4de2-9b28-7aa71e08c025",
          "display": "Iva Kratochvílová"
        },
        "effectiveDateTime": "2024-11-03T16:10:29Z",
        "specimen": {
          "reference": "urn:uuid:d6df4b32-2152-4d87-8407-8105b4ca3ac5"
        }
      }
    },
    {
      "fullUrl": "urn:uuid:eea7ad4d-b45f-42fb-a0cf-4b8090c4f9a0",
      "resource": {
        "resourceType": "Observation",
        "id": "eea7ad4d-b45f-42fb-a0cf-4b8090c4f9a0",
        "meta": {
          "profile": [
            "http://hl7.eu/fhir/laboratory/StructureDefinition/Observation-resultslab-eu-lab"
          ]
        },
        "performer": [
          {
            "display": "The Central European Lab"
          }
        ],
        "category": [
          {
            "coding": [
              {
                "system": "http://terminology.hl7.org/CodeSystem/observation-category",
                "code": "laboratory"
              }
            ]
          }
        ],
        "code": {
          "coding": [
            {
              "code": "4548-4",
              "system": "http://loinc.org",
              "display": "Hemoglobin A1c/Hemoglobin.total in Blood"
            }
          ],
          "text": "Hemoglobin A1c/Hemoglobin.total in Blood"
        },
        "valueQuantity": {
          "system": "http://unitsofmeasure.org",
          "value": 3.4,
          "unit": "%",
          "code": "%"
        },
        "referenceRange": [
          {
            "low": {
              "value": 4,
              "code": "%",
              "system": "http://unitsofmeasure.org"
            }
          },
          {
            "high": {
              "value": 6,
              "code": "%",
              "system": "http://unitsofmeasure.org"
            }
          }
        ],
        "interpretation": [
          {
            "coding": [
              {
                "code": "L",
                "system": "http://terminology.hl7.org/CodeSystem/v3-ObservationInterpretation",
                "display": "Low"
              }
            ]
          }
        ],
        "text": {
          "status": "generated",
          "div": "<div xmlns=\"http://www.w3.org/1999/xhtml\"><table class=\"hl7__eu__lab__report\"><tr><th>Test</th><th>03-Nov-2024</th><th>Reference&#xA0;Range</th><th>Unit</th></tr><tr><td>Hemoglobin A1c/Hemoglobin.total in Blood</td><td>3.4</td><td>4 - 6</td><td>L</td><td>%</td></tr></table></div>"
        },
        "status": "final",
        "subject": {
          "reference": "urn:uuid:8ee66f6b-e7c7-4de2-9b28-7aa71e08c025",
          "display": "Iva Kratochvílová"
        },
        "effectiveDateTime": "2024-11-03T16:10:29Z",
        "specimen": {
          "reference": "urn:uuid:595e2ac6-5e5a-4699-b317-81c678560b92"
        }
      }
    },
    {
      "fullUrl": "urn:uuid:1948ef10-9dcc-4280-8481-641ee3687067",
      "resource": {
        "resourceType": "Observation",
        "id": "1948ef10-9dcc-4280-8481-641ee3687067",
        "meta": {
          "profile": [
            "http://hl7.eu/fhir/laboratory/StructureDefinition/Observation-resultslab-eu-lab"
          ]
        },
        "performer": [
          {
            "display": "The Central European Lab"
          }
        ],
        "category": [
          {
            "coding": [
              {
                "system": "http://terminology.hl7.org/CodeSystem/observation-category",
                "code": "laboratory"
              }
            ]
          }
        ],
        "code": {
          "coding": [
            {
              "code": "2339-0",
              "system": "http://loinc.org",
              "display": "Glucose [Mass/volume] in Blood"
            }
          ],
          "text": "Glucose [Mass/volume] in Blood"
        },
        "valueQuantity": {
          "system": "http://unitsofmeasure.org",
          "value": 87.4,
          "unit": "mg/dL",
          "code": "mg/dL"
        },
        "referenceRange": [
          {
            "low": {
              "value": 70,
              "code": "mg/dL",
              "system": "http://unitsofmeasure.org"
            }
          },
          {
            "high": {
              "value": 140,
              "code": "mg/dL",
              "system": "http://unitsofmeasure.org"
            }
          }
        ],
        "text": {
          "status": "generated",
          "div": "<div xmlns=\"http://www.w3.org/1999/xhtml\"><table class=\"hl7__eu__lab__report\"><tr><th>Test</th><th>03-Nov-2024</th><th>Reference&#xA0;Range</th><th>Unit</th></tr><tr><td>Glucose [Mass/volume] in Blood</td><td>87.4</td><td>70 - 140</td><td></td><td>mg/dL</td></tr></table></div>"
        },
        "status": "final",
        "subject": {
          "reference": "urn:uuid:8ee66f6b-e7c7-4de2-9b28-7aa71e08c025",
          "display": "Iva Kratochvílová"
        },
        "effectiveDateTime": "2024-11-03T16:10:29Z",
        "specimen": {
          "reference": "urn:uuid:595e2ac6-5e5a-4699-b317-81c678560b92"
        }
      }
    },
    {
      "fullUrl": "urn:uuid:ced79ed4-699e-41fe-921c-a5e353e287b1",
      "resource": {
        "resourceType": "Observation",
        "id": "ced79ed4-699e-41fe-921c-a5e353e287b1",
        "meta": {
          "profile": [
            "http://hl7.eu/fhir/laboratory/StructureDefinition/Observation-resultslab-eu-lab"
          ]
        },
        "performer": [
          {
            "display": "The Central European Lab"
          }
        ],
        "category": [
          {
            "coding": [
              {
                "system": "http://terminology.hl7.org/CodeSystem/observation-category",
                "code": "laboratory"
              }
            ]
          }
        ],
        "code": {
          "coding": [
            {
              "code": "6299-2",
              "system": "http://loinc.org",
              "display": "Urea nitrogen [Mass/volume] in Blood"
            }
          ],
          "text": "Urea nitrogen [Mass/volume] in Blood"
        },
        "valueQuantity": {
          "system": "http://unitsofmeasure.org",
          "value": 10.9,
          "unit": "mg/dL",
          "code": "mg/dL"
        },
        "referenceRange": [
          {
            "low": {
              "value": 7,
              "code": "mg/dL",
              "system": "http://unitsofmeasure.org"
            }
          },
          {
            "high": {
              "value": 25,
              "code": "mg/dL",
              "system": "http://unitsofmeasure.org"
            }
          }
        ],
        "text": {
          "status": "generated",
          "div": "<div xmlns=\"http://www.w3.org/1999/xhtml\"><table class=\"hl7__eu__lab__report\"><tr><th>Test</th><th>03-Nov-2024</th><th>Reference&#xA0;Range</th><th>Unit</th></tr><tr><td>Urea nitrogen [Mass/volume] in Blood</td><td>10.9</td><td>7 - 25</td><td></td><td>mg/dL</td></tr></table></div>"
        },
        "status": "final",
        "subject": {
          "reference": "urn:uuid:8ee66f6b-e7c7-4de2-9b28-7aa71e08c025",
          "display": "Iva Kratochvílová"
        },
        "effectiveDateTime": "2024-11-03T16:10:29Z",
        "specimen": {
          "reference": "urn:uuid:595e2ac6-5e5a-4699-b317-81c678560b92"
        }
      }
    },
    {
      "fullUrl": "urn:uuid:8cc1cf6b-53db-4354-be61-1ac532e7d5cc",
      "resource": {
        "resourceType": "Observation",
        "id": "8cc1cf6b-53db-4354-be61-1ac532e7d5cc",
        "meta": {
          "profile": [
            "http://hl7.eu/fhir/laboratory/StructureDefinition/Observation-resultslab-eu-lab"
          ]
        },
        "performer": [
          {
            "display": "The Central European Lab"
          }
        ],
        "category": [
          {
            "coding": [
              {
                "system": "http://terminology.hl7.org/CodeSystem/observation-category",
                "code": "laboratory"
              }
            ]
          }
        ],
        "code": {
          "coding": [
            {
              "code": "38483-4",
              "system": "http://loinc.org",
              "display": "Creatinine [Mass/volume] in Blood"
            }
          ],
          "text": "Creatinine [Mass/volume] in Blood"
        },
        "valueQuantity": {
          "system": "http://unitsofmeasure.org",
          "value": 1.9,
          "unit": "mg/dL",
          "code": "mg/dL"
        },
        "referenceRange": [
          {
            "low": {
              "value": 0.6,
              "code": "mg/dL",
              "system": "http://unitsofmeasure.org"
            }
          },
          {
            "high": {
              "value": 1.1,
              "code": "mg/dL",
              "system": "http://unitsofmeasure.org"
            }
          }
        ],
        "interpretation": [
          {
            "coding": [
              {
                "code": "H",
                "system": "http://terminology.hl7.org/CodeSystem/v3-ObservationInterpretation",
                "display": "High"
              }
            ]
          }
        ],
        "text": {
          "status": "generated",
          "div": "<div xmlns=\"http://www.w3.org/1999/xhtml\"><table class=\"hl7__eu__lab__report\"><tr><th>Test</th><th>03-Nov-2024</th><th>Reference&#xA0;Range</th><th>Unit</th></tr><tr><td>Creatinine [Mass/volume] in Blood</td><td>1.9</td><td>0.6 - 1.1</td><td>H</td><td>mg/dL</td></tr></table></div>"
        },
        "status": "final",
        "subject": {
          "reference": "urn:uuid:8ee66f6b-e7c7-4de2-9b28-7aa71e08c025",
          "display": "Iva Kratochvílová"
        },
        "effectiveDateTime": "2024-11-03T16:10:29Z",
        "specimen": {
          "reference": "urn:uuid:595e2ac6-5e5a-4699-b317-81c678560b92"
        }
      }
    },
    {
      "fullUrl": "urn:uuid:3b1514a5-bfba-4200-96bb-abbecd016924",
      "resource": {
        "resourceType": "Observation",
        "id": "3b1514a5-bfba-4200-96bb-abbecd016924",
        "meta": {
          "profile": [
            "http://hl7.eu/fhir/laboratory/StructureDefinition/Observation-resultslab-eu-lab"
          ]
        },
        "performer": [
          {
            "display": "The Central European Lab"
          }
        ],
        "category": [
          {
            "coding": [
              {
                "system": "http://terminology.hl7.org/CodeSystem/observation-category",
                "code": "laboratory"
              }
            ]
          }
        ],
        "code": {
          "coding": [
            {
              "code": "49765-1",
              "system": "http://loinc.org",
              "display": "Calcium [Mass/volume] in Blood"
            }
          ],
          "text": "Calcium [Mass/volume] in Blood"
        },
        "valueQuantity": {
          "system": "http://unitsofmeasure.org",
          "value": 9.2,
          "unit": "mg/dL",
          "code": "mg/dL"
        },
        "referenceRange": [
          {
            "low": {
              "value": 8.6,
              "code": "mg/dL",
              "system": "http://unitsofmeasure.org"
            }
          },
          {
            "high": {
              "value": 10.4,
              "code": "mg/dL",
              "system": "http://unitsofmeasure.org"
            }
          }
        ],
        "text": {
          "status": "generated",
          "div": "<div xmlns=\"http://www.w3.org/1999/xhtml\"><table class=\"hl7__eu__lab__report\"><tr><th>Test</th><th>03-Nov-2024</th><th>Reference&#xA0;Range</th><th>Unit</th></tr><tr><td>Calcium [Mass/volume] in Blood</td><td>9.2</td><td>8.6 - 10.4</td><td></td><td>mg/dL</td></tr></table></div>"
        },
        "status": "final",
        "subject": {
          "reference": "urn:uuid:8ee66f6b-e7c7-4de2-9b28-7aa71e08c025",
          "display": "Iva Kratochvílová"
        },
        "effectiveDateTime": "2024-11-03T16:10:29Z",
        "specimen": {
          "reference": "urn:uuid:595e2ac6-5e5a-4699-b317-81c678560b92"
        }
      }
    },
    {
      "fullUrl": "urn:uuid:4075f7e6-b6a6-498b-9b37-e4dc034189d6",
      "resource": {
        "resourceType": "Observation",
        "id": "4075f7e6-b6a6-498b-9b37-e4dc034189d6",
        "meta": {
          "profile": [
            "http://hl7.eu/fhir/laboratory/StructureDefinition/Observation-resultslab-eu-lab"
          ]
        },
        "performer": [
          {
            "display": "The Central European Lab"
          }
        ],
        "category": [
          {
            "coding": [
              {
                "system": "http://terminology.hl7.org/CodeSystem/observation-category",
                "code": "laboratory"
              }
            ]
          }
        ],
        "code": {
          "coding": [
            {
              "code": "2947-0",
              "system": "http://loinc.org",
              "display": "Sodium [Moles/volume] in Blood"
            }
          ],
          "text": "Sodium [Moles/volume] in Blood"
        },
        "valueQuantity": {
          "system": "http://unitsofmeasure.org",
          "value": 139.5,
          "unit": "mmol/L",
          "code": "mmol/L"
        },
        "referenceRange": [
          {
            "low": {
              "value": 135,
              "code": "mmol/L",
              "system": "http://unitsofmeasure.org"
            }
          },
          {
            "high": {
              "value": 145,
              "code": "mmol/L",
              "system": "http://unitsofmeasure.org"
            }
          }
        ],
        "text": {
          "status": "generated",
          "div": "<div xmlns=\"http://www.w3.org/1999/xhtml\"><table class=\"hl7__eu__lab__report\"><tr><th>Test</th><th>03-Nov-2024</th><th>Reference&#xA0;Range</th><th>Unit</th></tr><tr><td>Sodium [Moles/volume] in Blood</td><td>139.5</td><td>135 - 145</td><td></td><td>mmol/L</td></tr></table></div>"
        },
        "status": "final",
        "subject": {
          "reference": "urn:uuid:8ee66f6b-e7c7-4de2-9b28-7aa71e08c025",
          "display": "Iva Kratochvílová"
        },
        "effectiveDateTime": "2024-11-03T16:10:29Z",
        "specimen": {
          "reference": "urn:uuid:595e2ac6-5e5a-4699-b317-81c678560b92"
        }
      }
    },
    {
      "fullUrl": "urn:uuid:20bcc223-3654-4eb9-bdc4-9880b307b300",
      "resource": {
        "resourceType": "Observation",
        "id": "20bcc223-3654-4eb9-bdc4-9880b307b300",
        "meta": {
          "profile": [
            "http://hl7.eu/fhir/laboratory/StructureDefinition/Observation-resultslab-eu-lab"
          ]
        },
        "performer": [
          {
            "display": "The Central European Lab"
          }
        ],
        "category": [
          {
            "coding": [
              {
                "system": "http://terminology.hl7.org/CodeSystem/observation-category",
                "code": "laboratory"
              }
            ]
          }
        ],
        "code": {
          "coding": [
            {
              "code": "6298-4",
              "system": "http://loinc.org",
              "display": "Potassium [Moles/volume] in Blood"
            }
          ],
          "text": "Potassium [Moles/volume] in Blood"
        },
        "valueQuantity": {
          "system": "http://unitsofmeasure.org",
          "value": 4.4,
          "unit": "mmol/L",
          "code": "mmol/L"
        },
        "referenceRange": [
          {
            "low": {
              "value": 3.5,
              "code": "mmol/L",
              "system": "http://unitsofmeasure.org"
            }
          },
          {
            "high": {
              "value": 5.1,
              "code": "mmol/L",
              "system": "http://unitsofmeasure.org"
            }
          }
        ],
        "text": {
          "status": "generated",
          "div": "<div xmlns=\"http://www.w3.org/1999/xhtml\"><table class=\"hl7__eu__lab__report\"><tr><th>Test</th><th>03-Nov-2024</th><th>Reference&#xA0;Range</th><th>Unit</th></tr><tr><td>Potassium [Moles/volume] in Blood</td><td>4.4</td><td>3.5 - 5.1</td><td></td><td>mmol/L</td></tr></table></div>"
        },
        "status": "final",
        "subject": {
          "reference": "urn:uuid:8ee66f6b-e7c7-4de2-9b28-7aa71e08c025",
          "display": "Iva Kratochvílová"
        },
        "effectiveDateTime": "2024-11-03T16:10:29Z",
        "specimen": {
          "reference": "urn:uuid:595e2ac6-5e5a-4699-b317-81c678560b92"
        }
      }
    },
    {
      "fullUrl": "urn:uuid:507125fb-8f42-41db-858e-8a4ce87afdc4",
      "resource": {
        "resourceType": "Observation",
        "id": "507125fb-8f42-41db-858e-8a4ce87afdc4",
        "meta": {
          "profile": [
            "http://hl7.eu/fhir/laboratory/StructureDefinition/Observation-resultslab-eu-lab"
          ]
        },
        "performer": [
          {
            "display": "The Central European Lab"
          }
        ],
        "category": [
          {
            "coding": [
              {
                "system": "http://terminology.hl7.org/CodeSystem/observation-category",
                "code": "laboratory"
              }
            ]
          }
        ],
        "code": {
          "coding": [
            {
              "code": "2069-3",
              "system": "http://loinc.org",
              "display": "Chloride [Moles/volume] in Blood"
            }
          ],
          "text": "Chloride [Moles/volume] in Blood"
        },
        "valueQuantity": {
          "system": "http://unitsofmeasure.org",
          "value": 108.6,
          "unit": "mmol/L",
          "code": "mmol/L"
        },
        "referenceRange": [
          {
            "low": {
              "value": 98,
              "code": "mmol/L",
              "system": "http://unitsofmeasure.org"
            }
          },
          {
            "high": {
              "value": 110,
              "code": "mmol/L",
              "system": "http://unitsofmeasure.org"
            }
          }
        ],
        "text": {
          "status": "generated",
          "div": "<div xmlns=\"http://www.w3.org/1999/xhtml\"><table class=\"hl7__eu__lab__report\"><tr><th>Test</th><th>03-Nov-2024</th><th>Reference&#xA0;Range</th><th>Unit</th></tr><tr><td>Chloride [Moles/volume] in Blood</td><td>108.6</td><td>98 - 110</td><td></td><td>mmol/L</td></tr></table></div>"
        },
        "status": "final",
        "subject": {
          "reference": "urn:uuid:8ee66f6b-e7c7-4de2-9b28-7aa71e08c025",
          "display": "Iva Kratochvílová"
        },
        "effectiveDateTime": "2024-11-03T16:10:29Z",
        "specimen": {
          "reference": "urn:uuid:595e2ac6-5e5a-4699-b317-81c678560b92"
        }
      }
    },
    {
      "fullUrl": "urn:uuid:833ab719-6428-4125-9559-210a8320663f",
      "resource": {
        "resourceType": "Observation",
        "id": "833ab719-6428-4125-9559-210a8320663f",
        "meta": {
          "profile": [
            "http://hl7.eu/fhir/laboratory/StructureDefinition/Observation-resultslab-eu-lab"
          ]
        },
        "performer": [
          {
            "display": "The Central European Lab"
          }
        ],
        "category": [
          {
            "coding": [
              {
                "system": "http://terminology.hl7.org/CodeSystem/observation-category",
                "code": "laboratory"
              }
            ]
          }
        ],
        "code": {
          "coding": [
            {
              "code": "20565-8",
              "system": "http://loinc.org",
              "display": "Carbon dioxide, total [Moles/volume] in Blood"
            }
          ],
          "text": "Carbon dioxide, total [Moles/volume] in Blood"
        },
        "valueQuantity": {
          "system": "http://unitsofmeasure.org",
          "value": 26,
          "unit": "mmol/L",
          "code": "mmol/L"
        },
        "referenceRange": [
          {
            "low": {
              "value": 22,
              "code": "mmol/L",
              "system": "http://unitsofmeasure.org"
            }
          },
          {
            "high": {
              "value": 29,
              "code": "mmol/L",
              "system": "http://unitsofmeasure.org"
            }
          }
        ],
        "text": {
          "status": "generated",
          "div": "<div xmlns=\"http://www.w3.org/1999/xhtml\"><table class=\"hl7__eu__lab__report\"><tr><th>Test</th><th>03-Nov-2024</th><th>Reference&#xA0;Range</th><th>Unit</th></tr><tr><td>Carbon dioxide, total [Moles/volume] in Blood</td><td>26.0</td><td>22 - 29</td><td></td><td>mmol/L</td></tr></table></div>"
        },
        "status": "final",
        "subject": {
          "reference": "urn:uuid:8ee66f6b-e7c7-4de2-9b28-7aa71e08c025",
          "display": "Iva Kratochvílová"
        },
        "effectiveDateTime": "2024-11-03T16:10:29Z",
        "specimen": {
          "reference": "urn:uuid:595e2ac6-5e5a-4699-b317-81c678560b92"
        }
      }
    },
    {
      "fullUrl": "urn:uuid:a16fd660-d34c-40d0-8ede-849a6a98ce02",
      "resource": {
        "resourceType": "Device",
        "id": "a16fd660-d34c-40d0-8ede-849a6a98ce02",
        "deviceName": [
          {
            "name": "SYNDERAI Synthetic Generator",
            "type": "manufacturer-name"
          }
        ],
        "version": [
          {
            "value": "5.0"
          }
        ],
        "text": {
          "status": "generated",
          "div": "<div xmlns=\"http://www.w3.org/1999/xhtml\">SYNDERAI Synthetic Generator v5.0</div>"
        },
        "status": "active\"",
        "distinctIdentifier": "synderai-generator-50",
        "manufacturer": "SYNDERAI Project"
      }
    },
    {
      "fullUrl": "urn:uuid:194fefbb-11ce-48c3-ac62-137b250ec7bd",
      "resource": {
        "resourceType": "Provenance",
        "id": "194fefbb-11ce-48c3-ac62-137b250ec7bd",
        "target": [
          {
            "reference": "Patient/8ee66f6b-e7c7-4de2-9b28-7aa71e08c025"
          },
          {
            "reference": "Bundle/44121d4b-65cf-40e0-ae8e-160dc0f507fd"
          },
          {
            "reference": "Composition/3d51cd98-7783-44b6-845d-24fbb1370e4a"
          },
          {
            "reference": "PractitionerRole/7afc8102-c9ae-4f26-8a5b-c60879faf6eb"
          },
          {
            "reference": "Practitioner/2b7bae09-5a09-4f23-8708-f99a5e13f3c4"
          },
          {
            "reference": "PractitionerRole/b3900404-2075-45cb-aee8-769c7552898c"
          },
          {
            "reference": "Organization/83e6eba7-4317-4820-96d7-a2424b2e75ca"
          }
        ],
        "activity": {
          "text": "Synthetic Example Data Generation"
        },
        "policy": [
          "https://synderai.net/synderai-synthetic-data-policy"
        ],
        "agent": [
          {
            "type": {
              "text": "author"
            },
            "who": {
              "reference": "Device/a16fd660-d34c-40d0-8ede-849a6a98ce02"
            }
          }
        ],
        "reason": [
          {
            "text": "Interoperability Testing and Training (non-clinical use)"
          }
        ],
        "text": {
          "status": "generated",
          "div": "<div xmlns=\"http://www.w3.org/1999/xhtml\">Provenance for SYNDERAI Synthetic Example Data Resource</div>"
        },
        "recorded": "2024-11-03T17:10:29Z"
      }
    },
    {
      "fullUrl": "urn:uuid:7afc8102-c9ae-4f26-8a5b-c60879faf6eb",
      "resource": {
        "resourceType": "PractitionerRole",
        "id": "7afc8102-c9ae-4f26-8a5b-c60879faf6eb",
        "meta": {
          "profile": [
            "http://hl7.eu/fhir/base/StructureDefinition/practitionerRole-eu"
          ]
        },
        "text": {
          "status": "generated",
          "div": "<div xmlns=\"http://www.w3.org/1999/xhtml\">Laboratory Role Id: 7afc8102-c9ae-4f26-8a5b-c60879faf6eb</div>"
        },
        "practitioner": {
          "reference": "urn:uuid:2b7bae09-5a09-4f23-8708-f99a5e13f3c4"
        }
      }
    },
    {
      "fullUrl": "urn:uuid:2b7bae09-5a09-4f23-8708-f99a5e13f3c4",
      "resource": {
        "resourceType": "Practitioner",
        "id": "2b7bae09-5a09-4f23-8708-f99a5e13f3c4",
        "meta": {
          "profile": [
            "http://hl7.eu/fhir/base/StructureDefinition/practitioner-eu"
          ]
        },
        "identifier": [
          {
            "assigner": {
              "display": "HL7 Europe"
            },
            "system": "urn:oid:2.16.840.1.113883.2.51.999",
            "value": "81f86298-8c4b-4ee5-8d43-0f026f973798"
          }
        ],
        "name": [
          {
            "prefix": [
              "dr"
            ],
            "given": [
              "Ex"
            ],
            "family": "Ample"
          }
        ],
        "address": [
          {
            "line": [
              "Laboratoire Central Européenne",
              "Boulevard du Jardin Botanique 32"
            ],
            "postalCode": "1000",
            "city": "Brussels",
            "country": "Belgium"
          }
        ],
        "text": {
          "status": "generated",
          "div": "<div xmlns=\"http://www.w3.org/1999/xhtml\">Laboratory: Laboratoire Central Européenne, 1000 Brussels, Belgium</div>"
        }
      }
    }
  ],
  "type": "document",
  "timestamp": "2024-11-03T17:10:29Z"
}
