{
  "resourceType": "Bundle",
  "id": "cd5d94bd-727d-45c3-b6b7-94e84a1e64db",
  "meta": {
    "profile": [
      "http://hl7.eu/fhir/laboratory/StructureDefinition/Bundle-eu-lab"
    ]
  },
  "identifier": {
    "assigner": {
      "display": "HL7 Europe"
    },
    "system": "urn:oid:2.16.840.1.113883.2.51.999",
    "value": "a7398734-2ff8-4029-8afe-80255390b611"
  },
  "entry": [
    {
      "fullUrl": "urn:uuid:f939ee02-aebc-4475-a043-303642679541",
      "resource": {
        "resourceType": "Composition",
        "id": "f939ee02-aebc-4475-a043-303642679541",
        "meta": {
          "profile": [
            "http://hl7.eu/fhir/laboratory/StructureDefinition/Composition-eu-lab"
          ]
        },
        "identifier": {
          "assigner": {
            "display": "HL7 Europe"
          },
          "system": "urn:oid:2.16.840.1.113883.2.51.999",
          "value": "83eed49d-55ac-4db5-bc1a-b4ee945acf92"
        },
        "author": [
          {
            "reference": "urn:uuid:23936630-d560-456e-9e6f-91e23c56d543"
          }
        ],
        "category": [
          {
            "coding": [
              {
                "code": "26436-6",
                "system": "http://loinc.org",
                "display": "Laboratory studies (set)"
              }
            ]
          }
        ],
        "type": {
          "coding": [
            {
              "code": "11502-2",
              "system": "http://loinc.org",
              "display": "Laboratory report"
            }
          ],
          "text": "Laboratory Report"
        },
        "section": [
          {
            "code": {
              "coding": [
                {
                  "code": "26436-6",
                  "system": "http://loinc.org",
                  "display": "Laboratory studies (set)"
                }
              ],
              "text": "Laboratory studies"
            },
            "section": [
              {
                "code": {
                  "coding": [
                    {
                      "code": "$18719-5",
                      "system": "http://loinc.org",
                      "display": "Chemistry studies (set)"
                    }
                  ],
                  "text": "Chemistry"
                },
                "entry": [
                  {
                    "reference": "urn:uuid:007353d5-81e1-4155-8c62-12f4ab990c51"
                  },
                  {
                    "reference": "urn:uuid:6eeda23e-f045-4fbd-9d14-deca610f12e5"
                  },
                  {
                    "reference": "urn:uuid:c6ded1b2-8a4a-4493-bcdd-05f81702789b"
                  },
                  {
                    "reference": "urn:uuid:8d09a89f-7fae-48da-b6a8-fb459b7b91d3"
                  },
                  {
                    "reference": "urn:uuid:aa7ac487-0fe2-469a-93b6-c39999e39715"
                  },
                  {
                    "reference": "urn:uuid:57bc724a-cca9-4705-ab21-a6b160bc5319"
                  },
                  {
                    "reference": "urn:uuid:9aea50da-a018-4461-9b7a-7aa8a6df82fa"
                  },
                  {
                    "reference": "urn:uuid:7b79e2b1-1052-4edd-bf55-3a52eb3811f3"
                  },
                  {
                    "reference": "urn:uuid:0cfb1b64-4356-42f5-93ee-07d27d740fab"
                  },
                  {
                    "reference": "urn:uuid:a5b2ade0-083d-4c28-95fc-f2d850288730"
                  },
                  {
                    "reference": "urn:uuid:d03519bd-6fb3-47f5-a208-6f811c2cd9a6"
                  },
                  {
                    "reference": "urn:uuid:7ae0aa8c-59ba-41fa-b542-d47d72401fd2"
                  },
                  {
                    "reference": "urn:uuid:1fdc4208-04e2-4330-b766-85ff872dc667"
                  },
                  {
                    "reference": "urn:uuid:b8009c07-a870-47de-979e-869da2e3294b"
                  },
                  {
                    "reference": "urn:uuid:62a5e48d-0a51-49e3-a78f-5b1af6346da8"
                  },
                  {
                    "reference": "urn:uuid:fb8a7dd0-4835-4d31-a635-063e1b131a28"
                  }
                ],
                "text": {
                  "status": "generated",
                  "div": "<div xmlns=\"http://www.w3.org/1999/xhtml\"><h3>Chemistry</h3><table class=\"hl7__eu__lab__report\"><thead><tr><th>Test</th><th>23-JUL-2016</th><th>Reference&#xA0;Range</th><th>Unit</th></tr></thead><tbody><tr><td>Glucose [Mass/volume] in Blood</td><td>74.3</td><td>70 - 140</td><td>mg/dL</td></tr><tr><td>Urea nitrogen [Mass/volume] in Blood</td><td>17.2</td><td>7 - 30</td><td>mg/dL</td></tr><tr><td>Creatinine [Mass/volume] in Blood</td><td><strong>2.7 H</strong></td><td>0.5 - 1.3</td><td>mg/dL</td></tr><tr><td>Calcium [Mass/volume] in Blood</td><td>9.9</td><td>8.6 - 10.2</td><td>mg/dL</td></tr><tr><td>Sodium [Moles/volume] in Blood</td><td>138.6</td><td>135 - 145</td><td>mmol/L</td></tr><tr><td>Potassium [Moles/volume] in Blood</td><td>4.4</td><td>3.5 - 5.1</td><td>mmol/L</td></tr><tr><td>Chloride [Moles/volume] in Blood</td><td>108.5</td><td>98 - 114</td><td>mmol/L</td></tr><tr><td>Carbon dioxide, total [Moles/volume] in Blood</td><td>27.3</td><td>22 - 32</td><td>mmol/L</td></tr><tr><td>Protein [Mass/volume] in Serum or Plasma</td><td>7.8</td><td>6 - 8.3</td><td>g/dL</td></tr><tr><td>Albumin [Mass/volume] in Serum or Plasma</td><td>5.1</td><td>3.5 - 5.5</td><td>g/dL</td></tr><tr><td>Globulin [Mass/volume] in Serum by calculation</td><td>2.3</td><td>2 - 3.5</td><td>g/L</td></tr><tr><td>Bilirubin.total [Mass/volume] in Serum or Plasma</td><td>0.6</td><td>0.3 - 1.2</td><td>mg/dL</td></tr><tr><td>Alkaline phosphatase [Enzymatic activity/volume] in Serum or Plasma</td><td><strong>43.7 L</strong></td><td>44 - 142</td><td>U/L</td></tr><tr><td>Alanine aminotransferase [Enzymatic activity/volume] in Serum or Plasma</td><td>32.6</td><td>7 - 40</td><td>U/L</td></tr><tr><td>Aspartate aminotransferase [Enzymatic activity/volume] in Serum or Plasma</td><td>17.2</td><td>10 - 40</td><td>U/L</td></tr><tr><td>Ketones [Presence] in Urine by Test strip</td><td>Urine ketone test = +++</td><td></td><td></td></tr></tbody></table></div>"
                },
                "title": "Chemistry"
              },
              {
                "code": {
                  "coding": [
                    {
                      "code": "$18729-4",
                      "system": "http://loinc.org",
                      "display": "Urinalysis studies (set)"
                    }
                  ],
                  "text": "Urinalysis"
                },
                "entry": [
                  {
                    "reference": "urn:uuid:c1d7951a-ed62-466b-bae0-fecf68fd8b2a"
                  },
                  {
                    "reference": "urn:uuid:be2b42f6-838a-4bec-9cd7-c71a323f9596"
                  },
                  {
                    "reference": "urn:uuid:0fb45938-dab7-4750-8209-5e08da1ce11d"
                  },
                  {
                    "reference": "urn:uuid:8e8d5871-9437-476e-bef4-86487106ac82"
                  },
                  {
                    "reference": "urn:uuid:de17b392-2de9-45a9-bb61-68da4ddfadcc"
                  },
                  {
                    "reference": "urn:uuid:d9435832-908e-45d5-bafa-5f1aee083770"
                  },
                  {
                    "reference": "urn:uuid:67f7e08d-039d-41c9-b25b-62eb06d0b0a8"
                  },
                  {
                    "reference": "urn:uuid:dfecc9e0-300f-499e-b693-80c42f54be3b"
                  },
                  {
                    "reference": "urn:uuid:01628e13-f1e5-4be3-b149-382c9ad76394"
                  },
                  {
                    "reference": "urn:uuid:b91aa9fd-64d7-4258-ad76-a5d34f710cb5"
                  },
                  {
                    "reference": "urn:uuid:7a8c5250-7cdd-443d-ae24-5e1720ecbca0"
                  },
                  {
                    "reference": "urn:uuid:c4762097-b2de-4c7c-8781-9db787a6a384"
                  }
                ],
                "text": {
                  "status": "generated",
                  "div": "<div xmlns=\"http://www.w3.org/1999/xhtml\"><h3>Urinalysis</h3><table class=\"hl7__eu__lab__report\"><thead><tr><th>Test</th><th>23-JUL-2016</th><th>Reference&#xA0;Range</th><th>Unit</th></tr></thead><tbody><tr><td>Glucose [Mass/volume] in Urine by Test strip</td><td><strong>1.8 H</strong></td><td>0.8 - 0</td><td>mg/dL</td></tr><tr><td>Glucose [Presence] in Urine by Test strip</td><td>++</td><td></td><td></td></tr><tr><td>Bilirubin.total [Mass/volume] in Urine by Test strip</td><td>0.5</td><td>0 - 1.5</td><td>mg/dL</td></tr><tr><td>Bilirubin.total [Presence] in Urine by Test strip</td><td>Finding of bilirubin in urine</td><td></td><td></td></tr><tr><td>Ketones [Mass/volume] in Urine by Test strip</td><td>1.7</td><td>0 - 8</td><td>mg/dL</td></tr><tr><td>Specific gravity of Urine by Test strip</td><td><strong>1.0 L</strong></td><td>1.01 - 1.03</td><td>{nominal}</td></tr><tr><td>pH of Urine by Test strip</td><td>5.1</td><td>4.6 - 7.5</td><td>pH</td></tr><tr><td>Protein [Mass/volume] in Urine by Test strip</td><td><strong>346.5 H</strong></td><td>0 - 14</td><td>mg/dL</td></tr><tr><td>Protein [Presence] in Urine by Test strip</td><td>Urine protein test = +++</td><td></td><td></td></tr><tr><td>Nitrite [Presence] in Urine by Test strip</td><td>Urine nitrite negative</td><td></td><td></td></tr><tr><td>Hemoglobin [Presence] in Urine by Test strip</td><td>Urine blood test = negative</td><td></td><td></td></tr><tr><td>Leukocyte esterase [Presence] in Urine by Test strip</td><td>Urine leukocyte test negative</td><td></td><td></td></tr></tbody></table></div>"
                },
                "title": "Urinalysis"
              },
              {
                "code": {
                  "coding": [
                    {
                      "code": "$LP7846-1",
                      "system": "http://loinc.org",
                      "display": "Specimen information"
                    }
                  ],
                  "text": "Specimen information"
                },
                "entry": [
                  {
                    "reference": "urn:uuid:a2c2e98c-6dfd-4db0-99ca-e411451c0248"
                  },
                  {
                    "reference": "urn:uuid:61604535-1cbf-4b38-8619-2a3381f1acce"
                  },
                  {
                    "reference": "urn:uuid:9d5b78eb-9cd4-4d34-8813-c077cb335f80"
                  },
                  {
                    "reference": "urn:uuid:e1d6f382-5cc5-4878-b42d-ca627f664872"
                  }
                ],
                "text": {
                  "status": "generated",
                  "div": "<div xmlns=\"http://www.w3.org/1999/xhtml\"><h3>Specimen information</h3><table class=\"hl7__eu__lab__report\"><thead><tr><th>Test</th><th>23-JUL-2016</th><th>Specimen</th><th></th></tr></thead><tbody><tr><td>Appearance of Urine</td><td>Cloudy urine</td><td>Urine</td><td></td></tr><tr><td>Odor of Urine</td><td>Urine smell ammoniacal</td><td>Urine</td><td></td></tr><tr><td>Clarity of Urine</td><td>Translucent</td><td>Urine</td><td></td></tr><tr><td>Color of Urine</td><td>Brown color</td><td>Urine</td><td></td></tr></tbody></table></div>"
                },
                "title": "Specimen information"
              }
            ],
            "title": "Laboratory Report"
          },
          {
            "text": {
              "status": "generated",
              "div": "<div xmlns=\"http://www.w3.org/1999/xhtml\"><h3>Annotation</h3><table class=\"hl7__eu__lab__report\"><tr><th>Conclusion and Recommendations based on this report and previous findings known to us</th></tr><tr><td>The patient shows significantly elevated serum creatinine, indicating impaired renal function, and marked proteinuria, glycosuria, and ketonuria in urine, suggesting possible diabetic nephropathy or acute kidney injury. Urine is cloudy, brown, with low specific gravity, but no evidence of infection (negative nitrites/leukocytes). Liver enzymes and electrolytes are within normal limits. Recommend urgent clinical evaluation for renal dysfunction and possible metabolic derangements.</td></tr></table></div>"
            },
            "code": {
              "coding": [
                {
                  "system": "http://loinc.org",
                  "code": "48767-8",
                  "display": "Annotation comment"
                }
              ]
            },
            "title": "Annotation comment"
          }
        ],
        "status": "final",
        "subject": {
          "reference": "urn:uuid:7f3a8ae1-e6f2-449a-81f7-a174052e777b",
          "display": "Maria Nohlmans"
        },
        "date": "2016-07-23T08:00:39Z",
        "title": "Laboratory Report",
        "confidentiality": "N"
      }
    },
    {
      "fullUrl": "urn:uuid:7b3242a7-6181-44d1-9ce4-32f5249c50ea",
      "resource": {
        "resourceType": "DiagnosticReport",
        "id": "7b3242a7-6181-44d1-9ce4-32f5249c50ea",
        "meta": {
          "profile": [
            "http://hl7.eu/fhir/laboratory/StructureDefinition/DiagnosticReport-eu-lab"
          ]
        },
        "identifier": [
          {
            "assigner": {
              "display": "HL7 Europe"
            },
            "system": "urn:oid:2.16.840.1.113883.2.51.999",
            "value": "2bd5ebdb-1710-45ed-8fd3-44c88a647253"
          }
        ],
        "extension": [
          {
            "url": "http://hl7.org/fhir/5.0/StructureDefinition/extension-DiagnosticReport.composition",
            "valueReference": {
              "reference": "urn:uuid:83eed49d-55ac-4db5-bc1a-b4ee945acf92"
            }
          }
        ],
        "category": [
          {
            "coding": [
              {
                "code": "26436-6",
                "system": "http://loinc.org",
                "display": "Laboratory studies (set)"
              }
            ]
          }
        ],
        "specimen": [
          {
            "reference": "urn:uuid:4c750e1d-9103-44b0-be89-c5bb407b1cde"
          },
          {
            "reference": "urn:uuid:f84dc98a-5165-4eb3-94ea-5754d1f98074"
          },
          {
            "reference": "urn:uuid:a21dc520-9de5-405a-8ea7-223ef2deb89b"
          },
          {
            "reference": "urn:uuid:e98e366e-5d4d-42ad-acc6-05039a1000a7"
          }
        ],
        "result": [
          {
            "reference": "urn:uuid:007353d5-81e1-4155-8c62-12f4ab990c51"
          },
          {
            "reference": "urn:uuid:6eeda23e-f045-4fbd-9d14-deca610f12e5"
          },
          {
            "reference": "urn:uuid:c6ded1b2-8a4a-4493-bcdd-05f81702789b"
          },
          {
            "reference": "urn:uuid:8d09a89f-7fae-48da-b6a8-fb459b7b91d3"
          },
          {
            "reference": "urn:uuid:aa7ac487-0fe2-469a-93b6-c39999e39715"
          },
          {
            "reference": "urn:uuid:57bc724a-cca9-4705-ab21-a6b160bc5319"
          },
          {
            "reference": "urn:uuid:9aea50da-a018-4461-9b7a-7aa8a6df82fa"
          },
          {
            "reference": "urn:uuid:7b79e2b1-1052-4edd-bf55-3a52eb3811f3"
          },
          {
            "reference": "urn:uuid:0cfb1b64-4356-42f5-93ee-07d27d740fab"
          },
          {
            "reference": "urn:uuid:a5b2ade0-083d-4c28-95fc-f2d850288730"
          },
          {
            "reference": "urn:uuid:d03519bd-6fb3-47f5-a208-6f811c2cd9a6"
          },
          {
            "reference": "urn:uuid:7ae0aa8c-59ba-41fa-b542-d47d72401fd2"
          },
          {
            "reference": "urn:uuid:1fdc4208-04e2-4330-b766-85ff872dc667"
          },
          {
            "reference": "urn:uuid:b8009c07-a870-47de-979e-869da2e3294b"
          },
          {
            "reference": "urn:uuid:62a5e48d-0a51-49e3-a78f-5b1af6346da8"
          },
          {
            "reference": "urn:uuid:a2c2e98c-6dfd-4db0-99ca-e411451c0248"
          },
          {
            "reference": "urn:uuid:61604535-1cbf-4b38-8619-2a3381f1acce"
          },
          {
            "reference": "urn:uuid:9d5b78eb-9cd4-4d34-8813-c077cb335f80"
          },
          {
            "reference": "urn:uuid:e1d6f382-5cc5-4878-b42d-ca627f664872"
          },
          {
            "reference": "urn:uuid:c1d7951a-ed62-466b-bae0-fecf68fd8b2a"
          },
          {
            "reference": "urn:uuid:be2b42f6-838a-4bec-9cd7-c71a323f9596"
          },
          {
            "reference": "urn:uuid:0fb45938-dab7-4750-8209-5e08da1ce11d"
          },
          {
            "reference": "urn:uuid:8e8d5871-9437-476e-bef4-86487106ac82"
          },
          {
            "reference": "urn:uuid:de17b392-2de9-45a9-bb61-68da4ddfadcc"
          },
          {
            "reference": "urn:uuid:fb8a7dd0-4835-4d31-a635-063e1b131a28"
          },
          {
            "reference": "urn:uuid:d9435832-908e-45d5-bafa-5f1aee083770"
          },
          {
            "reference": "urn:uuid:67f7e08d-039d-41c9-b25b-62eb06d0b0a8"
          },
          {
            "reference": "urn:uuid:dfecc9e0-300f-499e-b693-80c42f54be3b"
          },
          {
            "reference": "urn:uuid:01628e13-f1e5-4be3-b149-382c9ad76394"
          },
          {
            "reference": "urn:uuid:b91aa9fd-64d7-4258-ad76-a5d34f710cb5"
          },
          {
            "reference": "urn:uuid:7a8c5250-7cdd-443d-ae24-5e1720ecbca0"
          },
          {
            "reference": "urn:uuid:c4762097-b2de-4c7c-8781-9db787a6a384"
          }
        ],
        "status": "registered",
        "code": {
          "coding": [
            {
              "code": "11502-2",
              "system": "http://loinc.org",
              "display": "Laboratory report"
            }
          ]
        },
        "subject": {
          "reference": "urn:uuid:7f3a8ae1-e6f2-449a-81f7-a174052e777b",
          "display": "Maria Nohlmans"
        }
      }
    },
    {
      "fullUrl": "urn:uuid:7f3a8ae1-e6f2-449a-81f7-a174052e777b",
      "resource": {
        "resourceType": "Patient",
        "id": "7f3a8ae1-e6f2-449a-81f7-a174052e777b",
        "meta": {
          "security": [
            {
              "system": "http://terminology.hl7.org/CodeSystem/v3-ActReason",
              "code": "HTEST"
            },
            {
              "system": "http://terminology.hl7.org/CodeSystem/v3-ActReason",
              "code": "TRAIN"
            }
          ],
          "tag": [
            {
              "system": "https://synderai.net/fhir/CodeSystem/tags",
              "code": "synthetic",
              "display": "SYNDERAI Synthetic data"
            }
          ],
          "profile": [
            "http://hl7.eu/fhir/base/StructureDefinition/patient-eu-core"
          ]
        },
        "identifier": [
          {
            "type": {
              "coding": [
                {
                  "code": "PT",
                  "system": "http://terminology.hl7.org/CodeSystem/v2-0203"
                }
              ]
            },
            "system": "http://ec.europa.eu/identifier/eci",
            "value": "6886-506417-1"
          },
          {
            "type": {
              "coding": [
                {
                  "code": "MR",
                  "system": "http://terminology.hl7.org/CodeSystem/v2-0203"
                }
              ]
            },
            "system": "http://local.setting.eu/identifier",
            "value": "2cb21ed6-b617-b1f3-2290-589a710de5ee"
          }
        ],
        "name": [
          {
            "family": "Nohlmans"
          },
          {
            "given": [
              "Maria"
            ]
          },
          {
            "text": "Maria Nohlmans"
          }
        ],
        "address": [
          {
            "line": [
              "Alfons-Wulff-Weg 1"
            ],
            "use": "home",
            "type": "physical",
            "postalCode": "25813",
            "city": "Husum",
            "country": "Germany"
          }
        ],
        "telecom": [
          {
            "system": "phone",
            "value": "+49(0)1911 105501"
          }
        ],
        "extension": [
          {
            "url": "http://hl7.org/fhir/StructureDefinition/patient-nationality",
            "valueCodeableConcept": {
              "coding": [
                {
                  "code": "DE",
                  "system": "http://hl7.org/fhir/ValueSet/country"
                }
              ]
            }
          }
        ],
        "text": {
          "status": "generated",
          "div": "<div xmlns=\"http://www.w3.org/1999/xhtml\"><table class=\"hl7__ips\"><tr><td>Maria Nohlmans</td><td>female</td><td>11-Jun-1947</td></tr></table></div>"
        },
        "gender": "female",
        "birthDate": "1947-06-11"
      }
    },
    {
      "fullUrl": "urn:uuid:75328847-c86c-4ef4-bce2-5ac288577a44",
      "resource": {
        "resourceType": "ServiceRequest",
        "id": "75328847-c86c-4ef4-bce2-5ac288577a44",
        "meta": {
          "profile": [
            "http://hl7.eu/fhir/laboratory/StructureDefinition/ServiceRequest-eu-lab"
          ]
        },
        "identifier": [
          {
            "system": "http://example.org",
            "value": "45274802-36b3-48a6-b312-9a5486dfb572"
          }
        ],
        "specimen": [
          {
            "reference": "urn:uuid:4c750e1d-9103-44b0-be89-c5bb407b1cde"
          },
          {
            "reference": "urn:uuid:f84dc98a-5165-4eb3-94ea-5754d1f98074"
          },
          {
            "reference": "urn:uuid:a21dc520-9de5-405a-8ea7-223ef2deb89b"
          },
          {
            "reference": "urn:uuid:e98e366e-5d4d-42ad-acc6-05039a1000a7"
          }
        ],
        "reasonCode": [
          {
            "coding": [
              {
                "code": "401314000",
                "system": "http://snomed.info/sct",
                "display": "Acute non-ST segment elevation myocardial infarction"
              }
            ]
          },
          {
            "coding": [
              {
                "code": "157141000119108",
                "system": "http://snomed.info/sct",
                "display": "Proteinuria due to type 2 diabetes mellitus"
              }
            ]
          },
          {
            "coding": [
              {
                "code": "237602007",
                "system": "http://snomed.info/sct",
                "display": "Metabolic syndrome X"
              }
            ]
          },
          {
            "coding": [
              {
                "code": "90781000119102",
                "system": "http://snomed.info/sct",
                "display": "Microalbuminuria due to type 2 diabetes mellitus"
              }
            ]
          },
          {
            "coding": [
              {
                "code": "127013003",
                "system": "http://snomed.info/sct",
                "display": "Disorder of kidney due to diabetes mellitus"
              }
            ]
          },
          {
            "coding": [
              {
                "code": "59621000",
                "system": "http://snomed.info/sct",
                "display": "Essential hypertension"
              }
            ]
          },
          {
            "coding": [
              {
                "code": "271737000",
                "system": "http://snomed.info/sct",
                "display": "Anemia"
              }
            ]
          },
          {
            "coding": [
              {
                "code": "15777000",
                "system": "http://snomed.info/sct",
                "display": "Prediabetes"
              }
            ]
          }
        ],
        "status": "active",
        "intent": "order",
        "code": {
          "coding": [
            {
              "code": "108252007",
              "system": "http://snomed.info/sct",
              "display": "Laboratory procedure"
            }
          ]
        },
        "subject": {
          "reference": "urn:uuid:7f3a8ae1-e6f2-449a-81f7-a174052e777b",
          "display": "Maria Nohlmans"
        },
        "requester": {
          "reference": "urn:uuid:f53de0c2-88ff-4548-9a44-0b1a749fd434"
        }
      }
    },
    {
      "fullUrl": "urn:uuid:f53de0c2-88ff-4548-9a44-0b1a749fd434",
      "resource": {
        "resourceType": "PractitionerRole",
        "id": "f53de0c2-88ff-4548-9a44-0b1a749fd434",
        "meta": {
          "profile": [
            "http://hl7.eu/fhir/base/StructureDefinition/practitionerRole-eu"
          ]
        },
        "text": {
          "status": "generated",
          "div": "<div xmlns=\"http://www.w3.org/1999/xhtml\">Provider Role Id: f53de0c2-88ff-4548-9a44-0b1a749fd434</div>"
        },
        "organization": {
          "reference": "urn:uuid:c921dc6e-c2d9-455d-9348-f2d270280eb6"
        }
      }
    },
    {
      "fullUrl": "urn:uuid:c921dc6e-c2d9-455d-9348-f2d270280eb6",
      "resource": {
        "resourceType": "Organization",
        "id": "c921dc6e-c2d9-455d-9348-f2d270280eb6",
        "meta": {
          "profile": [
            "http://hl7.eu/fhir/base/StructureDefinition/organization-eu"
          ]
        },
        "identifier": [
          {
            "assigner": {
              "display": "HL7 Europe"
            },
            "system": "urn:oid:2.16.840.1.113883.2.51.999",
            "value": "d13eb030-5263-4dd2-9d55-14f83fa48423"
          }
        ],
        "address": [
          {
            "line": [
              "Brinckmannstraße 35"
            ],
            "city": "Husum",
            "postalCode": "25813",
            "country": "Germany"
          }
        ],
        "text": {
          "status": "generated",
          "div": "<div xmlns=\"http://www.w3.org/1999/xhtml\">Provider Organization: Dr. Wolfram Hussels Kieferorthopäde</div>"
        },
        "name": "Dr. Wolfram Hussels Kieferorthopäde"
      }
    },
    {
      "fullUrl": "urn:uuid:4c750e1d-9103-44b0-be89-c5bb407b1cde",
      "resource": {
        "resourceType": "Specimen",
        "id": "4c750e1d-9103-44b0-be89-c5bb407b1cde",
        "meta": {
          "profile": [
            "http://hl7.eu/fhir/laboratory/StructureDefinition/Specimen-eu-lab"
          ]
        },
        "collection": {
          "collectedDateTime": "2016-07-23"
        },
        "text": {
          "status": "generated",
          "div": "<div xmlns=\"http://www.w3.org/1999/xhtml\"><table class=\"hl7__eu__lab__report\"><tr><th>Specimen</th><th>Collection Date</th></tr><tr><td>Whole blood specimen (specimen)</td><td><span class=\"nb\">23-Jul-2016</span></td></tr></table></div>"
        },
        "type": {
          "coding": [
            {
              "code": "258580003",
              "system": "http://snomed.info/sct",
              "display": "Whole blood specimen (specimen)"
            }
          ]
        }
      }
    },
    {
      "fullUrl": "urn:uuid:f84dc98a-5165-4eb3-94ea-5754d1f98074",
      "resource": {
        "resourceType": "Specimen",
        "id": "f84dc98a-5165-4eb3-94ea-5754d1f98074",
        "meta": {
          "profile": [
            "http://hl7.eu/fhir/laboratory/StructureDefinition/Specimen-eu-lab"
          ]
        },
        "collection": {
          "collectedDateTime": "2016-07-23"
        },
        "text": {
          "status": "generated",
          "div": "<div xmlns=\"http://www.w3.org/1999/xhtml\"><table class=\"hl7__eu__lab__report\"><tr><th>Specimen</th><th>Collection Date</th></tr><tr><td>Acellular blood (serum or plasma) specimen</td><td><span class=\"nb\">23-Jul-2016</span></td></tr></table></div>"
        },
        "type": {
          "coding": [
            {
              "code": "122592007",
              "system": "http://snomed.info/sct",
              "display": "Acellular blood (serum or plasma) specimen"
            }
          ]
        }
      }
    },
    {
      "fullUrl": "urn:uuid:a21dc520-9de5-405a-8ea7-223ef2deb89b",
      "resource": {
        "resourceType": "Specimen",
        "id": "a21dc520-9de5-405a-8ea7-223ef2deb89b",
        "meta": {
          "profile": [
            "http://hl7.eu/fhir/laboratory/StructureDefinition/Specimen-eu-lab"
          ]
        },
        "collection": {
          "collectedDateTime": "2016-07-23"
        },
        "text": {
          "status": "generated",
          "div": "<div xmlns=\"http://www.w3.org/1999/xhtml\"><table class=\"hl7__eu__lab__report\"><tr><th>Specimen</th><th>Collection Date</th></tr><tr><td>Serum specimen</td><td><span class=\"nb\">23-Jul-2016</span></td></tr></table></div>"
        },
        "type": {
          "coding": [
            {
              "code": "119364003",
              "system": "http://snomed.info/sct",
              "display": "Serum specimen"
            }
          ]
        }
      }
    },
    {
      "fullUrl": "urn:uuid:e98e366e-5d4d-42ad-acc6-05039a1000a7",
      "resource": {
        "resourceType": "Specimen",
        "id": "e98e366e-5d4d-42ad-acc6-05039a1000a7",
        "meta": {
          "profile": [
            "http://hl7.eu/fhir/laboratory/StructureDefinition/Specimen-eu-lab"
          ]
        },
        "collection": {
          "collectedDateTime": "2016-07-23"
        },
        "text": {
          "status": "generated",
          "div": "<div xmlns=\"http://www.w3.org/1999/xhtml\"><table class=\"hl7__eu__lab__report\"><tr><th>Specimen</th><th>Collection Date</th></tr><tr><td>Urine specimen</td><td><span class=\"nb\">23-Jul-2016</span></td></tr></table></div>"
        },
        "type": {
          "coding": [
            {
              "code": "122575003",
              "system": "http://snomed.info/sct",
              "display": "Urine specimen"
            }
          ]
        }
      }
    },
    {
      "fullUrl": "urn:uuid:007353d5-81e1-4155-8c62-12f4ab990c51",
      "resource": {
        "resourceType": "Observation",
        "id": "007353d5-81e1-4155-8c62-12f4ab990c51",
        "meta": {
          "profile": [
            "http://hl7.eu/fhir/laboratory/StructureDefinition/Observation-resultslab-eu-lab"
          ]
        },
        "performer": [
          {
            "display": "The Central European Lab"
          }
        ],
        "category": [
          {
            "coding": [
              {
                "system": "http://terminology.hl7.org/CodeSystem/observation-category",
                "code": "laboratory"
              }
            ]
          }
        ],
        "code": {
          "coding": [
            {
              "code": "2339-0",
              "system": "http://loinc.org",
              "display": "Glucose [Mass/volume] in Blood"
            }
          ],
          "text": "Glucose [Mass/volume] in Blood"
        },
        "valueQuantity": {
          "system": "http://unitsofmeasure.org",
          "value": 74.3,
          "unit": "mg/dL",
          "code": "mg/dL"
        },
        "referenceRange": [
          {
            "low": {
              "value": 70,
              "code": "mg/dL",
              "system": "http://unitsofmeasure.org"
            }
          },
          {
            "high": {
              "value": 140,
              "code": "mg/dL",
              "system": "http://unitsofmeasure.org"
            }
          }
        ],
        "text": {
          "status": "generated",
          "div": "<div xmlns=\"http://www.w3.org/1999/xhtml\"><table class=\"hl7__eu__lab__report\"><tr><th>Test</th><th>23-Jul-2016</th><th>Reference&#xA0;Range</th><th>Unit</th></tr><tr><td>Glucose [Mass/volume] in Blood</td><td>74.3</td><td>70 - 140</td><td></td><td>mg/dL</td></tr></table></div>"
        },
        "status": "final",
        "subject": {
          "reference": "urn:uuid:7f3a8ae1-e6f2-449a-81f7-a174052e777b",
          "display": "Maria Nohlmans"
        },
        "effectiveDateTime": "2016-07-23T06:00:39Z",
        "specimen": {
          "reference": "urn:uuid:4c750e1d-9103-44b0-be89-c5bb407b1cde"
        }
      }
    },
    {
      "fullUrl": "urn:uuid:6eeda23e-f045-4fbd-9d14-deca610f12e5",
      "resource": {
        "resourceType": "Observation",
        "id": "6eeda23e-f045-4fbd-9d14-deca610f12e5",
        "meta": {
          "profile": [
            "http://hl7.eu/fhir/laboratory/StructureDefinition/Observation-resultslab-eu-lab"
          ]
        },
        "performer": [
          {
            "display": "The Central European Lab"
          }
        ],
        "category": [
          {
            "coding": [
              {
                "system": "http://terminology.hl7.org/CodeSystem/observation-category",
                "code": "laboratory"
              }
            ]
          }
        ],
        "code": {
          "coding": [
            {
              "code": "6299-2",
              "system": "http://loinc.org",
              "display": "Urea nitrogen [Mass/volume] in Blood"
            }
          ],
          "text": "Urea nitrogen [Mass/volume] in Blood"
        },
        "valueQuantity": {
          "system": "http://unitsofmeasure.org",
          "value": 17.2,
          "unit": "mg/dL",
          "code": "mg/dL"
        },
        "referenceRange": [
          {
            "low": {
              "value": 7,
              "code": "mg/dL",
              "system": "http://unitsofmeasure.org"
            }
          },
          {
            "high": {
              "value": 30,
              "code": "mg/dL",
              "system": "http://unitsofmeasure.org"
            }
          }
        ],
        "text": {
          "status": "generated",
          "div": "<div xmlns=\"http://www.w3.org/1999/xhtml\"><table class=\"hl7__eu__lab__report\"><tr><th>Test</th><th>23-Jul-2016</th><th>Reference&#xA0;Range</th><th>Unit</th></tr><tr><td>Urea nitrogen [Mass/volume] in Blood</td><td>17.2</td><td>7 - 30</td><td></td><td>mg/dL</td></tr></table></div>"
        },
        "status": "final",
        "subject": {
          "reference": "urn:uuid:7f3a8ae1-e6f2-449a-81f7-a174052e777b",
          "display": "Maria Nohlmans"
        },
        "effectiveDateTime": "2016-07-23T06:00:39Z",
        "specimen": {
          "reference": "urn:uuid:4c750e1d-9103-44b0-be89-c5bb407b1cde"
        }
      }
    },
    {
      "fullUrl": "urn:uuid:c6ded1b2-8a4a-4493-bcdd-05f81702789b",
      "resource": {
        "resourceType": "Observation",
        "id": "c6ded1b2-8a4a-4493-bcdd-05f81702789b",
        "meta": {
          "profile": [
            "http://hl7.eu/fhir/laboratory/StructureDefinition/Observation-resultslab-eu-lab"
          ]
        },
        "performer": [
          {
            "display": "The Central European Lab"
          }
        ],
        "category": [
          {
            "coding": [
              {
                "system": "http://terminology.hl7.org/CodeSystem/observation-category",
                "code": "laboratory"
              }
            ]
          }
        ],
        "code": {
          "coding": [
            {
              "code": "38483-4",
              "system": "http://loinc.org",
              "display": "Creatinine [Mass/volume] in Blood"
            }
          ],
          "text": "Creatinine [Mass/volume] in Blood"
        },
        "valueQuantity": {
          "system": "http://unitsofmeasure.org",
          "value": 2.7,
          "unit": "mg/dL",
          "code": "mg/dL"
        },
        "referenceRange": [
          {
            "low": {
              "value": 0.5,
              "code": "mg/dL",
              "system": "http://unitsofmeasure.org"
            }
          },
          {
            "high": {
              "value": 1.3,
              "code": "mg/dL",
              "system": "http://unitsofmeasure.org"
            }
          }
        ],
        "interpretation": [
          {
            "coding": [
              {
                "code": "H",
                "system": "http://terminology.hl7.org/CodeSystem/v3-ObservationInterpretation",
                "display": "High"
              }
            ]
          }
        ],
        "text": {
          "status": "generated",
          "div": "<div xmlns=\"http://www.w3.org/1999/xhtml\"><table class=\"hl7__eu__lab__report\"><tr><th>Test</th><th>23-Jul-2016</th><th>Reference&#xA0;Range</th><th>Unit</th></tr><tr><td>Creatinine [Mass/volume] in Blood</td><td>2.7</td><td>0.5 - 1.3</td><td>H</td><td>mg/dL</td></tr></table></div>"
        },
        "status": "final",
        "subject": {
          "reference": "urn:uuid:7f3a8ae1-e6f2-449a-81f7-a174052e777b",
          "display": "Maria Nohlmans"
        },
        "effectiveDateTime": "2016-07-23T06:00:39Z",
        "specimen": {
          "reference": "urn:uuid:4c750e1d-9103-44b0-be89-c5bb407b1cde"
        }
      }
    },
    {
      "fullUrl": "urn:uuid:8d09a89f-7fae-48da-b6a8-fb459b7b91d3",
      "resource": {
        "resourceType": "Observation",
        "id": "8d09a89f-7fae-48da-b6a8-fb459b7b91d3",
        "meta": {
          "profile": [
            "http://hl7.eu/fhir/laboratory/StructureDefinition/Observation-resultslab-eu-lab"
          ]
        },
        "performer": [
          {
            "display": "The Central European Lab"
          }
        ],
        "category": [
          {
            "coding": [
              {
                "system": "http://terminology.hl7.org/CodeSystem/observation-category",
                "code": "laboratory"
              }
            ]
          }
        ],
        "code": {
          "coding": [
            {
              "code": "49765-1",
              "system": "http://loinc.org",
              "display": "Calcium [Mass/volume] in Blood"
            }
          ],
          "text": "Calcium [Mass/volume] in Blood"
        },
        "valueQuantity": {
          "system": "http://unitsofmeasure.org",
          "value": 9.9,
          "unit": "mg/dL",
          "code": "mg/dL"
        },
        "referenceRange": [
          {
            "low": {
              "value": 8.6,
              "code": "mg/dL",
              "system": "http://unitsofmeasure.org"
            }
          },
          {
            "high": {
              "value": 10.2,
              "code": "mg/dL",
              "system": "http://unitsofmeasure.org"
            }
          }
        ],
        "text": {
          "status": "generated",
          "div": "<div xmlns=\"http://www.w3.org/1999/xhtml\"><table class=\"hl7__eu__lab__report\"><tr><th>Test</th><th>23-Jul-2016</th><th>Reference&#xA0;Range</th><th>Unit</th></tr><tr><td>Calcium [Mass/volume] in Blood</td><td>9.9</td><td>8.6 - 10.2</td><td></td><td>mg/dL</td></tr></table></div>"
        },
        "status": "final",
        "subject": {
          "reference": "urn:uuid:7f3a8ae1-e6f2-449a-81f7-a174052e777b",
          "display": "Maria Nohlmans"
        },
        "effectiveDateTime": "2016-07-23T06:00:39Z",
        "specimen": {
          "reference": "urn:uuid:4c750e1d-9103-44b0-be89-c5bb407b1cde"
        }
      }
    },
    {
      "fullUrl": "urn:uuid:aa7ac487-0fe2-469a-93b6-c39999e39715",
      "resource": {
        "resourceType": "Observation",
        "id": "aa7ac487-0fe2-469a-93b6-c39999e39715",
        "meta": {
          "profile": [
            "http://hl7.eu/fhir/laboratory/StructureDefinition/Observation-resultslab-eu-lab"
          ]
        },
        "performer": [
          {
            "display": "The Central European Lab"
          }
        ],
        "category": [
          {
            "coding": [
              {
                "system": "http://terminology.hl7.org/CodeSystem/observation-category",
                "code": "laboratory"
              }
            ]
          }
        ],
        "code": {
          "coding": [
            {
              "code": "2947-0",
              "system": "http://loinc.org",
              "display": "Sodium [Moles/volume] in Blood"
            }
          ],
          "text": "Sodium [Moles/volume] in Blood"
        },
        "valueQuantity": {
          "system": "http://unitsofmeasure.org",
          "value": 138.6,
          "unit": "mmol/L",
          "code": "mmol/L"
        },
        "referenceRange": [
          {
            "low": {
              "value": 135,
              "code": "mmol/L",
              "system": "http://unitsofmeasure.org"
            }
          },
          {
            "high": {
              "value": 145,
              "code": "mmol/L",
              "system": "http://unitsofmeasure.org"
            }
          }
        ],
        "text": {
          "status": "generated",
          "div": "<div xmlns=\"http://www.w3.org/1999/xhtml\"><table class=\"hl7__eu__lab__report\"><tr><th>Test</th><th>23-Jul-2016</th><th>Reference&#xA0;Range</th><th>Unit</th></tr><tr><td>Sodium [Moles/volume] in Blood</td><td>138.6</td><td>135 - 145</td><td></td><td>mmol/L</td></tr></table></div>"
        },
        "status": "final",
        "subject": {
          "reference": "urn:uuid:7f3a8ae1-e6f2-449a-81f7-a174052e777b",
          "display": "Maria Nohlmans"
        },
        "effectiveDateTime": "2016-07-23T06:00:39Z",
        "specimen": {
          "reference": "urn:uuid:4c750e1d-9103-44b0-be89-c5bb407b1cde"
        }
      }
    },
    {
      "fullUrl": "urn:uuid:57bc724a-cca9-4705-ab21-a6b160bc5319",
      "resource": {
        "resourceType": "Observation",
        "id": "57bc724a-cca9-4705-ab21-a6b160bc5319",
        "meta": {
          "profile": [
            "http://hl7.eu/fhir/laboratory/StructureDefinition/Observation-resultslab-eu-lab"
          ]
        },
        "performer": [
          {
            "display": "The Central European Lab"
          }
        ],
        "category": [
          {
            "coding": [
              {
                "system": "http://terminology.hl7.org/CodeSystem/observation-category",
                "code": "laboratory"
              }
            ]
          }
        ],
        "code": {
          "coding": [
            {
              "code": "6298-4",
              "system": "http://loinc.org",
              "display": "Potassium [Moles/volume] in Blood"
            }
          ],
          "text": "Potassium [Moles/volume] in Blood"
        },
        "valueQuantity": {
          "system": "http://unitsofmeasure.org",
          "value": 4.4,
          "unit": "mmol/L",
          "code": "mmol/L"
        },
        "referenceRange": [
          {
            "low": {
              "value": 3.5,
              "code": "mmol/L",
              "system": "http://unitsofmeasure.org"
            }
          },
          {
            "high": {
              "value": 5.1,
              "code": "mmol/L",
              "system": "http://unitsofmeasure.org"
            }
          }
        ],
        "text": {
          "status": "generated",
          "div": "<div xmlns=\"http://www.w3.org/1999/xhtml\"><table class=\"hl7__eu__lab__report\"><tr><th>Test</th><th>23-Jul-2016</th><th>Reference&#xA0;Range</th><th>Unit</th></tr><tr><td>Potassium [Moles/volume] in Blood</td><td>4.4</td><td>3.5 - 5.1</td><td></td><td>mmol/L</td></tr></table></div>"
        },
        "status": "final",
        "subject": {
          "reference": "urn:uuid:7f3a8ae1-e6f2-449a-81f7-a174052e777b",
          "display": "Maria Nohlmans"
        },
        "effectiveDateTime": "2016-07-23T06:00:39Z",
        "specimen": {
          "reference": "urn:uuid:4c750e1d-9103-44b0-be89-c5bb407b1cde"
        }
      }
    },
    {
      "fullUrl": "urn:uuid:9aea50da-a018-4461-9b7a-7aa8a6df82fa",
      "resource": {
        "resourceType": "Observation",
        "id": "9aea50da-a018-4461-9b7a-7aa8a6df82fa",
        "meta": {
          "profile": [
            "http://hl7.eu/fhir/laboratory/StructureDefinition/Observation-resultslab-eu-lab"
          ]
        },
        "performer": [
          {
            "display": "The Central European Lab"
          }
        ],
        "category": [
          {
            "coding": [
              {
                "system": "http://terminology.hl7.org/CodeSystem/observation-category",
                "code": "laboratory"
              }
            ]
          }
        ],
        "code": {
          "coding": [
            {
              "code": "2069-3",
              "system": "http://loinc.org",
              "display": "Chloride [Moles/volume] in Blood"
            }
          ],
          "text": "Chloride [Moles/volume] in Blood"
        },
        "valueQuantity": {
          "system": "http://unitsofmeasure.org",
          "value": 108.5,
          "unit": "mmol/L",
          "code": "mmol/L"
        },
        "referenceRange": [
          {
            "low": {
              "value": 98,
              "code": "mmol/L",
              "system": "http://unitsofmeasure.org"
            }
          },
          {
            "high": {
              "value": 114,
              "code": "mmol/L",
              "system": "http://unitsofmeasure.org"
            }
          }
        ],
        "text": {
          "status": "generated",
          "div": "<div xmlns=\"http://www.w3.org/1999/xhtml\"><table class=\"hl7__eu__lab__report\"><tr><th>Test</th><th>23-Jul-2016</th><th>Reference&#xA0;Range</th><th>Unit</th></tr><tr><td>Chloride [Moles/volume] in Blood</td><td>108.5</td><td>98 - 114</td><td></td><td>mmol/L</td></tr></table></div>"
        },
        "status": "final",
        "subject": {
          "reference": "urn:uuid:7f3a8ae1-e6f2-449a-81f7-a174052e777b",
          "display": "Maria Nohlmans"
        },
        "effectiveDateTime": "2016-07-23T06:00:39Z",
        "specimen": {
          "reference": "urn:uuid:4c750e1d-9103-44b0-be89-c5bb407b1cde"
        }
      }
    },
    {
      "fullUrl": "urn:uuid:7b79e2b1-1052-4edd-bf55-3a52eb3811f3",
      "resource": {
        "resourceType": "Observation",
        "id": "7b79e2b1-1052-4edd-bf55-3a52eb3811f3",
        "meta": {
          "profile": [
            "http://hl7.eu/fhir/laboratory/StructureDefinition/Observation-resultslab-eu-lab"
          ]
        },
        "performer": [
          {
            "display": "The Central European Lab"
          }
        ],
        "category": [
          {
            "coding": [
              {
                "system": "http://terminology.hl7.org/CodeSystem/observation-category",
                "code": "laboratory"
              }
            ]
          }
        ],
        "code": {
          "coding": [
            {
              "code": "20565-8",
              "system": "http://loinc.org",
              "display": "Carbon dioxide, total [Moles/volume] in Blood"
            }
          ],
          "text": "Carbon dioxide, total [Moles/volume] in Blood"
        },
        "valueQuantity": {
          "system": "http://unitsofmeasure.org",
          "value": 27.3,
          "unit": "mmol/L",
          "code": "mmol/L"
        },
        "referenceRange": [
          {
            "low": {
              "value": 22,
              "code": "mmol/L",
              "system": "http://unitsofmeasure.org"
            }
          },
          {
            "high": {
              "value": 32,
              "code": "mmol/L",
              "system": "http://unitsofmeasure.org"
            }
          }
        ],
        "text": {
          "status": "generated",
          "div": "<div xmlns=\"http://www.w3.org/1999/xhtml\"><table class=\"hl7__eu__lab__report\"><tr><th>Test</th><th>23-Jul-2016</th><th>Reference&#xA0;Range</th><th>Unit</th></tr><tr><td>Carbon dioxide, total [Moles/volume] in Blood</td><td>27.3</td><td>22 - 32</td><td></td><td>mmol/L</td></tr></table></div>"
        },
        "status": "final",
        "subject": {
          "reference": "urn:uuid:7f3a8ae1-e6f2-449a-81f7-a174052e777b",
          "display": "Maria Nohlmans"
        },
        "effectiveDateTime": "2016-07-23T06:00:39Z",
        "specimen": {
          "reference": "urn:uuid:4c750e1d-9103-44b0-be89-c5bb407b1cde"
        }
      }
    },
    {
      "fullUrl": "urn:uuid:0cfb1b64-4356-42f5-93ee-07d27d740fab",
      "resource": {
        "resourceType": "Observation",
        "id": "0cfb1b64-4356-42f5-93ee-07d27d740fab",
        "meta": {
          "profile": [
            "http://hl7.eu/fhir/laboratory/StructureDefinition/Observation-resultslab-eu-lab"
          ]
        },
        "performer": [
          {
            "display": "The Central European Lab"
          }
        ],
        "category": [
          {
            "coding": [
              {
                "system": "http://terminology.hl7.org/CodeSystem/observation-category",
                "code": "laboratory"
              }
            ]
          }
        ],
        "code": {
          "coding": [
            {
              "code": "2885-2",
              "system": "http://loinc.org",
              "display": "Protein [Mass/volume] in Serum or Plasma"
            }
          ],
          "text": "Protein [Mass/volume] in Serum or Plasma"
        },
        "valueQuantity": {
          "system": "http://unitsofmeasure.org",
          "value": 7.8,
          "unit": "g/dL",
          "code": "g/dL"
        },
        "referenceRange": [
          {
            "low": {
              "value": 6,
              "code": "g/dL",
              "system": "http://unitsofmeasure.org"
            }
          },
          {
            "high": {
              "value": 8.3,
              "code": "g/dL",
              "system": "http://unitsofmeasure.org"
            }
          }
        ],
        "text": {
          "status": "generated",
          "div": "<div xmlns=\"http://www.w3.org/1999/xhtml\"><table class=\"hl7__eu__lab__report\"><tr><th>Test</th><th>23-Jul-2016</th><th>Reference&#xA0;Range</th><th>Unit</th></tr><tr><td>Protein [Mass/volume] in Serum or Plasma</td><td>7.8</td><td>6 - 8.3</td><td></td><td>g/dL</td></tr></table></div>"
        },
        "status": "final",
        "subject": {
          "reference": "urn:uuid:7f3a8ae1-e6f2-449a-81f7-a174052e777b",
          "display": "Maria Nohlmans"
        },
        "effectiveDateTime": "2016-07-23T06:00:39Z",
        "specimen": {
          "reference": "urn:uuid:f84dc98a-5165-4eb3-94ea-5754d1f98074"
        }
      }
    },
    {
      "fullUrl": "urn:uuid:a5b2ade0-083d-4c28-95fc-f2d850288730",
      "resource": {
        "resourceType": "Observation",
        "id": "a5b2ade0-083d-4c28-95fc-f2d850288730",
        "meta": {
          "profile": [
            "http://hl7.eu/fhir/laboratory/StructureDefinition/Observation-resultslab-eu-lab"
          ]
        },
        "performer": [
          {
            "display": "The Central European Lab"
          }
        ],
        "category": [
          {
            "coding": [
              {
                "system": "http://terminology.hl7.org/CodeSystem/observation-category",
                "code": "laboratory"
              }
            ]
          }
        ],
        "code": {
          "coding": [
            {
              "code": "1751-7",
              "system": "http://loinc.org",
              "display": "Albumin [Mass/volume] in Serum or Plasma"
            }
          ],
          "text": "Albumin [Mass/volume] in Serum or Plasma"
        },
        "valueQuantity": {
          "system": "http://unitsofmeasure.org",
          "value": 5.1,
          "unit": "g/dL",
          "code": "g/dL"
        },
        "referenceRange": [
          {
            "low": {
              "value": 3.5,
              "code": "g/dL",
              "system": "http://unitsofmeasure.org"
            }
          },
          {
            "high": {
              "value": 5.5,
              "code": "g/dL",
              "system": "http://unitsofmeasure.org"
            }
          }
        ],
        "text": {
          "status": "generated",
          "div": "<div xmlns=\"http://www.w3.org/1999/xhtml\"><table class=\"hl7__eu__lab__report\"><tr><th>Test</th><th>23-Jul-2016</th><th>Reference&#xA0;Range</th><th>Unit</th></tr><tr><td>Albumin [Mass/volume] in Serum or Plasma</td><td>5.1</td><td>3.5 - 5.5</td><td></td><td>g/dL</td></tr></table></div>"
        },
        "status": "final",
        "subject": {
          "reference": "urn:uuid:7f3a8ae1-e6f2-449a-81f7-a174052e777b",
          "display": "Maria Nohlmans"
        },
        "effectiveDateTime": "2016-07-23T06:00:39Z",
        "specimen": {
          "reference": "urn:uuid:f84dc98a-5165-4eb3-94ea-5754d1f98074"
        }
      }
    },
    {
      "fullUrl": "urn:uuid:d03519bd-6fb3-47f5-a208-6f811c2cd9a6",
      "resource": {
        "resourceType": "Observation",
        "id": "d03519bd-6fb3-47f5-a208-6f811c2cd9a6",
        "meta": {
          "profile": [
            "http://hl7.eu/fhir/laboratory/StructureDefinition/Observation-resultslab-eu-lab"
          ]
        },
        "performer": [
          {
            "display": "The Central European Lab"
          }
        ],
        "category": [
          {
            "coding": [
              {
                "system": "http://terminology.hl7.org/CodeSystem/observation-category",
                "code": "laboratory"
              }
            ]
          }
        ],
        "code": {
          "coding": [
            {
              "code": "10834-0",
              "system": "http://loinc.org",
              "display": "Globulin [Mass/volume] in Serum by calculation"
            }
          ],
          "text": "Globulin [Mass/volume] in Serum by calculation"
        },
        "valueQuantity": {
          "system": "http://unitsofmeasure.org",
          "value": 2.3,
          "unit": "g/L",
          "code": "g/L"
        },
        "referenceRange": [
          {
            "low": {
              "value": 2,
              "code": "g/L",
              "system": "http://unitsofmeasure.org"
            }
          },
          {
            "high": {
              "value": 3.5,
              "code": "g/L",
              "system": "http://unitsofmeasure.org"
            }
          }
        ],
        "text": {
          "status": "generated",
          "div": "<div xmlns=\"http://www.w3.org/1999/xhtml\"><table class=\"hl7__eu__lab__report\"><tr><th>Test</th><th>23-Jul-2016</th><th>Reference&#xA0;Range</th><th>Unit</th></tr><tr><td>Globulin [Mass/volume] in Serum by calculation</td><td>2.3</td><td>2 - 3.5</td><td></td><td>g/L</td></tr></table></div>"
        },
        "status": "final",
        "subject": {
          "reference": "urn:uuid:7f3a8ae1-e6f2-449a-81f7-a174052e777b",
          "display": "Maria Nohlmans"
        },
        "effectiveDateTime": "2016-07-23T06:00:39Z",
        "specimen": {
          "reference": "urn:uuid:a21dc520-9de5-405a-8ea7-223ef2deb89b"
        }
      }
    },
    {
      "fullUrl": "urn:uuid:7ae0aa8c-59ba-41fa-b542-d47d72401fd2",
      "resource": {
        "resourceType": "Observation",
        "id": "7ae0aa8c-59ba-41fa-b542-d47d72401fd2",
        "meta": {
          "profile": [
            "http://hl7.eu/fhir/laboratory/StructureDefinition/Observation-resultslab-eu-lab"
          ]
        },
        "performer": [
          {
            "display": "The Central European Lab"
          }
        ],
        "category": [
          {
            "coding": [
              {
                "system": "http://terminology.hl7.org/CodeSystem/observation-category",
                "code": "laboratory"
              }
            ]
          }
        ],
        "code": {
          "coding": [
            {
              "code": "1975-2",
              "system": "http://loinc.org",
              "display": "Bilirubin.total [Mass/volume] in Serum or Plasma"
            }
          ],
          "text": "Bilirubin.total [Mass/volume] in Serum or Plasma"
        },
        "valueQuantity": {
          "system": "http://unitsofmeasure.org",
          "value": 0.6,
          "unit": "mg/dL",
          "code": "mg/dL"
        },
        "referenceRange": [
          {
            "low": {
              "value": 0.3,
              "code": "mg/dL",
              "system": "http://unitsofmeasure.org"
            }
          },
          {
            "high": {
              "value": 1.2,
              "code": "mg/dL",
              "system": "http://unitsofmeasure.org"
            }
          }
        ],
        "text": {
          "status": "generated",
          "div": "<div xmlns=\"http://www.w3.org/1999/xhtml\"><table class=\"hl7__eu__lab__report\"><tr><th>Test</th><th>23-Jul-2016</th><th>Reference&#xA0;Range</th><th>Unit</th></tr><tr><td>Bilirubin.total [Mass/volume] in Serum or Plasma</td><td>0.6</td><td>0.3 - 1.2</td><td></td><td>mg/dL</td></tr></table></div>"
        },
        "status": "final",
        "subject": {
          "reference": "urn:uuid:7f3a8ae1-e6f2-449a-81f7-a174052e777b",
          "display": "Maria Nohlmans"
        },
        "effectiveDateTime": "2016-07-23T06:00:39Z",
        "specimen": {
          "reference": "urn:uuid:f84dc98a-5165-4eb3-94ea-5754d1f98074"
        }
      }
    },
    {
      "fullUrl": "urn:uuid:1fdc4208-04e2-4330-b766-85ff872dc667",
      "resource": {
        "resourceType": "Observation",
        "id": "1fdc4208-04e2-4330-b766-85ff872dc667",
        "meta": {
          "profile": [
            "http://hl7.eu/fhir/laboratory/StructureDefinition/Observation-resultslab-eu-lab"
          ]
        },
        "performer": [
          {
            "display": "The Central European Lab"
          }
        ],
        "category": [
          {
            "coding": [
              {
                "system": "http://terminology.hl7.org/CodeSystem/observation-category",
                "code": "laboratory"
              }
            ]
          }
        ],
        "code": {
          "coding": [
            {
              "code": "6768-6",
              "system": "http://loinc.org",
              "display": "Alkaline phosphatase [Enzymatic activity/volume] in Serum or Plasma"
            }
          ],
          "text": "Alkaline phosphatase [Enzymatic activity/volume] in Serum or Plasma"
        },
        "valueQuantity": {
          "system": "http://unitsofmeasure.org",
          "value": 43.7,
          "unit": "U/L",
          "code": "U/L"
        },
        "referenceRange": [
          {
            "low": {
              "value": 44,
              "code": "U/L",
              "system": "http://unitsofmeasure.org"
            }
          },
          {
            "high": {
              "value": 142,
              "code": "U/L",
              "system": "http://unitsofmeasure.org"
            }
          }
        ],
        "interpretation": [
          {
            "coding": [
              {
                "code": "L",
                "system": "http://terminology.hl7.org/CodeSystem/v3-ObservationInterpretation",
                "display": "Low"
              }
            ]
          }
        ],
        "text": {
          "status": "generated",
          "div": "<div xmlns=\"http://www.w3.org/1999/xhtml\"><table class=\"hl7__eu__lab__report\"><tr><th>Test</th><th>23-Jul-2016</th><th>Reference&#xA0;Range</th><th>Unit</th></tr><tr><td>Alkaline phosphatase [Enzymatic activity/volume] in Serum or Plasma</td><td>43.7</td><td>44 - 142</td><td>L</td><td>U/L</td></tr></table></div>"
        },
        "status": "final",
        "subject": {
          "reference": "urn:uuid:7f3a8ae1-e6f2-449a-81f7-a174052e777b",
          "display": "Maria Nohlmans"
        },
        "effectiveDateTime": "2016-07-23T06:00:39Z",
        "specimen": {
          "reference": "urn:uuid:f84dc98a-5165-4eb3-94ea-5754d1f98074"
        }
      }
    },
    {
      "fullUrl": "urn:uuid:b8009c07-a870-47de-979e-869da2e3294b",
      "resource": {
        "resourceType": "Observation",
        "id": "b8009c07-a870-47de-979e-869da2e3294b",
        "meta": {
          "profile": [
            "http://hl7.eu/fhir/laboratory/StructureDefinition/Observation-resultslab-eu-lab"
          ]
        },
        "performer": [
          {
            "display": "The Central European Lab"
          }
        ],
        "category": [
          {
            "coding": [
              {
                "system": "http://terminology.hl7.org/CodeSystem/observation-category",
                "code": "laboratory"
              }
            ]
          }
        ],
        "code": {
          "coding": [
            {
              "code": "1742-6",
              "system": "http://loinc.org",
              "display": "Alanine aminotransferase [Enzymatic activity/volume] in Serum or Plasma"
            }
          ],
          "text": "Alanine aminotransferase [Enzymatic activity/volume] in Serum or Plasma"
        },
        "valueQuantity": {
          "system": "http://unitsofmeasure.org",
          "value": 32.6,
          "unit": "U/L",
          "code": "U/L"
        },
        "referenceRange": [
          {
            "low": {
              "value": 7,
              "code": "U/L",
              "system": "http://unitsofmeasure.org"
            }
          },
          {
            "high": {
              "value": 40,
              "code": "U/L",
              "system": "http://unitsofmeasure.org"
            }
          }
        ],
        "text": {
          "status": "generated",
          "div": "<div xmlns=\"http://www.w3.org/1999/xhtml\"><table class=\"hl7__eu__lab__report\"><tr><th>Test</th><th>23-Jul-2016</th><th>Reference&#xA0;Range</th><th>Unit</th></tr><tr><td>Alanine aminotransferase [Enzymatic activity/volume] in Serum or Plasma</td><td>32.6</td><td>7 - 40</td><td></td><td>U/L</td></tr></table></div>"
        },
        "status": "final",
        "subject": {
          "reference": "urn:uuid:7f3a8ae1-e6f2-449a-81f7-a174052e777b",
          "display": "Maria Nohlmans"
        },
        "effectiveDateTime": "2016-07-23T06:00:39Z",
        "specimen": {
          "reference": "urn:uuid:f84dc98a-5165-4eb3-94ea-5754d1f98074"
        }
      }
    },
    {
      "fullUrl": "urn:uuid:62a5e48d-0a51-49e3-a78f-5b1af6346da8",
      "resource": {
        "resourceType": "Observation",
        "id": "62a5e48d-0a51-49e3-a78f-5b1af6346da8",
        "meta": {
          "profile": [
            "http://hl7.eu/fhir/laboratory/StructureDefinition/Observation-resultslab-eu-lab"
          ]
        },
        "performer": [
          {
            "display": "The Central European Lab"
          }
        ],
        "category": [
          {
            "coding": [
              {
                "system": "http://terminology.hl7.org/CodeSystem/observation-category",
                "code": "laboratory"
              }
            ]
          }
        ],
        "code": {
          "coding": [
            {
              "code": "1920-8",
              "system": "http://loinc.org",
              "display": "Aspartate aminotransferase [Enzymatic activity/volume] in Serum or Plasma"
            }
          ],
          "text": "Aspartate aminotransferase [Enzymatic activity/volume] in Serum or Plasma"
        },
        "valueQuantity": {
          "system": "http://unitsofmeasure.org",
          "value": 17.2,
          "unit": "U/L",
          "code": "U/L"
        },
        "referenceRange": [
          {
            "low": {
              "value": 10,
              "code": "U/L",
              "system": "http://unitsofmeasure.org"
            }
          },
          {
            "high": {
              "value": 40,
              "code": "U/L",
              "system": "http://unitsofmeasure.org"
            }
          }
        ],
        "text": {
          "status": "generated",
          "div": "<div xmlns=\"http://www.w3.org/1999/xhtml\"><table class=\"hl7__eu__lab__report\"><tr><th>Test</th><th>23-Jul-2016</th><th>Reference&#xA0;Range</th><th>Unit</th></tr><tr><td>Aspartate aminotransferase [Enzymatic activity/volume] in Serum or Plasma</td><td>17.2</td><td>10 - 40</td><td></td><td>U/L</td></tr></table></div>"
        },
        "status": "final",
        "subject": {
          "reference": "urn:uuid:7f3a8ae1-e6f2-449a-81f7-a174052e777b",
          "display": "Maria Nohlmans"
        },
        "effectiveDateTime": "2016-07-23T06:00:39Z",
        "specimen": {
          "reference": "urn:uuid:f84dc98a-5165-4eb3-94ea-5754d1f98074"
        }
      }
    },
    {
      "fullUrl": "urn:uuid:a2c2e98c-6dfd-4db0-99ca-e411451c0248",
      "resource": {
        "resourceType": "Observation",
        "id": "a2c2e98c-6dfd-4db0-99ca-e411451c0248",
        "meta": {
          "profile": [
            "http://hl7.eu/fhir/laboratory/StructureDefinition/Observation-resultslab-eu-lab"
          ]
        },
        "performer": [
          {
            "display": "The Central European Lab"
          }
        ],
        "category": [
          {
            "coding": [
              {
                "system": "http://terminology.hl7.org/CodeSystem/observation-category",
                "code": "laboratory"
              }
            ]
          }
        ],
        "code": {
          "coding": [
            {
              "code": "5767-9",
              "system": "http://loinc.org",
              "display": "Appearance of Urine"
            }
          ],
          "text": "Appearance of Urine"
        },
        "text": {
          "status": "generated",
          "div": "<div xmlns=\"http://www.w3.org/1999/xhtml\"><table class=\"hl7__eu__lab__report\"><tr><th>Test</th><th>23-Jul-2016</th><th>Reference&#xA0;Range</th><th>Unit</th></tr><tr><td>Appearance of Urine</td></tr></table></div>"
        },
        "status": "final",
        "subject": {
          "reference": "urn:uuid:7f3a8ae1-e6f2-449a-81f7-a174052e777b",
          "display": "Maria Nohlmans"
        },
        "effectiveDateTime": "2016-07-23T06:00:39Z",
        "specimen": {
          "reference": "urn:uuid:e98e366e-5d4d-42ad-acc6-05039a1000a7"
        }
      }
    },
    {
      "fullUrl": "urn:uuid:61604535-1cbf-4b38-8619-2a3381f1acce",
      "resource": {
        "resourceType": "Observation",
        "id": "61604535-1cbf-4b38-8619-2a3381f1acce",
        "meta": {
          "profile": [
            "http://hl7.eu/fhir/laboratory/StructureDefinition/Observation-resultslab-eu-lab"
          ]
        },
        "performer": [
          {
            "display": "The Central European Lab"
          }
        ],
        "category": [
          {
            "coding": [
              {
                "system": "http://terminology.hl7.org/CodeSystem/observation-category",
                "code": "laboratory"
              }
            ]
          }
        ],
        "code": {
          "coding": [
            {
              "code": "34533-0",
              "system": "http://loinc.org",
              "display": "Odor of Urine"
            }
          ],
          "text": "Odor of Urine"
        },
        "text": {
          "status": "generated",
          "div": "<div xmlns=\"http://www.w3.org/1999/xhtml\"><table class=\"hl7__eu__lab__report\"><tr><th>Test</th><th>23-Jul-2016</th><th>Reference&#xA0;Range</th><th>Unit</th></tr><tr><td>Odor of Urine</td></tr></table></div>"
        },
        "status": "final",
        "subject": {
          "reference": "urn:uuid:7f3a8ae1-e6f2-449a-81f7-a174052e777b",
          "display": "Maria Nohlmans"
        },
        "effectiveDateTime": "2016-07-23T06:00:39Z",
        "specimen": {
          "reference": "urn:uuid:e98e366e-5d4d-42ad-acc6-05039a1000a7"
        }
      }
    },
    {
      "fullUrl": "urn:uuid:9d5b78eb-9cd4-4d34-8813-c077cb335f80",
      "resource": {
        "resourceType": "Observation",
        "id": "9d5b78eb-9cd4-4d34-8813-c077cb335f80",
        "meta": {
          "profile": [
            "http://hl7.eu/fhir/laboratory/StructureDefinition/Observation-resultslab-eu-lab"
          ]
        },
        "performer": [
          {
            "display": "The Central European Lab"
          }
        ],
        "category": [
          {
            "coding": [
              {
                "system": "http://terminology.hl7.org/CodeSystem/observation-category",
                "code": "laboratory"
              }
            ]
          }
        ],
        "code": {
          "coding": [
            {
              "code": "32167-9",
              "system": "http://loinc.org",
              "display": "Clarity of Urine"
            }
          ],
          "text": "Clarity of Urine"
        },
        "text": {
          "status": "generated",
          "div": "<div xmlns=\"http://www.w3.org/1999/xhtml\"><table class=\"hl7__eu__lab__report\"><tr><th>Test</th><th>23-Jul-2016</th><th>Reference&#xA0;Range</th><th>Unit</th></tr><tr><td>Clarity of Urine</td></tr></table></div>"
        },
        "status": "final",
        "subject": {
          "reference": "urn:uuid:7f3a8ae1-e6f2-449a-81f7-a174052e777b",
          "display": "Maria Nohlmans"
        },
        "effectiveDateTime": "2016-07-23T06:00:39Z",
        "specimen": {
          "reference": "urn:uuid:e98e366e-5d4d-42ad-acc6-05039a1000a7"
        }
      }
    },
    {
      "fullUrl": "urn:uuid:e1d6f382-5cc5-4878-b42d-ca627f664872",
      "resource": {
        "resourceType": "Observation",
        "id": "e1d6f382-5cc5-4878-b42d-ca627f664872",
        "meta": {
          "profile": [
            "http://hl7.eu/fhir/laboratory/StructureDefinition/Observation-resultslab-eu-lab"
          ]
        },
        "performer": [
          {
            "display": "The Central European Lab"
          }
        ],
        "category": [
          {
            "coding": [
              {
                "system": "http://terminology.hl7.org/CodeSystem/observation-category",
                "code": "laboratory"
              }
            ]
          }
        ],
        "code": {
          "coding": [
            {
              "code": "5778-6",
              "system": "http://loinc.org",
              "display": "Color of Urine"
            }
          ],
          "text": "Color of Urine"
        },
        "text": {
          "status": "generated",
          "div": "<div xmlns=\"http://www.w3.org/1999/xhtml\"><table class=\"hl7__eu__lab__report\"><tr><th>Test</th><th>23-Jul-2016</th><th>Reference&#xA0;Range</th><th>Unit</th></tr><tr><td>Color of Urine</td></tr></table></div>"
        },
        "status": "final",
        "subject": {
          "reference": "urn:uuid:7f3a8ae1-e6f2-449a-81f7-a174052e777b",
          "display": "Maria Nohlmans"
        },
        "effectiveDateTime": "2016-07-23T06:00:39Z",
        "specimen": {
          "reference": "urn:uuid:e98e366e-5d4d-42ad-acc6-05039a1000a7"
        }
      }
    },
    {
      "fullUrl": "urn:uuid:c1d7951a-ed62-466b-bae0-fecf68fd8b2a",
      "resource": {
        "resourceType": "Observation",
        "id": "c1d7951a-ed62-466b-bae0-fecf68fd8b2a",
        "meta": {
          "profile": [
            "http://hl7.eu/fhir/laboratory/StructureDefinition/Observation-resultslab-eu-lab"
          ]
        },
        "performer": [
          {
            "display": "The Central European Lab"
          }
        ],
        "category": [
          {
            "coding": [
              {
                "system": "http://terminology.hl7.org/CodeSystem/observation-category",
                "code": "laboratory"
              }
            ]
          }
        ],
        "code": {
          "coding": [
            {
              "code": "5792-7",
              "system": "http://loinc.org",
              "display": "Glucose [Mass/volume] in Urine by Test strip"
            }
          ],
          "text": "Glucose [Mass/volume] in Urine by Test strip"
        },
        "valueQuantity": {
          "system": "http://unitsofmeasure.org",
          "value": 1.8,
          "unit": "mg/dL",
          "code": "mg/dL"
        },
        "referenceRange": [
          {
            "low": {
              "value": 0.8,
              "code": "mg/dL",
              "system": "http://unitsofmeasure.org"
            }
          },
          {
            "high": {
              "value": 0,
              "code": "mg/dL",
              "system": "http://unitsofmeasure.org"
            }
          }
        ],
        "interpretation": [
          {
            "coding": [
              {
                "code": "H",
                "system": "http://terminology.hl7.org/CodeSystem/v3-ObservationInterpretation",
                "display": "High"
              }
            ]
          }
        ],
        "text": {
          "status": "generated",
          "div": "<div xmlns=\"http://www.w3.org/1999/xhtml\"><table class=\"hl7__eu__lab__report\"><tr><th>Test</th><th>23-Jul-2016</th><th>Reference&#xA0;Range</th><th>Unit</th></tr><tr><td>Glucose [Mass/volume] in Urine by Test strip</td><td>1.8</td><td>0.8 - 0</td><td>H</td><td>mg/dL</td></tr></table></div>"
        },
        "status": "final",
        "subject": {
          "reference": "urn:uuid:7f3a8ae1-e6f2-449a-81f7-a174052e777b",
          "display": "Maria Nohlmans"
        },
        "effectiveDateTime": "2016-07-23T06:00:39Z",
        "specimen": {
          "reference": "urn:uuid:e98e366e-5d4d-42ad-acc6-05039a1000a7"
        }
      }
    },
    {
      "fullUrl": "urn:uuid:be2b42f6-838a-4bec-9cd7-c71a323f9596",
      "resource": {
        "resourceType": "Observation",
        "id": "be2b42f6-838a-4bec-9cd7-c71a323f9596",
        "meta": {
          "profile": [
            "http://hl7.eu/fhir/laboratory/StructureDefinition/Observation-resultslab-eu-lab"
          ]
        },
        "performer": [
          {
            "display": "The Central European Lab"
          }
        ],
        "category": [
          {
            "coding": [
              {
                "system": "http://terminology.hl7.org/CodeSystem/observation-category",
                "code": "laboratory"
              }
            ]
          }
        ],
        "code": {
          "coding": [
            {
              "code": "25428-4",
              "system": "http://loinc.org",
              "display": "Glucose [Presence] in Urine by Test strip"
            }
          ],
          "text": "Glucose [Presence] in Urine by Test strip"
        },
        "text": {
          "status": "generated",
          "div": "<div xmlns=\"http://www.w3.org/1999/xhtml\"><table class=\"hl7__eu__lab__report\"><tr><th>Test</th><th>23-Jul-2016</th><th>Reference&#xA0;Range</th><th>Unit</th></tr><tr><td>Glucose [Presence] in Urine by Test strip</td></tr></table></div>"
        },
        "status": "final",
        "subject": {
          "reference": "urn:uuid:7f3a8ae1-e6f2-449a-81f7-a174052e777b",
          "display": "Maria Nohlmans"
        },
        "effectiveDateTime": "2016-07-23T06:00:39Z",
        "specimen": {
          "reference": "urn:uuid:e98e366e-5d4d-42ad-acc6-05039a1000a7"
        }
      }
    },
    {
      "fullUrl": "urn:uuid:0fb45938-dab7-4750-8209-5e08da1ce11d",
      "resource": {
        "resourceType": "Observation",
        "id": "0fb45938-dab7-4750-8209-5e08da1ce11d",
        "meta": {
          "profile": [
            "http://hl7.eu/fhir/laboratory/StructureDefinition/Observation-resultslab-eu-lab"
          ]
        },
        "performer": [
          {
            "display": "The Central European Lab"
          }
        ],
        "category": [
          {
            "coding": [
              {
                "system": "http://terminology.hl7.org/CodeSystem/observation-category",
                "code": "laboratory"
              }
            ]
          }
        ],
        "code": {
          "coding": [
            {
              "code": "20505-4",
              "system": "http://loinc.org",
              "display": "Bilirubin.total [Mass/volume] in Urine by Test strip"
            }
          ],
          "text": "Bilirubin.total [Mass/volume] in Urine by Test strip"
        },
        "valueQuantity": {
          "system": "http://unitsofmeasure.org",
          "value": 0.5,
          "unit": "mg/dL",
          "code": "mg/dL"
        },
        "referenceRange": [
          {
            "low": {
              "value": 0,
              "code": "mg/dL",
              "system": "http://unitsofmeasure.org"
            }
          },
          {
            "high": {
              "value": 1.5,
              "code": "mg/dL",
              "system": "http://unitsofmeasure.org"
            }
          }
        ],
        "text": {
          "status": "generated",
          "div": "<div xmlns=\"http://www.w3.org/1999/xhtml\"><table class=\"hl7__eu__lab__report\"><tr><th>Test</th><th>23-Jul-2016</th><th>Reference&#xA0;Range</th><th>Unit</th></tr><tr><td>Bilirubin.total [Mass/volume] in Urine by Test strip</td><td>0.5</td><td>0 - 1.5</td><td></td><td>mg/dL</td></tr></table></div>"
        },
        "status": "final",
        "subject": {
          "reference": "urn:uuid:7f3a8ae1-e6f2-449a-81f7-a174052e777b",
          "display": "Maria Nohlmans"
        },
        "effectiveDateTime": "2016-07-23T06:00:39Z",
        "specimen": {
          "reference": "urn:uuid:e98e366e-5d4d-42ad-acc6-05039a1000a7"
        }
      }
    },
    {
      "fullUrl": "urn:uuid:8e8d5871-9437-476e-bef4-86487106ac82",
      "resource": {
        "resourceType": "Observation",
        "id": "8e8d5871-9437-476e-bef4-86487106ac82",
        "meta": {
          "profile": [
            "http://hl7.eu/fhir/laboratory/StructureDefinition/Observation-resultslab-eu-lab"
          ]
        },
        "performer": [
          {
            "display": "The Central European Lab"
          }
        ],
        "category": [
          {
            "coding": [
              {
                "system": "http://terminology.hl7.org/CodeSystem/observation-category",
                "code": "laboratory"
              }
            ]
          }
        ],
        "code": {
          "coding": [
            {
              "code": "5770-3",
              "system": "http://loinc.org",
              "display": "Bilirubin.total [Presence] in Urine by Test strip"
            }
          ],
          "text": "Bilirubin.total [Presence] in Urine by Test strip"
        },
        "text": {
          "status": "generated",
          "div": "<div xmlns=\"http://www.w3.org/1999/xhtml\"><table class=\"hl7__eu__lab__report\"><tr><th>Test</th><th>23-Jul-2016</th><th>Reference&#xA0;Range</th><th>Unit</th></tr><tr><td>Bilirubin.total [Presence] in Urine by Test strip</td></tr></table></div>"
        },
        "status": "final",
        "subject": {
          "reference": "urn:uuid:7f3a8ae1-e6f2-449a-81f7-a174052e777b",
          "display": "Maria Nohlmans"
        },
        "effectiveDateTime": "2016-07-23T06:00:39Z",
        "specimen": {
          "reference": "urn:uuid:e98e366e-5d4d-42ad-acc6-05039a1000a7"
        }
      }
    },
    {
      "fullUrl": "urn:uuid:de17b392-2de9-45a9-bb61-68da4ddfadcc",
      "resource": {
        "resourceType": "Observation",
        "id": "de17b392-2de9-45a9-bb61-68da4ddfadcc",
        "meta": {
          "profile": [
            "http://hl7.eu/fhir/laboratory/StructureDefinition/Observation-resultslab-eu-lab"
          ]
        },
        "performer": [
          {
            "display": "The Central European Lab"
          }
        ],
        "category": [
          {
            "coding": [
              {
                "system": "http://terminology.hl7.org/CodeSystem/observation-category",
                "code": "laboratory"
              }
            ]
          }
        ],
        "code": {
          "coding": [
            {
              "code": "5797-6",
              "system": "http://loinc.org",
              "display": "Ketones [Mass/volume] in Urine by Test strip"
            }
          ],
          "text": "Ketones [Mass/volume] in Urine by Test strip"
        },
        "valueQuantity": {
          "system": "http://unitsofmeasure.org",
          "value": 1.7,
          "unit": "mg/dL",
          "code": "mg/dL"
        },
        "referenceRange": [
          {
            "low": {
              "value": 0,
              "code": "mg/dL",
              "system": "http://unitsofmeasure.org"
            }
          },
          {
            "high": {
              "value": 8,
              "code": "mg/dL",
              "system": "http://unitsofmeasure.org"
            }
          }
        ],
        "text": {
          "status": "generated",
          "div": "<div xmlns=\"http://www.w3.org/1999/xhtml\"><table class=\"hl7__eu__lab__report\"><tr><th>Test</th><th>23-Jul-2016</th><th>Reference&#xA0;Range</th><th>Unit</th></tr><tr><td>Ketones [Mass/volume] in Urine by Test strip</td><td>1.7</td><td>0 - 8</td><td></td><td>mg/dL</td></tr></table></div>"
        },
        "status": "final",
        "subject": {
          "reference": "urn:uuid:7f3a8ae1-e6f2-449a-81f7-a174052e777b",
          "display": "Maria Nohlmans"
        },
        "effectiveDateTime": "2016-07-23T06:00:39Z",
        "specimen": {
          "reference": "urn:uuid:e98e366e-5d4d-42ad-acc6-05039a1000a7"
        }
      }
    },
    {
      "fullUrl": "urn:uuid:fb8a7dd0-4835-4d31-a635-063e1b131a28",
      "resource": {
        "resourceType": "Observation",
        "id": "fb8a7dd0-4835-4d31-a635-063e1b131a28",
        "meta": {
          "profile": [
            "http://hl7.eu/fhir/laboratory/StructureDefinition/Observation-resultslab-eu-lab"
          ]
        },
        "performer": [
          {
            "display": "The Central European Lab"
          }
        ],
        "category": [
          {
            "coding": [
              {
                "system": "http://terminology.hl7.org/CodeSystem/observation-category",
                "code": "laboratory"
              }
            ]
          }
        ],
        "code": {
          "coding": [
            {
              "code": "2514-8",
              "system": "http://loinc.org",
              "display": "Ketones [Presence] in Urine by Test strip"
            }
          ],
          "text": "Ketones [Presence] in Urine by Test strip"
        },
        "text": {
          "status": "generated",
          "div": "<div xmlns=\"http://www.w3.org/1999/xhtml\"><table class=\"hl7__eu__lab__report\"><tr><th>Test</th><th>23-Jul-2016</th><th>Reference&#xA0;Range</th><th>Unit</th></tr><tr><td>Ketones [Presence] in Urine by Test strip</td></tr></table></div>"
        },
        "status": "final",
        "subject": {
          "reference": "urn:uuid:7f3a8ae1-e6f2-449a-81f7-a174052e777b",
          "display": "Maria Nohlmans"
        },
        "effectiveDateTime": "2016-07-23T06:00:39Z",
        "specimen": {
          "reference": "urn:uuid:e98e366e-5d4d-42ad-acc6-05039a1000a7"
        }
      }
    },
    {
      "fullUrl": "urn:uuid:d9435832-908e-45d5-bafa-5f1aee083770",
      "resource": {
        "resourceType": "Observation",
        "id": "d9435832-908e-45d5-bafa-5f1aee083770",
        "meta": {
          "profile": [
            "http://hl7.eu/fhir/laboratory/StructureDefinition/Observation-resultslab-eu-lab"
          ]
        },
        "performer": [
          {
            "display": "The Central European Lab"
          }
        ],
        "category": [
          {
            "coding": [
              {
                "system": "http://terminology.hl7.org/CodeSystem/observation-category",
                "code": "laboratory"
              }
            ]
          }
        ],
        "code": {
          "coding": [
            {
              "code": "5811-5",
              "system": "http://loinc.org",
              "display": "Specific gravity of Urine by Test strip"
            }
          ],
          "text": "Specific gravity of Urine by Test strip"
        },
        "valueQuantity": {
          "system": "http://unitsofmeasure.org",
          "value": 1,
          "unit": "{nominal}",
          "code": "{nominal}"
        },
        "referenceRange": [
          {
            "low": {
              "value": 1.01,
              "code": "g/mL",
              "system": "http://unitsofmeasure.org"
            }
          },
          {
            "high": {
              "value": 1.03,
              "code": "g/mL",
              "system": "http://unitsofmeasure.org"
            }
          }
        ],
        "interpretation": [
          {
            "coding": [
              {
                "code": "L",
                "system": "http://terminology.hl7.org/CodeSystem/v3-ObservationInterpretation",
                "display": "Low"
              }
            ]
          }
        ],
        "text": {
          "status": "generated",
          "div": "<div xmlns=\"http://www.w3.org/1999/xhtml\"><table class=\"hl7__eu__lab__report\"><tr><th>Test</th><th>23-Jul-2016</th><th>Reference&#xA0;Range</th><th>Unit</th></tr><tr><td>Specific gravity of Urine by Test strip</td><td>1.0</td><td>1.01 - 1.03</td><td>L</td><td>{nominal}</td></tr></table></div>"
        },
        "status": "final",
        "subject": {
          "reference": "urn:uuid:7f3a8ae1-e6f2-449a-81f7-a174052e777b",
          "display": "Maria Nohlmans"
        },
        "effectiveDateTime": "2016-07-23T06:00:39Z",
        "specimen": {
          "reference": "urn:uuid:e98e366e-5d4d-42ad-acc6-05039a1000a7"
        }
      }
    },
    {
      "fullUrl": "urn:uuid:67f7e08d-039d-41c9-b25b-62eb06d0b0a8",
      "resource": {
        "resourceType": "Observation",
        "id": "67f7e08d-039d-41c9-b25b-62eb06d0b0a8",
        "meta": {
          "profile": [
            "http://hl7.eu/fhir/laboratory/StructureDefinition/Observation-resultslab-eu-lab"
          ]
        },
        "performer": [
          {
            "display": "The Central European Lab"
          }
        ],
        "category": [
          {
            "coding": [
              {
                "system": "http://terminology.hl7.org/CodeSystem/observation-category",
                "code": "laboratory"
              }
            ]
          }
        ],
        "code": {
          "coding": [
            {
              "code": "5803-2",
              "system": "http://loinc.org",
              "display": "pH of Urine by Test strip"
            }
          ],
          "text": "pH of Urine by Test strip"
        },
        "valueQuantity": {
          "system": "http://unitsofmeasure.org",
          "value": 5.1,
          "unit": "pH",
          "code": "pH"
        },
        "referenceRange": [
          {
            "low": {
              "value": 4.6,
              "code": "pH",
              "system": "http://unitsofmeasure.org"
            }
          },
          {
            "high": {
              "value": 7.5,
              "code": "pH",
              "system": "http://unitsofmeasure.org"
            }
          }
        ],
        "text": {
          "status": "generated",
          "div": "<div xmlns=\"http://www.w3.org/1999/xhtml\"><table class=\"hl7__eu__lab__report\"><tr><th>Test</th><th>23-Jul-2016</th><th>Reference&#xA0;Range</th><th>Unit</th></tr><tr><td>pH of Urine by Test strip</td><td>5.1</td><td>4.6 - 7.5</td><td></td><td>pH</td></tr></table></div>"
        },
        "status": "final",
        "subject": {
          "reference": "urn:uuid:7f3a8ae1-e6f2-449a-81f7-a174052e777b",
          "display": "Maria Nohlmans"
        },
        "effectiveDateTime": "2016-07-23T06:00:39Z",
        "specimen": {
          "reference": "urn:uuid:e98e366e-5d4d-42ad-acc6-05039a1000a7"
        }
      }
    },
    {
      "fullUrl": "urn:uuid:dfecc9e0-300f-499e-b693-80c42f54be3b",
      "resource": {
        "resourceType": "Observation",
        "id": "dfecc9e0-300f-499e-b693-80c42f54be3b",
        "meta": {
          "profile": [
            "http://hl7.eu/fhir/laboratory/StructureDefinition/Observation-resultslab-eu-lab"
          ]
        },
        "performer": [
          {
            "display": "The Central European Lab"
          }
        ],
        "category": [
          {
            "coding": [
              {
                "system": "http://terminology.hl7.org/CodeSystem/observation-category",
                "code": "laboratory"
              }
            ]
          }
        ],
        "code": {
          "coding": [
            {
              "code": "5804-0",
              "system": "http://loinc.org",
              "display": "Protein [Mass/volume] in Urine by Test strip"
            }
          ],
          "text": "Protein [Mass/volume] in Urine by Test strip"
        },
        "valueQuantity": {
          "system": "http://unitsofmeasure.org",
          "value": 346.5,
          "unit": "mg/dL",
          "code": "mg/dL"
        },
        "referenceRange": [
          {
            "low": {
              "value": 0,
              "code": "mg/dL",
              "system": "http://unitsofmeasure.org"
            }
          },
          {
            "high": {
              "value": 14,
              "code": "mg/dL",
              "system": "http://unitsofmeasure.org"
            }
          }
        ],
        "interpretation": [
          {
            "coding": [
              {
                "code": "H",
                "system": "http://terminology.hl7.org/CodeSystem/v3-ObservationInterpretation",
                "display": "High"
              }
            ]
          }
        ],
        "text": {
          "status": "generated",
          "div": "<div xmlns=\"http://www.w3.org/1999/xhtml\"><table class=\"hl7__eu__lab__report\"><tr><th>Test</th><th>23-Jul-2016</th><th>Reference&#xA0;Range</th><th>Unit</th></tr><tr><td>Protein [Mass/volume] in Urine by Test strip</td><td>346.5</td><td>0 - 14</td><td>H</td><td>mg/dL</td></tr></table></div>"
        },
        "status": "final",
        "subject": {
          "reference": "urn:uuid:7f3a8ae1-e6f2-449a-81f7-a174052e777b",
          "display": "Maria Nohlmans"
        },
        "effectiveDateTime": "2016-07-23T06:00:39Z",
        "specimen": {
          "reference": "urn:uuid:e98e366e-5d4d-42ad-acc6-05039a1000a7"
        }
      }
    },
    {
      "fullUrl": "urn:uuid:01628e13-f1e5-4be3-b149-382c9ad76394",
      "resource": {
        "resourceType": "Observation",
        "id": "01628e13-f1e5-4be3-b149-382c9ad76394",
        "meta": {
          "profile": [
            "http://hl7.eu/fhir/laboratory/StructureDefinition/Observation-resultslab-eu-lab"
          ]
        },
        "performer": [
          {
            "display": "The Central European Lab"
          }
        ],
        "category": [
          {
            "coding": [
              {
                "system": "http://terminology.hl7.org/CodeSystem/observation-category",
                "code": "laboratory"
              }
            ]
          }
        ],
        "code": {
          "coding": [
            {
              "code": "20454-5",
              "system": "http://loinc.org",
              "display": "Protein [Presence] in Urine by Test strip"
            }
          ],
          "text": "Protein [Presence] in Urine by Test strip"
        },
        "text": {
          "status": "generated",
          "div": "<div xmlns=\"http://www.w3.org/1999/xhtml\"><table class=\"hl7__eu__lab__report\"><tr><th>Test</th><th>23-Jul-2016</th><th>Reference&#xA0;Range</th><th>Unit</th></tr><tr><td>Protein [Presence] in Urine by Test strip</td></tr></table></div>"
        },
        "status": "final",
        "subject": {
          "reference": "urn:uuid:7f3a8ae1-e6f2-449a-81f7-a174052e777b",
          "display": "Maria Nohlmans"
        },
        "effectiveDateTime": "2016-07-23T06:00:39Z",
        "specimen": {
          "reference": "urn:uuid:e98e366e-5d4d-42ad-acc6-05039a1000a7"
        }
      }
    },
    {
      "fullUrl": "urn:uuid:b91aa9fd-64d7-4258-ad76-a5d34f710cb5",
      "resource": {
        "resourceType": "Observation",
        "id": "b91aa9fd-64d7-4258-ad76-a5d34f710cb5",
        "meta": {
          "profile": [
            "http://hl7.eu/fhir/laboratory/StructureDefinition/Observation-resultslab-eu-lab"
          ]
        },
        "performer": [
          {
            "display": "The Central European Lab"
          }
        ],
        "category": [
          {
            "coding": [
              {
                "system": "http://terminology.hl7.org/CodeSystem/observation-category",
                "code": "laboratory"
              }
            ]
          }
        ],
        "code": {
          "coding": [
            {
              "code": "5802-4",
              "system": "http://loinc.org",
              "display": "Nitrite [Presence] in Urine by Test strip"
            }
          ],
          "text": "Nitrite [Presence] in Urine by Test strip"
        },
        "text": {
          "status": "generated",
          "div": "<div xmlns=\"http://www.w3.org/1999/xhtml\"><table class=\"hl7__eu__lab__report\"><tr><th>Test</th><th>23-Jul-2016</th><th>Reference&#xA0;Range</th><th>Unit</th></tr><tr><td>Nitrite [Presence] in Urine by Test strip</td></tr></table></div>"
        },
        "status": "final",
        "subject": {
          "reference": "urn:uuid:7f3a8ae1-e6f2-449a-81f7-a174052e777b",
          "display": "Maria Nohlmans"
        },
        "effectiveDateTime": "2016-07-23T06:00:39Z",
        "specimen": {
          "reference": "urn:uuid:e98e366e-5d4d-42ad-acc6-05039a1000a7"
        }
      }
    },
    {
      "fullUrl": "urn:uuid:7a8c5250-7cdd-443d-ae24-5e1720ecbca0",
      "resource": {
        "resourceType": "Observation",
        "id": "7a8c5250-7cdd-443d-ae24-5e1720ecbca0",
        "meta": {
          "profile": [
            "http://hl7.eu/fhir/laboratory/StructureDefinition/Observation-resultslab-eu-lab"
          ]
        },
        "performer": [
          {
            "display": "The Central European Lab"
          }
        ],
        "category": [
          {
            "coding": [
              {
                "system": "http://terminology.hl7.org/CodeSystem/observation-category",
                "code": "laboratory"
              }
            ]
          }
        ],
        "code": {
          "coding": [
            {
              "code": "5794-3",
              "system": "http://loinc.org",
              "display": "Hemoglobin [Presence] in Urine by Test strip"
            }
          ],
          "text": "Hemoglobin [Presence] in Urine by Test strip"
        },
        "text": {
          "status": "generated",
          "div": "<div xmlns=\"http://www.w3.org/1999/xhtml\"><table class=\"hl7__eu__lab__report\"><tr><th>Test</th><th>23-Jul-2016</th><th>Reference&#xA0;Range</th><th>Unit</th></tr><tr><td>Hemoglobin [Presence] in Urine by Test strip</td></tr></table></div>"
        },
        "status": "final",
        "subject": {
          "reference": "urn:uuid:7f3a8ae1-e6f2-449a-81f7-a174052e777b",
          "display": "Maria Nohlmans"
        },
        "effectiveDateTime": "2016-07-23T06:00:39Z",
        "specimen": {
          "reference": "urn:uuid:e98e366e-5d4d-42ad-acc6-05039a1000a7"
        }
      }
    },
    {
      "fullUrl": "urn:uuid:c4762097-b2de-4c7c-8781-9db787a6a384",
      "resource": {
        "resourceType": "Observation",
        "id": "c4762097-b2de-4c7c-8781-9db787a6a384",
        "meta": {
          "profile": [
            "http://hl7.eu/fhir/laboratory/StructureDefinition/Observation-resultslab-eu-lab"
          ]
        },
        "performer": [
          {
            "display": "The Central European Lab"
          }
        ],
        "category": [
          {
            "coding": [
              {
                "system": "http://terminology.hl7.org/CodeSystem/observation-category",
                "code": "laboratory"
              }
            ]
          }
        ],
        "code": {
          "coding": [
            {
              "code": "5799-2",
              "system": "http://loinc.org",
              "display": "Leukocyte esterase [Presence] in Urine by Test strip"
            }
          ],
          "text": "Leukocyte esterase [Presence] in Urine by Test strip"
        },
        "text": {
          "status": "generated",
          "div": "<div xmlns=\"http://www.w3.org/1999/xhtml\"><table class=\"hl7__eu__lab__report\"><tr><th>Test</th><th>23-Jul-2016</th><th>Reference&#xA0;Range</th><th>Unit</th></tr><tr><td>Leukocyte esterase [Presence] in Urine by Test strip</td></tr></table></div>"
        },
        "status": "final",
        "subject": {
          "reference": "urn:uuid:7f3a8ae1-e6f2-449a-81f7-a174052e777b",
          "display": "Maria Nohlmans"
        },
        "effectiveDateTime": "2016-07-23T06:00:39Z",
        "specimen": {
          "reference": "urn:uuid:e98e366e-5d4d-42ad-acc6-05039a1000a7"
        }
      }
    },
    {
      "fullUrl": "urn:uuid:9b8ee0c5-28ce-4cc3-b4fe-05d7a43e1196",
      "resource": {
        "resourceType": "Device",
        "id": "9b8ee0c5-28ce-4cc3-b4fe-05d7a43e1196",
        "deviceName": [
          {
            "name": "SYNDERAI Synthetic Generator",
            "type": "manufacturer-name"
          }
        ],
        "version": [
          {
            "value": "5.0"
          }
        ],
        "text": {
          "status": "generated",
          "div": "<div xmlns=\"http://www.w3.org/1999/xhtml\">SYNDERAI Synthetic Generator v5.0</div>"
        },
        "status": "active\"",
        "distinctIdentifier": "synderai-generator-50",
        "manufacturer": "SYNDERAI Project"
      }
    },
    {
      "fullUrl": "urn:uuid:2db2dd4c-f7cf-4093-8259-81df00079a76",
      "resource": {
        "resourceType": "Provenance",
        "id": "2db2dd4c-f7cf-4093-8259-81df00079a76",
        "target": [
          {
            "reference": "Patient/7f3a8ae1-e6f2-449a-81f7-a174052e777b"
          },
          {
            "reference": "Bundle/cd5d94bd-727d-45c3-b6b7-94e84a1e64db"
          },
          {
            "reference": "Composition/f939ee02-aebc-4475-a043-303642679541"
          },
          {
            "reference": "PractitionerRole/23936630-d560-456e-9e6f-91e23c56d543"
          },
          {
            "reference": "Practitioner/138656dd-22cd-4f46-b4a3-ad101da45860"
          },
          {
            "reference": "PractitionerRole/f53de0c2-88ff-4548-9a44-0b1a749fd434"
          },
          {
            "reference": "Organization/c921dc6e-c2d9-455d-9348-f2d270280eb6"
          }
        ],
        "activity": {
          "text": "Synthetic Example Data Generation"
        },
        "policy": [
          "https://synderai.net/synderai-synthetic-data-policy"
        ],
        "agent": [
          {
            "type": {
              "text": "author"
            },
            "who": {
              "reference": "Device/9b8ee0c5-28ce-4cc3-b4fe-05d7a43e1196"
            }
          }
        ],
        "reason": [
          {
            "text": "Interoperability Testing and Training (non-clinical use)"
          }
        ],
        "text": {
          "status": "generated",
          "div": "<div xmlns=\"http://www.w3.org/1999/xhtml\">Provenance for SYNDERAI Synthetic Example Data Resource</div>"
        },
        "recorded": "2016-07-23T08:00:39Z"
      }
    },
    {
      "fullUrl": "urn:uuid:23936630-d560-456e-9e6f-91e23c56d543",
      "resource": {
        "resourceType": "PractitionerRole",
        "id": "23936630-d560-456e-9e6f-91e23c56d543",
        "meta": {
          "profile": [
            "http://hl7.eu/fhir/base/StructureDefinition/practitionerRole-eu"
          ]
        },
        "text": {
          "status": "generated",
          "div": "<div xmlns=\"http://www.w3.org/1999/xhtml\">Laboratory Role Id: 23936630-d560-456e-9e6f-91e23c56d543</div>"
        },
        "practitioner": {
          "reference": "urn:uuid:138656dd-22cd-4f46-b4a3-ad101da45860"
        }
      }
    },
    {
      "fullUrl": "urn:uuid:138656dd-22cd-4f46-b4a3-ad101da45860",
      "resource": {
        "resourceType": "Practitioner",
        "id": "138656dd-22cd-4f46-b4a3-ad101da45860",
        "meta": {
          "profile": [
            "http://hl7.eu/fhir/base/StructureDefinition/practitioner-eu"
          ]
        },
        "identifier": [
          {
            "assigner": {
              "display": "HL7 Europe"
            },
            "system": "urn:oid:2.16.840.1.113883.2.51.999",
            "value": "5263616e-7b1d-43d1-a2c3-df90ac9993e4"
          }
        ],
        "name": [
          {
            "prefix": [
              "dr"
            ],
            "given": [
              "Ex"
            ],
            "family": "Ample"
          }
        ],
        "address": [
          {
            "line": [
              "Laboratoire Central Européenne",
              "Boulevard du Jardin Botanique 32"
            ],
            "postalCode": "1000",
            "city": "Brussels",
            "country": "Belgium"
          }
        ],
        "text": {
          "status": "generated",
          "div": "<div xmlns=\"http://www.w3.org/1999/xhtml\">Laboratory: Laboratoire Central Européenne, 1000 Brussels, Belgium</div>"
        }
      }
    }
  ],
  "type": "document",
  "timestamp": "2016-07-23T08:00:39Z"
}
