{
  "resourceType": "Bundle",
  "id": "60d723d0-e13c-44e9-9f3a-240b88c7477f",
  "meta": {
    "profile": [
      "http://hl7.eu/fhir/laboratory/StructureDefinition/Bundle-eu-lab"
    ]
  },
  "identifier": {
    "assigner": {
      "display": "HL7 Europe"
    },
    "system": "urn:oid:2.16.840.1.113883.2.51.999",
    "value": "bf040639-35b0-4a06-b0af-07314607f05e"
  },
  "entry": [
    {
      "fullUrl": "urn:uuid:4d810ef0-1f60-40d0-be02-82b77b02d9ad",
      "resource": {
        "resourceType": "Composition",
        "id": "4d810ef0-1f60-40d0-be02-82b77b02d9ad",
        "meta": {
          "profile": [
            "http://hl7.eu/fhir/laboratory/StructureDefinition/Composition-eu-lab"
          ]
        },
        "identifier": {
          "assigner": {
            "display": "HL7 Europe"
          },
          "system": "urn:oid:2.16.840.1.113883.2.51.999",
          "value": "5dd28c88-8640-4f88-be7b-18d74dee635e"
        },
        "author": [
          {
            "reference": "urn:uuid:c14a7605-2c1f-4769-8c58-88bb5218311d"
          }
        ],
        "category": [
          {
            "coding": [
              {
                "code": "26436-6",
                "system": "http://loinc.org",
                "display": "Laboratory studies (set)"
              }
            ]
          }
        ],
        "type": {
          "coding": [
            {
              "code": "11502-2",
              "system": "http://loinc.org",
              "display": "Laboratory report"
            }
          ],
          "text": "Laboratory Report"
        },
        "section": [
          {
            "code": {
              "coding": [
                {
                  "code": "26436-6",
                  "system": "http://loinc.org",
                  "display": "Laboratory studies (set)"
                }
              ],
              "text": "Laboratory studies"
            },
            "section": [
              {
                "code": {
                  "coding": [
                    {
                      "code": "$18719-5",
                      "system": "http://loinc.org",
                      "display": "Chemistry studies (set)"
                    }
                  ],
                  "text": "Chemistry"
                },
                "entry": [
                  {
                    "reference": "urn:uuid:f2528765-5183-4c65-81b2-3978ee08d1d9"
                  },
                  {
                    "reference": "urn:uuid:c3287eea-66df-4de8-8f98-5aaec15bca3a"
                  },
                  {
                    "reference": "urn:uuid:f661a026-09fc-4b8b-a683-b77df344e331"
                  },
                  {
                    "reference": "urn:uuid:fe0c2fc2-410d-4e12-acdd-58e067b5ce08"
                  },
                  {
                    "reference": "urn:uuid:6a3d5282-52b8-4254-9f12-9a94e4d121e4"
                  },
                  {
                    "reference": "urn:uuid:cb63c0db-d4e0-4bb0-b46d-dab8304445df"
                  },
                  {
                    "reference": "urn:uuid:8306d440-232a-45a2-a052-4420a7b5080a"
                  },
                  {
                    "reference": "urn:uuid:d16c5445-f3e6-44e7-93d1-f8503e6bad50"
                  },
                  {
                    "reference": "urn:uuid:23d5d82e-f2b2-4d52-8299-047ab95a240e"
                  }
                ],
                "text": {
                  "status": "generated",
                  "div": "<div xmlns=\"http://www.w3.org/1999/xhtml\"><h3>Chemistry</h3><table class=\"hl7__eu__lab__report\"><thead><tr><th>Test</th><th>01-NOV-2024</th><th>Reference&#xA0;Range</th><th>Unit</th></tr></thead><tbody><tr><td>Hemoglobin A1c/Hemoglobin.total in Blood</td><td><strong>4.0 L</strong></td><td>4.6 - 6.4</td><td>%</td></tr><tr><td>Glucose [Mass/volume] in Blood</td><td>90.0</td><td>70 - 110</td><td>mg/dL</td></tr><tr><td>Urea nitrogen [Mass/volume] in Blood</td><td>12.7</td><td>7 - 43</td><td>mg/dL</td></tr><tr><td>Creatinine [Mass/volume] in Blood</td><td><strong>0.8 L</strong></td><td>0.9 - 1.3</td><td>mg/dL</td></tr><tr><td>Calcium [Mass/volume] in Blood</td><td>8.6</td><td>8.5 - 10.5</td><td>mg/dL</td></tr><tr><td>Sodium [Moles/volume] in Blood</td><td>141.1</td><td>135 - 145</td><td>mmol/L</td></tr><tr><td>Potassium [Moles/volume] in Blood</td><td>4.7</td><td>3.5 - 5.3</td><td>mmol/L</td></tr><tr><td>Chloride [Moles/volume] in Blood</td><td>101.5</td><td>98 - 108</td><td>mmol/L</td></tr><tr><td>Carbon dioxide, total [Moles/volume] in Blood</td><td>23.8</td><td>22 - 29</td><td>mmol/L</td></tr></tbody></table></div>"
                },
                "title": "Chemistry"
              }
            ],
            "title": "Laboratory Report"
          },
          {
            "text": {
              "status": "generated",
              "div": "<div xmlns=\"http://www.w3.org/1999/xhtml\"><h3>Annotation</h3><table class=\"hl7__eu__lab__report\"><tr><th>Conclusion and Recommendations based on this report and previous findings known to us</th></tr><tr><td>All measured values are within or close to normal ranges, except for a mildly decreased HbA1c and creatinine. The low HbA1c may reflect recent changes in glucose metabolism or possible anemia, while low creatinine is often not clinically significant in elderly patients with reduced muscle mass. No acute abnormalities detected. Correlate with clinical context if symptoms are present.</td></tr></table></div>"
            },
            "code": {
              "coding": [
                {
                  "system": "http://loinc.org",
                  "code": "48767-8",
                  "display": "Annotation comment"
                }
              ]
            },
            "title": "Annotation comment"
          }
        ],
        "status": "final",
        "subject": {
          "reference": "urn:uuid:acef09bd-d455-41e3-a5d9-ff28b170160b",
          "display": "Gabrielius Gai훾i큰nas"
        },
        "date": "2024-11-01T17:05:46Z",
        "title": "Laboratory Report",
        "confidentiality": "N"
      }
    },
    {
      "fullUrl": "urn:uuid:54254b6b-5fd5-4908-a561-b24cbaf793bf",
      "resource": {
        "resourceType": "DiagnosticReport",
        "id": "54254b6b-5fd5-4908-a561-b24cbaf793bf",
        "meta": {
          "profile": [
            "http://hl7.eu/fhir/laboratory/StructureDefinition/DiagnosticReport-eu-lab"
          ]
        },
        "identifier": [
          {
            "assigner": {
              "display": "HL7 Europe"
            },
            "system": "urn:oid:2.16.840.1.113883.2.51.999",
            "value": "5150eb63-8601-4c8c-802b-8bfa69d7c950"
          }
        ],
        "extension": [
          {
            "url": "http://hl7.org/fhir/5.0/StructureDefinition/extension-DiagnosticReport.composition",
            "valueReference": {
              "reference": "urn:uuid:5dd28c88-8640-4f88-be7b-18d74dee635e"
            }
          }
        ],
        "category": [
          {
            "coding": [
              {
                "code": "26436-6",
                "system": "http://loinc.org",
                "display": "Laboratory studies (set)"
              }
            ]
          }
        ],
        "specimen": [
          {
            "reference": "urn:uuid:699cf8af-752b-418a-a7d1-b7cf131531a5"
          }
        ],
        "result": [
          {
            "reference": "urn:uuid:f2528765-5183-4c65-81b2-3978ee08d1d9"
          },
          {
            "reference": "urn:uuid:c3287eea-66df-4de8-8f98-5aaec15bca3a"
          },
          {
            "reference": "urn:uuid:f661a026-09fc-4b8b-a683-b77df344e331"
          },
          {
            "reference": "urn:uuid:fe0c2fc2-410d-4e12-acdd-58e067b5ce08"
          },
          {
            "reference": "urn:uuid:6a3d5282-52b8-4254-9f12-9a94e4d121e4"
          },
          {
            "reference": "urn:uuid:cb63c0db-d4e0-4bb0-b46d-dab8304445df"
          },
          {
            "reference": "urn:uuid:8306d440-232a-45a2-a052-4420a7b5080a"
          },
          {
            "reference": "urn:uuid:d16c5445-f3e6-44e7-93d1-f8503e6bad50"
          },
          {
            "reference": "urn:uuid:23d5d82e-f2b2-4d52-8299-047ab95a240e"
          }
        ],
        "status": "registered",
        "code": {
          "coding": [
            {
              "code": "11502-2",
              "system": "http://loinc.org",
              "display": "Laboratory report"
            }
          ]
        },
        "subject": {
          "reference": "urn:uuid:acef09bd-d455-41e3-a5d9-ff28b170160b",
          "display": "Gabrielius Gai훾i큰nas"
        }
      }
    },
    {
      "fullUrl": "urn:uuid:acef09bd-d455-41e3-a5d9-ff28b170160b",
      "resource": {
        "resourceType": "Patient",
        "id": "acef09bd-d455-41e3-a5d9-ff28b170160b",
        "meta": {
          "security": [
            {
              "system": "http://terminology.hl7.org/CodeSystem/v3-ActReason",
              "code": "HTEST"
            },
            {
              "system": "http://terminology.hl7.org/CodeSystem/v3-ActReason",
              "code": "TRAIN"
            }
          ],
          "tag": [
            {
              "system": "https://synderai.net/fhir/CodeSystem/tags",
              "code": "synthetic",
              "display": "SYNDERAI Synthetic data"
            }
          ],
          "profile": [
            "http://hl7.eu/fhir/base/StructureDefinition/patient-eu-core"
          ]
        },
        "identifier": [
          {
            "type": {
              "coding": [
                {
                  "code": "PT",
                  "system": "http://terminology.hl7.org/CodeSystem/v2-0203"
                }
              ]
            },
            "system": "http://ec.europa.eu/identifier/eci",
            "value": "5711-320329-3"
          },
          {
            "type": {
              "coding": [
                {
                  "code": "MR",
                  "system": "http://terminology.hl7.org/CodeSystem/v2-0203"
                }
              ]
            },
            "system": "http://local.setting.eu/identifier",
            "value": "b2cdf95b-c12d-3f56-84e4-d085f70edd0c"
          }
        ],
        "name": [
          {
            "family": "Gai훾i큰nas"
          },
          {
            "given": [
              "Gabrielius"
            ]
          },
          {
            "text": "Gabrielius Gai훾i큰nas"
          }
        ],
        "address": [
          {
            "line": [
              "5951 Monika Rapid"
            ],
            "use": "home",
            "type": "physical",
            "postalCode": "97190",
            "city": "Po큄katon",
            "country": "Lithuania"
          }
        ],
        "telecom": [
          {
            "system": "phone",
            "value": "+370 71605146"
          }
        ],
        "extension": [
          {
            "url": "http://hl7.org/fhir/StructureDefinition/patient-nationality",
            "valueCodeableConcept": {
              "coding": [
                {
                  "code": "LT",
                  "system": "http://hl7.org/fhir/ValueSet/country"
                }
              ]
            }
          }
        ],
        "text": {
          "status": "generated",
          "div": "<div xmlns=\"http://www.w3.org/1999/xhtml\"><table class=\"hl7__ips\"><tr><td>Gabrielius Gai훾i큰nas</td><td>male</td><td>19-May-1948</td></tr></table></div>"
        },
        "gender": "male",
        "birthDate": "1948-05-19"
      }
    },
    {
      "fullUrl": "urn:uuid:a09694b3-d06e-4c7c-b4ef-638e739a4faf",
      "resource": {
        "resourceType": "ServiceRequest",
        "id": "a09694b3-d06e-4c7c-b4ef-638e739a4faf",
        "meta": {
          "profile": [
            "http://hl7.eu/fhir/laboratory/StructureDefinition/ServiceRequest-eu-lab"
          ]
        },
        "identifier": [
          {
            "system": "http://example.org",
            "value": "ae23cd76-4a81-4b44-9b95-a512de0d0751"
          }
        ],
        "specimen": [
          {
            "reference": "urn:uuid:699cf8af-752b-418a-a7d1-b7cf131531a5"
          }
        ],
        "reasonCode": [
          {
            "coding": [
              {
                "code": "414545008",
                "system": "http://snomed.info/sct",
                "display": "Ischemic heart disease"
              }
            ]
          },
          {
            "coding": [
              {
                "code": "157141000119108",
                "system": "http://snomed.info/sct",
                "display": "Proteinuria due to type 2 diabetes mellitus"
              }
            ]
          },
          {
            "coding": [
              {
                "code": "401303003",
                "system": "http://snomed.info/sct",
                "display": "Acute ST segment elevation myocardial infarction"
              }
            ]
          },
          {
            "coding": [
              {
                "code": "40055000",
                "system": "http://snomed.info/sct",
                "display": "Chronic sinusitis"
              }
            ]
          },
          {
            "coding": [
              {
                "code": "90781000119102",
                "system": "http://snomed.info/sct",
                "display": "Microalbuminuria due to type 2 diabetes mellitus"
              }
            ]
          },
          {
            "coding": [
              {
                "code": "127013003",
                "system": "http://snomed.info/sct",
                "display": "Disorder of kidney due to diabetes mellitus"
              }
            ]
          },
          {
            "coding": [
              {
                "code": "59621000",
                "system": "http://snomed.info/sct",
                "display": "Essential hypertension"
              }
            ]
          },
          {
            "coding": [
              {
                "code": "15777000",
                "system": "http://snomed.info/sct",
                "display": "Prediabetes"
              }
            ]
          },
          {
            "coding": [
              {
                "code": "271737000",
                "system": "http://snomed.info/sct",
                "display": "Anemia"
              }
            ]
          }
        ],
        "status": "active",
        "intent": "order",
        "code": {
          "coding": [
            {
              "code": "108252007",
              "system": "http://snomed.info/sct",
              "display": "Laboratory procedure"
            }
          ]
        },
        "subject": {
          "reference": "urn:uuid:acef09bd-d455-41e3-a5d9-ff28b170160b",
          "display": "Gabrielius Gai훾i큰nas"
        },
        "requester": {
          "reference": "urn:uuid:e6545fc4-26c6-4fc0-b9da-083fdb4f6948"
        }
      }
    },
    {
      "fullUrl": "urn:uuid:e6545fc4-26c6-4fc0-b9da-083fdb4f6948",
      "resource": {
        "resourceType": "PractitionerRole",
        "id": "e6545fc4-26c6-4fc0-b9da-083fdb4f6948",
        "meta": {
          "profile": [
            "http://hl7.eu/fhir/base/StructureDefinition/practitionerRole-eu"
          ]
        },
        "text": {
          "status": "generated",
          "div": "<div xmlns=\"http://www.w3.org/1999/xhtml\">Provider Role Id: e6545fc4-26c6-4fc0-b9da-083fdb4f6948</div>"
        },
        "organization": {
          "reference": "urn:uuid:9ad0f45e-db23-4f31-b845-442d68c8fab1"
        }
      }
    },
    {
      "fullUrl": "urn:uuid:9ad0f45e-db23-4f31-b845-442d68c8fab1",
      "resource": {
        "resourceType": "Organization",
        "id": "9ad0f45e-db23-4f31-b845-442d68c8fab1",
        "meta": {
          "profile": [
            "http://hl7.eu/fhir/base/StructureDefinition/organization-eu"
          ]
        },
        "identifier": [
          {
            "assigner": {
              "display": "HL7 Europe"
            },
            "system": "urn:oid:2.16.840.1.113883.2.51.999",
            "value": "35e67423-1fc7-451e-9b4f-6369357974a0"
          }
        ],
        "address": [
          {
            "line": [
              "182 Savanori킬 pr."
            ],
            "city": "Klaip휊da",
            "postalCode": "LT-91200",
            "country": "Lithuania"
          }
        ],
        "text": {
          "status": "generated",
          "div": "<div xmlns=\"http://www.w3.org/1999/xhtml\">Provider Organization: Dr. Tomas Bakas</div>"
        },
        "name": "Dr. Tomas Bakas"
      }
    },
    {
      "fullUrl": "urn:uuid:699cf8af-752b-418a-a7d1-b7cf131531a5",
      "resource": {
        "resourceType": "Specimen",
        "id": "699cf8af-752b-418a-a7d1-b7cf131531a5",
        "meta": {
          "profile": [
            "http://hl7.eu/fhir/laboratory/StructureDefinition/Specimen-eu-lab"
          ]
        },
        "collection": {
          "collectedDateTime": "2024-11-01"
        },
        "text": {
          "status": "generated",
          "div": "<div xmlns=\"http://www.w3.org/1999/xhtml\"><table class=\"hl7__eu__lab__report\"><tr><th>Specimen</th><th>Collection Date</th></tr><tr><td>Whole blood specimen (specimen)</td><td><span class=\"nb\">01-Nov-2024</span></td></tr></table></div>"
        },
        "type": {
          "coding": [
            {
              "code": "258580003",
              "system": "http://snomed.info/sct",
              "display": "Whole blood specimen (specimen)"
            }
          ]
        }
      }
    },
    {
      "fullUrl": "urn:uuid:f2528765-5183-4c65-81b2-3978ee08d1d9",
      "resource": {
        "resourceType": "Observation",
        "id": "f2528765-5183-4c65-81b2-3978ee08d1d9",
        "meta": {
          "profile": [
            "http://hl7.eu/fhir/laboratory/StructureDefinition/Observation-resultslab-eu-lab"
          ]
        },
        "performer": [
          {
            "display": "The Central European Lab"
          }
        ],
        "category": [
          {
            "coding": [
              {
                "system": "http://terminology.hl7.org/CodeSystem/observation-category",
                "code": "laboratory"
              }
            ]
          }
        ],
        "code": {
          "coding": [
            {
              "code": "4548-4",
              "system": "http://loinc.org",
              "display": "Hemoglobin A1c/Hemoglobin.total in Blood"
            }
          ],
          "text": "Hemoglobin A1c/Hemoglobin.total in Blood"
        },
        "valueQuantity": {
          "system": "http://unitsofmeasure.org",
          "value": 4,
          "unit": "%",
          "code": "%"
        },
        "referenceRange": [
          {
            "low": {
              "value": 4.6,
              "code": "%",
              "system": "http://unitsofmeasure.org"
            }
          },
          {
            "high": {
              "value": 6.4,
              "code": "%",
              "system": "http://unitsofmeasure.org"
            }
          }
        ],
        "interpretation": [
          {
            "coding": [
              {
                "code": "L",
                "system": "http://terminology.hl7.org/CodeSystem/v3-ObservationInterpretation",
                "display": "Low"
              }
            ]
          }
        ],
        "text": {
          "status": "generated",
          "div": "<div xmlns=\"http://www.w3.org/1999/xhtml\"><table class=\"hl7__eu__lab__report\"><tr><th>Test</th><th>01-Nov-2024</th><th>Reference&#xA0;Range</th><th>Unit</th></tr><tr><td>Hemoglobin A1c/Hemoglobin.total in Blood</td><td>4.0</td><td>4.6 - 6.4</td><td>L</td><td>%</td></tr></table></div>"
        },
        "status": "final",
        "subject": {
          "reference": "urn:uuid:acef09bd-d455-41e3-a5d9-ff28b170160b",
          "display": "Gabrielius Gai훾i큰nas"
        },
        "effectiveDateTime": "2024-11-01T16:05:46Z",
        "specimen": {
          "reference": "urn:uuid:699cf8af-752b-418a-a7d1-b7cf131531a5"
        }
      }
    },
    {
      "fullUrl": "urn:uuid:c3287eea-66df-4de8-8f98-5aaec15bca3a",
      "resource": {
        "resourceType": "Observation",
        "id": "c3287eea-66df-4de8-8f98-5aaec15bca3a",
        "meta": {
          "profile": [
            "http://hl7.eu/fhir/laboratory/StructureDefinition/Observation-resultslab-eu-lab"
          ]
        },
        "performer": [
          {
            "display": "The Central European Lab"
          }
        ],
        "category": [
          {
            "coding": [
              {
                "system": "http://terminology.hl7.org/CodeSystem/observation-category",
                "code": "laboratory"
              }
            ]
          }
        ],
        "code": {
          "coding": [
            {
              "code": "2339-0",
              "system": "http://loinc.org",
              "display": "Glucose [Mass/volume] in Blood"
            }
          ],
          "text": "Glucose [Mass/volume] in Blood"
        },
        "valueQuantity": {
          "system": "http://unitsofmeasure.org",
          "value": 90,
          "unit": "mg/dL",
          "code": "mg/dL"
        },
        "referenceRange": [
          {
            "low": {
              "value": 70,
              "code": "mg/dL",
              "system": "http://unitsofmeasure.org"
            }
          },
          {
            "high": {
              "value": 110,
              "code": "mg/dL",
              "system": "http://unitsofmeasure.org"
            }
          }
        ],
        "text": {
          "status": "generated",
          "div": "<div xmlns=\"http://www.w3.org/1999/xhtml\"><table class=\"hl7__eu__lab__report\"><tr><th>Test</th><th>01-Nov-2024</th><th>Reference&#xA0;Range</th><th>Unit</th></tr><tr><td>Glucose [Mass/volume] in Blood</td><td>90.0</td><td>70 - 110</td><td></td><td>mg/dL</td></tr></table></div>"
        },
        "status": "final",
        "subject": {
          "reference": "urn:uuid:acef09bd-d455-41e3-a5d9-ff28b170160b",
          "display": "Gabrielius Gai훾i큰nas"
        },
        "effectiveDateTime": "2024-11-01T16:05:46Z",
        "specimen": {
          "reference": "urn:uuid:699cf8af-752b-418a-a7d1-b7cf131531a5"
        }
      }
    },
    {
      "fullUrl": "urn:uuid:f661a026-09fc-4b8b-a683-b77df344e331",
      "resource": {
        "resourceType": "Observation",
        "id": "f661a026-09fc-4b8b-a683-b77df344e331",
        "meta": {
          "profile": [
            "http://hl7.eu/fhir/laboratory/StructureDefinition/Observation-resultslab-eu-lab"
          ]
        },
        "performer": [
          {
            "display": "The Central European Lab"
          }
        ],
        "category": [
          {
            "coding": [
              {
                "system": "http://terminology.hl7.org/CodeSystem/observation-category",
                "code": "laboratory"
              }
            ]
          }
        ],
        "code": {
          "coding": [
            {
              "code": "6299-2",
              "system": "http://loinc.org",
              "display": "Urea nitrogen [Mass/volume] in Blood"
            }
          ],
          "text": "Urea nitrogen [Mass/volume] in Blood"
        },
        "valueQuantity": {
          "system": "http://unitsofmeasure.org",
          "value": 12.7,
          "unit": "mg/dL",
          "code": "mg/dL"
        },
        "referenceRange": [
          {
            "low": {
              "value": 7,
              "code": "mg/dL",
              "system": "http://unitsofmeasure.org"
            }
          },
          {
            "high": {
              "value": 43,
              "code": "mg/dL",
              "system": "http://unitsofmeasure.org"
            }
          }
        ],
        "text": {
          "status": "generated",
          "div": "<div xmlns=\"http://www.w3.org/1999/xhtml\"><table class=\"hl7__eu__lab__report\"><tr><th>Test</th><th>01-Nov-2024</th><th>Reference&#xA0;Range</th><th>Unit</th></tr><tr><td>Urea nitrogen [Mass/volume] in Blood</td><td>12.7</td><td>7 - 43</td><td></td><td>mg/dL</td></tr></table></div>"
        },
        "status": "final",
        "subject": {
          "reference": "urn:uuid:acef09bd-d455-41e3-a5d9-ff28b170160b",
          "display": "Gabrielius Gai훾i큰nas"
        },
        "effectiveDateTime": "2024-11-01T16:05:46Z",
        "specimen": {
          "reference": "urn:uuid:699cf8af-752b-418a-a7d1-b7cf131531a5"
        }
      }
    },
    {
      "fullUrl": "urn:uuid:fe0c2fc2-410d-4e12-acdd-58e067b5ce08",
      "resource": {
        "resourceType": "Observation",
        "id": "fe0c2fc2-410d-4e12-acdd-58e067b5ce08",
        "meta": {
          "profile": [
            "http://hl7.eu/fhir/laboratory/StructureDefinition/Observation-resultslab-eu-lab"
          ]
        },
        "performer": [
          {
            "display": "The Central European Lab"
          }
        ],
        "category": [
          {
            "coding": [
              {
                "system": "http://terminology.hl7.org/CodeSystem/observation-category",
                "code": "laboratory"
              }
            ]
          }
        ],
        "code": {
          "coding": [
            {
              "code": "38483-4",
              "system": "http://loinc.org",
              "display": "Creatinine [Mass/volume] in Blood"
            }
          ],
          "text": "Creatinine [Mass/volume] in Blood"
        },
        "valueQuantity": {
          "system": "http://unitsofmeasure.org",
          "value": 0.8,
          "unit": "mg/dL",
          "code": "mg/dL"
        },
        "referenceRange": [
          {
            "low": {
              "value": 0.9,
              "code": "mg/dL",
              "system": "http://unitsofmeasure.org"
            }
          },
          {
            "high": {
              "value": 1.3,
              "code": "mg/dL",
              "system": "http://unitsofmeasure.org"
            }
          }
        ],
        "interpretation": [
          {
            "coding": [
              {
                "code": "L",
                "system": "http://terminology.hl7.org/CodeSystem/v3-ObservationInterpretation",
                "display": "Low"
              }
            ]
          }
        ],
        "text": {
          "status": "generated",
          "div": "<div xmlns=\"http://www.w3.org/1999/xhtml\"><table class=\"hl7__eu__lab__report\"><tr><th>Test</th><th>01-Nov-2024</th><th>Reference&#xA0;Range</th><th>Unit</th></tr><tr><td>Creatinine [Mass/volume] in Blood</td><td>0.8</td><td>0.9 - 1.3</td><td>L</td><td>mg/dL</td></tr></table></div>"
        },
        "status": "final",
        "subject": {
          "reference": "urn:uuid:acef09bd-d455-41e3-a5d9-ff28b170160b",
          "display": "Gabrielius Gai훾i큰nas"
        },
        "effectiveDateTime": "2024-11-01T16:05:46Z",
        "specimen": {
          "reference": "urn:uuid:699cf8af-752b-418a-a7d1-b7cf131531a5"
        }
      }
    },
    {
      "fullUrl": "urn:uuid:6a3d5282-52b8-4254-9f12-9a94e4d121e4",
      "resource": {
        "resourceType": "Observation",
        "id": "6a3d5282-52b8-4254-9f12-9a94e4d121e4",
        "meta": {
          "profile": [
            "http://hl7.eu/fhir/laboratory/StructureDefinition/Observation-resultslab-eu-lab"
          ]
        },
        "performer": [
          {
            "display": "The Central European Lab"
          }
        ],
        "category": [
          {
            "coding": [
              {
                "system": "http://terminology.hl7.org/CodeSystem/observation-category",
                "code": "laboratory"
              }
            ]
          }
        ],
        "code": {
          "coding": [
            {
              "code": "49765-1",
              "system": "http://loinc.org",
              "display": "Calcium [Mass/volume] in Blood"
            }
          ],
          "text": "Calcium [Mass/volume] in Blood"
        },
        "valueQuantity": {
          "system": "http://unitsofmeasure.org",
          "value": 8.6,
          "unit": "mg/dL",
          "code": "mg/dL"
        },
        "referenceRange": [
          {
            "low": {
              "value": 8.5,
              "code": "mg/dL",
              "system": "http://unitsofmeasure.org"
            }
          },
          {
            "high": {
              "value": 10.5,
              "code": "mg/dL",
              "system": "http://unitsofmeasure.org"
            }
          }
        ],
        "text": {
          "status": "generated",
          "div": "<div xmlns=\"http://www.w3.org/1999/xhtml\"><table class=\"hl7__eu__lab__report\"><tr><th>Test</th><th>01-Nov-2024</th><th>Reference&#xA0;Range</th><th>Unit</th></tr><tr><td>Calcium [Mass/volume] in Blood</td><td>8.6</td><td>8.5 - 10.5</td><td></td><td>mg/dL</td></tr></table></div>"
        },
        "status": "final",
        "subject": {
          "reference": "urn:uuid:acef09bd-d455-41e3-a5d9-ff28b170160b",
          "display": "Gabrielius Gai훾i큰nas"
        },
        "effectiveDateTime": "2024-11-01T16:05:46Z",
        "specimen": {
          "reference": "urn:uuid:699cf8af-752b-418a-a7d1-b7cf131531a5"
        }
      }
    },
    {
      "fullUrl": "urn:uuid:cb63c0db-d4e0-4bb0-b46d-dab8304445df",
      "resource": {
        "resourceType": "Observation",
        "id": "cb63c0db-d4e0-4bb0-b46d-dab8304445df",
        "meta": {
          "profile": [
            "http://hl7.eu/fhir/laboratory/StructureDefinition/Observation-resultslab-eu-lab"
          ]
        },
        "performer": [
          {
            "display": "The Central European Lab"
          }
        ],
        "category": [
          {
            "coding": [
              {
                "system": "http://terminology.hl7.org/CodeSystem/observation-category",
                "code": "laboratory"
              }
            ]
          }
        ],
        "code": {
          "coding": [
            {
              "code": "2947-0",
              "system": "http://loinc.org",
              "display": "Sodium [Moles/volume] in Blood"
            }
          ],
          "text": "Sodium [Moles/volume] in Blood"
        },
        "valueQuantity": {
          "system": "http://unitsofmeasure.org",
          "value": 141.1,
          "unit": "mmol/L",
          "code": "mmol/L"
        },
        "referenceRange": [
          {
            "low": {
              "value": 135,
              "code": "mmol/L",
              "system": "http://unitsofmeasure.org"
            }
          },
          {
            "high": {
              "value": 145,
              "code": "mmol/L",
              "system": "http://unitsofmeasure.org"
            }
          }
        ],
        "text": {
          "status": "generated",
          "div": "<div xmlns=\"http://www.w3.org/1999/xhtml\"><table class=\"hl7__eu__lab__report\"><tr><th>Test</th><th>01-Nov-2024</th><th>Reference&#xA0;Range</th><th>Unit</th></tr><tr><td>Sodium [Moles/volume] in Blood</td><td>141.1</td><td>135 - 145</td><td></td><td>mmol/L</td></tr></table></div>"
        },
        "status": "final",
        "subject": {
          "reference": "urn:uuid:acef09bd-d455-41e3-a5d9-ff28b170160b",
          "display": "Gabrielius Gai훾i큰nas"
        },
        "effectiveDateTime": "2024-11-01T16:05:46Z",
        "specimen": {
          "reference": "urn:uuid:699cf8af-752b-418a-a7d1-b7cf131531a5"
        }
      }
    },
    {
      "fullUrl": "urn:uuid:8306d440-232a-45a2-a052-4420a7b5080a",
      "resource": {
        "resourceType": "Observation",
        "id": "8306d440-232a-45a2-a052-4420a7b5080a",
        "meta": {
          "profile": [
            "http://hl7.eu/fhir/laboratory/StructureDefinition/Observation-resultslab-eu-lab"
          ]
        },
        "performer": [
          {
            "display": "The Central European Lab"
          }
        ],
        "category": [
          {
            "coding": [
              {
                "system": "http://terminology.hl7.org/CodeSystem/observation-category",
                "code": "laboratory"
              }
            ]
          }
        ],
        "code": {
          "coding": [
            {
              "code": "6298-4",
              "system": "http://loinc.org",
              "display": "Potassium [Moles/volume] in Blood"
            }
          ],
          "text": "Potassium [Moles/volume] in Blood"
        },
        "valueQuantity": {
          "system": "http://unitsofmeasure.org",
          "value": 4.7,
          "unit": "mmol/L",
          "code": "mmol/L"
        },
        "referenceRange": [
          {
            "low": {
              "value": 3.5,
              "code": "mmol/L",
              "system": "http://unitsofmeasure.org"
            }
          },
          {
            "high": {
              "value": 5.3,
              "code": "mmol/L",
              "system": "http://unitsofmeasure.org"
            }
          }
        ],
        "text": {
          "status": "generated",
          "div": "<div xmlns=\"http://www.w3.org/1999/xhtml\"><table class=\"hl7__eu__lab__report\"><tr><th>Test</th><th>01-Nov-2024</th><th>Reference&#xA0;Range</th><th>Unit</th></tr><tr><td>Potassium [Moles/volume] in Blood</td><td>4.7</td><td>3.5 - 5.3</td><td></td><td>mmol/L</td></tr></table></div>"
        },
        "status": "final",
        "subject": {
          "reference": "urn:uuid:acef09bd-d455-41e3-a5d9-ff28b170160b",
          "display": "Gabrielius Gai훾i큰nas"
        },
        "effectiveDateTime": "2024-11-01T16:05:46Z",
        "specimen": {
          "reference": "urn:uuid:699cf8af-752b-418a-a7d1-b7cf131531a5"
        }
      }
    },
    {
      "fullUrl": "urn:uuid:d16c5445-f3e6-44e7-93d1-f8503e6bad50",
      "resource": {
        "resourceType": "Observation",
        "id": "d16c5445-f3e6-44e7-93d1-f8503e6bad50",
        "meta": {
          "profile": [
            "http://hl7.eu/fhir/laboratory/StructureDefinition/Observation-resultslab-eu-lab"
          ]
        },
        "performer": [
          {
            "display": "The Central European Lab"
          }
        ],
        "category": [
          {
            "coding": [
              {
                "system": "http://terminology.hl7.org/CodeSystem/observation-category",
                "code": "laboratory"
              }
            ]
          }
        ],
        "code": {
          "coding": [
            {
              "code": "2069-3",
              "system": "http://loinc.org",
              "display": "Chloride [Moles/volume] in Blood"
            }
          ],
          "text": "Chloride [Moles/volume] in Blood"
        },
        "valueQuantity": {
          "system": "http://unitsofmeasure.org",
          "value": 101.5,
          "unit": "mmol/L",
          "code": "mmol/L"
        },
        "referenceRange": [
          {
            "low": {
              "value": 98,
              "code": "mmol/L",
              "system": "http://unitsofmeasure.org"
            }
          },
          {
            "high": {
              "value": 108,
              "code": "mmol/L",
              "system": "http://unitsofmeasure.org"
            }
          }
        ],
        "text": {
          "status": "generated",
          "div": "<div xmlns=\"http://www.w3.org/1999/xhtml\"><table class=\"hl7__eu__lab__report\"><tr><th>Test</th><th>01-Nov-2024</th><th>Reference&#xA0;Range</th><th>Unit</th></tr><tr><td>Chloride [Moles/volume] in Blood</td><td>101.5</td><td>98 - 108</td><td></td><td>mmol/L</td></tr></table></div>"
        },
        "status": "final",
        "subject": {
          "reference": "urn:uuid:acef09bd-d455-41e3-a5d9-ff28b170160b",
          "display": "Gabrielius Gai훾i큰nas"
        },
        "effectiveDateTime": "2024-11-01T16:05:46Z",
        "specimen": {
          "reference": "urn:uuid:699cf8af-752b-418a-a7d1-b7cf131531a5"
        }
      }
    },
    {
      "fullUrl": "urn:uuid:23d5d82e-f2b2-4d52-8299-047ab95a240e",
      "resource": {
        "resourceType": "Observation",
        "id": "23d5d82e-f2b2-4d52-8299-047ab95a240e",
        "meta": {
          "profile": [
            "http://hl7.eu/fhir/laboratory/StructureDefinition/Observation-resultslab-eu-lab"
          ]
        },
        "performer": [
          {
            "display": "The Central European Lab"
          }
        ],
        "category": [
          {
            "coding": [
              {
                "system": "http://terminology.hl7.org/CodeSystem/observation-category",
                "code": "laboratory"
              }
            ]
          }
        ],
        "code": {
          "coding": [
            {
              "code": "20565-8",
              "system": "http://loinc.org",
              "display": "Carbon dioxide, total [Moles/volume] in Blood"
            }
          ],
          "text": "Carbon dioxide, total [Moles/volume] in Blood"
        },
        "valueQuantity": {
          "system": "http://unitsofmeasure.org",
          "value": 23.8,
          "unit": "mmol/L",
          "code": "mmol/L"
        },
        "referenceRange": [
          {
            "low": {
              "value": 22,
              "code": "mmol/L",
              "system": "http://unitsofmeasure.org"
            }
          },
          {
            "high": {
              "value": 29,
              "code": "mmol/L",
              "system": "http://unitsofmeasure.org"
            }
          }
        ],
        "text": {
          "status": "generated",
          "div": "<div xmlns=\"http://www.w3.org/1999/xhtml\"><table class=\"hl7__eu__lab__report\"><tr><th>Test</th><th>01-Nov-2024</th><th>Reference&#xA0;Range</th><th>Unit</th></tr><tr><td>Carbon dioxide, total [Moles/volume] in Blood</td><td>23.8</td><td>22 - 29</td><td></td><td>mmol/L</td></tr></table></div>"
        },
        "status": "final",
        "subject": {
          "reference": "urn:uuid:acef09bd-d455-41e3-a5d9-ff28b170160b",
          "display": "Gabrielius Gai훾i큰nas"
        },
        "effectiveDateTime": "2024-11-01T16:05:46Z",
        "specimen": {
          "reference": "urn:uuid:699cf8af-752b-418a-a7d1-b7cf131531a5"
        }
      }
    },
    {
      "fullUrl": "urn:uuid:aeecceb1-158a-4c64-9560-8fcdb571c7c7",
      "resource": {
        "resourceType": "Device",
        "id": "aeecceb1-158a-4c64-9560-8fcdb571c7c7",
        "deviceName": [
          {
            "name": "SYNDERAI Synthetic Generator",
            "type": "manufacturer-name"
          }
        ],
        "version": [
          {
            "value": "5.0"
          }
        ],
        "text": {
          "status": "generated",
          "div": "<div xmlns=\"http://www.w3.org/1999/xhtml\">SYNDERAI Synthetic Generator v5.0</div>"
        },
        "status": "active\"",
        "distinctIdentifier": "synderai-generator-50",
        "manufacturer": "SYNDERAI Project"
      }
    },
    {
      "fullUrl": "urn:uuid:9ab84959-b984-4751-b9fd-8c065e50d5f6",
      "resource": {
        "resourceType": "Provenance",
        "id": "9ab84959-b984-4751-b9fd-8c065e50d5f6",
        "target": [
          {
            "reference": "Patient/acef09bd-d455-41e3-a5d9-ff28b170160b"
          },
          {
            "reference": "Bundle/60d723d0-e13c-44e9-9f3a-240b88c7477f"
          },
          {
            "reference": "Composition/4d810ef0-1f60-40d0-be02-82b77b02d9ad"
          },
          {
            "reference": "PractitionerRole/c14a7605-2c1f-4769-8c58-88bb5218311d"
          },
          {
            "reference": "Practitioner/20cb1e48-dbf1-4605-9c32-cc9b8b80fd9a"
          },
          {
            "reference": "PractitionerRole/e6545fc4-26c6-4fc0-b9da-083fdb4f6948"
          },
          {
            "reference": "Organization/9ad0f45e-db23-4f31-b845-442d68c8fab1"
          }
        ],
        "activity": {
          "text": "Synthetic Example Data Generation"
        },
        "policy": [
          "https://synderai.net/synderai-synthetic-data-policy"
        ],
        "agent": [
          {
            "type": {
              "text": "author"
            },
            "who": {
              "reference": "Device/aeecceb1-158a-4c64-9560-8fcdb571c7c7"
            }
          }
        ],
        "reason": [
          {
            "text": "Interoperability Testing and Training (non-clinical use)"
          }
        ],
        "text": {
          "status": "generated",
          "div": "<div xmlns=\"http://www.w3.org/1999/xhtml\">Provenance for SYNDERAI Synthetic Example Data Resource</div>"
        },
        "recorded": "2024-11-01T17:05:46Z"
      }
    },
    {
      "fullUrl": "urn:uuid:c14a7605-2c1f-4769-8c58-88bb5218311d",
      "resource": {
        "resourceType": "PractitionerRole",
        "id": "c14a7605-2c1f-4769-8c58-88bb5218311d",
        "meta": {
          "profile": [
            "http://hl7.eu/fhir/base/StructureDefinition/practitionerRole-eu"
          ]
        },
        "text": {
          "status": "generated",
          "div": "<div xmlns=\"http://www.w3.org/1999/xhtml\">Laboratory Role Id: c14a7605-2c1f-4769-8c58-88bb5218311d</div>"
        },
        "practitioner": {
          "reference": "urn:uuid:20cb1e48-dbf1-4605-9c32-cc9b8b80fd9a"
        }
      }
    },
    {
      "fullUrl": "urn:uuid:20cb1e48-dbf1-4605-9c32-cc9b8b80fd9a",
      "resource": {
        "resourceType": "Practitioner",
        "id": "20cb1e48-dbf1-4605-9c32-cc9b8b80fd9a",
        "meta": {
          "profile": [
            "http://hl7.eu/fhir/base/StructureDefinition/practitioner-eu"
          ]
        },
        "identifier": [
          {
            "assigner": {
              "display": "HL7 Europe"
            },
            "system": "urn:oid:2.16.840.1.113883.2.51.999",
            "value": "9ec1271a-ea60-484a-9fef-655888fad0d2"
          }
        ],
        "name": [
          {
            "prefix": [
              "dr"
            ],
            "given": [
              "Ex"
            ],
            "family": "Ample"
          }
        ],
        "address": [
          {
            "line": [
              "Laboratoire Central Europ챕enne",
              "Boulevard du Jardin Botanique 32"
            ],
            "postalCode": "1000",
            "city": "Brussels",
            "country": "Belgium"
          }
        ],
        "text": {
          "status": "generated",
          "div": "<div xmlns=\"http://www.w3.org/1999/xhtml\">Laboratory: Laboratoire Central Europ챕enne, 1000 Brussels, Belgium</div>"
        }
      }
    }
  ],
  "type": "document",
  "timestamp": "2024-11-01T17:05:46Z"
}
