{
  "resourceType": "Bundle",
  "id": "ce3ded44-123c-41c8-8615-1531fe8fcffe",
  "meta": {
    "profile": [
      "http://hl7.eu/fhir/laboratory/StructureDefinition/Bundle-eu-lab"
    ]
  },
  "identifier": {
    "assigner": {
      "display": "HL7 Europe"
    },
    "system": "urn:oid:2.16.840.1.113883.2.51.999",
    "value": "b405c51b-3d94-4ff2-a3a9-c00a818d8889"
  },
  "entry": [
    {
      "fullUrl": "urn:uuid:51f23740-c765-40a1-bc5a-7e5478f574d5",
      "resource": {
        "resourceType": "Composition",
        "id": "51f23740-c765-40a1-bc5a-7e5478f574d5",
        "meta": {
          "profile": [
            "http://hl7.eu/fhir/laboratory/StructureDefinition/Composition-eu-lab"
          ]
        },
        "identifier": {
          "assigner": {
            "display": "HL7 Europe"
          },
          "system": "urn:oid:2.16.840.1.113883.2.51.999",
          "value": "b58d992f-ab13-4bb8-97d9-d17df750a395"
        },
        "author": [
          {
            "reference": "urn:uuid:a769b47e-b89a-45cf-b10a-64a476b8c29f"
          }
        ],
        "category": [
          {
            "coding": [
              {
                "code": "26436-6",
                "system": "http://loinc.org",
                "display": "Laboratory studies (set)"
              }
            ]
          }
        ],
        "type": {
          "coding": [
            {
              "code": "11502-2",
              "system": "http://loinc.org",
              "display": "Laboratory report"
            }
          ],
          "text": "Laboratory Report"
        },
        "section": [
          {
            "code": {
              "coding": [
                {
                  "code": "26436-6",
                  "system": "http://loinc.org",
                  "display": "Laboratory studies (set)"
                }
              ],
              "text": "Laboratory studies"
            },
            "section": [
              {
                "code": {
                  "coding": [
                    {
                      "code": "$18719-5",
                      "system": "http://loinc.org",
                      "display": "Chemistry studies (set)"
                    }
                  ],
                  "text": "Chemistry"
                },
                "entry": [
                  {
                    "reference": "urn:uuid:b633c89d-fa9d-4918-b056-622f4d23739f"
                  },
                  {
                    "reference": "urn:uuid:a9175a1b-a440-43d0-bc1a-57bcf4d2a254"
                  },
                  {
                    "reference": "urn:uuid:e788e7c8-987c-4475-a957-9669aa299182"
                  },
                  {
                    "reference": "urn:uuid:7204b5f6-c705-49c3-a633-1cc6c92bd596"
                  },
                  {
                    "reference": "urn:uuid:a0ce081e-4b60-4758-a1d2-835fe94b635f"
                  },
                  {
                    "reference": "urn:uuid:d48cd9e5-6723-45d5-9344-e6fff1babc08"
                  },
                  {
                    "reference": "urn:uuid:3cce6c75-0d1a-4c39-9976-f16b442fa4e8"
                  },
                  {
                    "reference": "urn:uuid:d5449120-7b66-4a4d-a57b-633119dd58f4"
                  },
                  {
                    "reference": "urn:uuid:7e5a6506-1227-43c5-999f-cccb69b3806e"
                  },
                  {
                    "reference": "urn:uuid:23e273f9-89ff-4a9c-948a-64d084cc4bc1"
                  },
                  {
                    "reference": "urn:uuid:22c4fe5b-a3ca-4113-a408-2341532cab6a"
                  },
                  {
                    "reference": "urn:uuid:251c0fe4-ad16-49ec-8aa1-699d85085d34"
                  },
                  {
                    "reference": "urn:uuid:d772cf23-133e-4b2b-abde-e272bf535670"
                  },
                  {
                    "reference": "urn:uuid:73e62aa1-6523-4903-9f7e-858b2bc06052"
                  },
                  {
                    "reference": "urn:uuid:c00c15d1-eecb-4769-a453-945c9e7e0b42"
                  },
                  {
                    "reference": "urn:uuid:ba14b67c-7810-4d71-bd13-941d153d03b3"
                  },
                  {
                    "reference": "urn:uuid:e29cf9b1-ab6c-4f6b-8c9d-79b664840cef"
                  },
                  {
                    "reference": "urn:uuid:544b088a-38e7-47c9-9303-8c77eae132eb"
                  }
                ],
                "text": {
                  "status": "generated",
                  "div": "<div xmlns=\"http://www.w3.org/1999/xhtml\"><h3>Chemistry</h3><table class=\"hl7__eu__lab__report\"><thead><tr><th>Test</th><th>30-JUL-2024</th><th>Reference&#xA0;Range</th><th>Unit</th></tr></thead><tbody><tr><td>Glucose [Mass/volume] in Serum or Plasma</td><td><strong>65.9 L</strong></td><td>70 - 99</td><td>mg/dL</td></tr><tr><td>Urea nitrogen [Mass/volume] in Serum or Plasma</td><td>16.4</td><td>7 - 50</td><td>mg/dL</td></tr><tr><td>Creatinine [Mass/volume] in Serum or Plasma</td><td><strong>2.0 H</strong></td><td>0.6 - 1.1</td><td>mg/dL</td></tr><tr><td>Calcium [Mass/volume] in Serum or Plasma</td><td>9.0</td><td>8.6 - 10.4</td><td>mg/dL</td></tr><tr><td>Sodium [Moles/volume] in Serum or Plasma</td><td>140.3</td><td>135 - 145</td><td>mmol/L</td></tr><tr><td>Potassium [Moles/volume] in Serum or Plasma</td><td>5.1</td><td>3.5 - 5.1</td><td>mmol/L</td></tr><tr><td>Chloride [Moles/volume] in Serum or Plasma</td><td>106.8</td><td>98 - 108</td><td>mmol/L</td></tr><tr><td>Carbon dioxide, total [Moles/volume] in Serum or Plasma</td><td>22.9</td><td>22 - 32</td><td>mmol/L</td></tr><tr><td>Ketones [Presence] in Urine by Test strip</td><td>Urine ketone test = ++</td><td></td><td></td></tr><tr><td>Hemoglobin A1c/Hemoglobin.total in Blood</td><td>4.0</td><td>4 - 6.4</td><td>%</td></tr><tr><td>Glucose [Mass/volume] in Blood</td><td><strong>65.9 L</strong></td><td>70 - 100</td><td>mg/dL</td></tr><tr><td>Urea nitrogen [Mass/volume] in Blood</td><td>16.4</td><td>7 - 43</td><td>mg/dL</td></tr><tr><td>Creatinine [Mass/volume] in Blood</td><td><strong>3.6 H</strong></td><td>0.6 - 1.1</td><td>mg/dL</td></tr><tr><td>Calcium [Mass/volume] in Blood</td><td>9.0</td><td>8.5 - 10.5</td><td>mg/dL</td></tr><tr><td>Sodium [Moles/volume] in Blood</td><td>140.3</td><td>135 - 145</td><td>mmol/L</td></tr><tr><td>Potassium [Moles/volume] in Blood</td><td>5.1</td><td>3.5 - 5.1</td><td>mmol/L</td></tr><tr><td>Chloride [Moles/volume] in Blood</td><td>106.8</td><td>98 - 108</td><td>mmol/L</td></tr><tr><td>Carbon dioxide, total [Moles/volume] in Blood</td><td>22.9</td><td>22 - 29</td><td>mmol/L</td></tr></tbody></table></div>"
                },
                "title": "Chemistry"
              },
              {
                "code": {
                  "coding": [
                    {
                      "code": "$18729-4",
                      "system": "http://loinc.org",
                      "display": "Urinalysis studies (set)"
                    }
                  ],
                  "text": "Urinalysis"
                },
                "entry": [
                  {
                    "reference": "urn:uuid:b3327d6b-4104-46da-81a9-afc9f51f0264"
                  },
                  {
                    "reference": "urn:uuid:b80f93d4-1f52-4fb6-a131-c62dabc87bb0"
                  },
                  {
                    "reference": "urn:uuid:1566124e-8cdc-4326-a6e2-4455d4e156b5"
                  },
                  {
                    "reference": "urn:uuid:ea042ef5-484a-4cf8-a0a2-e15e24398a8d"
                  },
                  {
                    "reference": "urn:uuid:94aef8d0-6769-4a83-86ba-0b1bcf01ab90"
                  },
                  {
                    "reference": "urn:uuid:be8d1f11-5731-4884-a38a-557393049675"
                  },
                  {
                    "reference": "urn:uuid:6a54d9dc-6a73-410d-b005-7039844b248f"
                  },
                  {
                    "reference": "urn:uuid:cc3380a1-a511-4988-8bbe-cf291e80e51c"
                  },
                  {
                    "reference": "urn:uuid:2d90d1e5-ac75-4a61-bc3b-22fa3488cf3b"
                  },
                  {
                    "reference": "urn:uuid:aaf03e1d-640c-44f7-922f-c9bde1e30b28"
                  },
                  {
                    "reference": "urn:uuid:22292a1c-bc76-476e-9f3d-30764c23dbdd"
                  },
                  {
                    "reference": "urn:uuid:e4ab3fca-1ab5-4940-a26d-4788b154650a"
                  }
                ],
                "text": {
                  "status": "generated",
                  "div": "<div xmlns=\"http://www.w3.org/1999/xhtml\"><h3>Urinalysis</h3><table class=\"hl7__eu__lab__report\"><thead><tr><th>Test</th><th>30-JUL-2024</th><th>Reference&#xA0;Range</th><th>Unit</th></tr></thead><tbody><tr><td>Glucose [Mass/volume] in Urine by Test strip</td><td><strong>1.2 H</strong></td><td>0.8 - 0</td><td>mg/dL</td></tr><tr><td>Glucose [Presence] in Urine by Test strip</td><td>++</td><td></td><td></td></tr><tr><td>Bilirubin.total [Mass/volume] in Urine by Test strip</td><td><strong>1.2 H</strong></td><td>0 - 1</td><td>mg/dL</td></tr><tr><td>Bilirubin.total [Presence] in Urine by Test strip</td><td>Finding of bilirubin in urine</td><td></td><td></td></tr><tr><td>Ketones [Mass/volume] in Urine by Test strip</td><td><strong>4.3 H</strong></td><td>0 - 4</td><td>mg/dL</td></tr><tr><td>Specific gravity of Urine by Test strip</td><td><strong>1.0 L</strong></td><td>1.005 - 1.03</td><td>{nominal}</td></tr><tr><td>pH of Urine by Test strip</td><td>6.3</td><td>4.6 - 7</td><td>pH</td></tr><tr><td>Protein [Mass/volume] in Urine by Test strip</td><td><strong>241.0 H</strong></td><td>0 - 14</td><td>mg/dL</td></tr><tr><td>Protein [Presence] in Urine by Test strip</td><td>Urine protein test = ++</td><td></td><td></td></tr><tr><td>Nitrite [Presence] in Urine by Test strip</td><td>Urine nitrite negative</td><td></td><td></td></tr><tr><td>Hemoglobin [Presence] in Urine by Test strip</td><td>Urine blood test = negative</td><td></td><td></td></tr><tr><td>Leukocyte esterase [Presence] in Urine by Test strip</td><td>Urine leukocyte test negative</td><td></td><td></td></tr></tbody></table></div>"
                },
                "title": "Urinalysis"
              },
              {
                "code": {
                  "coding": [
                    {
                      "code": "$LP7846-1",
                      "system": "http://loinc.org",
                      "display": "Specimen information"
                    }
                  ],
                  "text": "Specimen information"
                },
                "entry": [
                  {
                    "reference": "urn:uuid:779f67f9-bb5c-4c3f-84c9-88e4d25e5702"
                  },
                  {
                    "reference": "urn:uuid:c9a753ce-6339-4aed-9ee0-7ea797b1e1b4"
                  },
                  {
                    "reference": "urn:uuid:9b31a4e7-390e-4073-94d8-90d0a3166143"
                  },
                  {
                    "reference": "urn:uuid:d313f99e-dc87-4a10-8f75-5ebaf6283c87"
                  }
                ],
                "text": {
                  "status": "generated",
                  "div": "<div xmlns=\"http://www.w3.org/1999/xhtml\"><h3>Specimen information</h3><table class=\"hl7__eu__lab__report\"><thead><tr><th>Test</th><th>30-JUL-2024</th><th>Specimen</th><th></th></tr></thead><tbody><tr><td>Appearance of Urine</td><td>Cloudy urine</td><td>Urine</td><td></td></tr><tr><td>Odor of Urine</td><td>Urine smell ammoniacal</td><td>Urine</td><td></td></tr><tr><td>Clarity of Urine</td><td>Translucent</td><td>Urine</td><td></td></tr><tr><td>Color of Urine</td><td>Brown color</td><td>Urine</td><td></td></tr></tbody></table></div>"
                },
                "title": "Specimen information"
              }
            ],
            "title": "Laboratory Report"
          },
          {
            "text": {
              "status": "generated",
              "div": "<div xmlns=\"http://www.w3.org/1999/xhtml\"><h3>Annotation</h3><table class=\"hl7__eu__lab__report\"><tr><th>Conclusion and Recommendations based on this report and previous findings known to us</th></tr><tr><td>The patient shows significant renal impairment (elevated creatinine), proteinuria, glucosuria, ketonuria, and mildly low blood glucose, suggesting possible diabetic nephropathy or another renal pathology. Urine findings (cloudy, brown, ammoniacal) may indicate urinary tract involvement. No evidence of infection (negative nitrites/leukocytes). Recommend urgent nephrology evaluation and further assessment for underlying metabolic or renal disease.</td></tr></table></div>"
            },
            "code": {
              "coding": [
                {
                  "system": "http://loinc.org",
                  "code": "48767-8",
                  "display": "Annotation comment"
                }
              ]
            },
            "title": "Annotation comment"
          }
        ],
        "status": "final",
        "subject": {
          "reference": "urn:uuid:a3e9475a-b039-45f6-a774-02cb0c4a75b5",
          "display": "Meaghan Neary"
        },
        "date": "2024-07-30T00:11:04Z",
        "title": "Laboratory Report",
        "confidentiality": "N"
      }
    },
    {
      "fullUrl": "urn:uuid:33f87c31-d95f-4451-8aef-ce3f420fbc80",
      "resource": {
        "resourceType": "DiagnosticReport",
        "id": "33f87c31-d95f-4451-8aef-ce3f420fbc80",
        "meta": {
          "profile": [
            "http://hl7.eu/fhir/laboratory/StructureDefinition/DiagnosticReport-eu-lab"
          ]
        },
        "identifier": [
          {
            "assigner": {
              "display": "HL7 Europe"
            },
            "system": "urn:oid:2.16.840.1.113883.2.51.999",
            "value": "f191f12f-9d2b-46eb-959e-1eb5313b82b4"
          }
        ],
        "extension": [
          {
            "url": "http://hl7.org/fhir/5.0/StructureDefinition/extension-DiagnosticReport.composition",
            "valueReference": {
              "reference": "urn:uuid:b58d992f-ab13-4bb8-97d9-d17df750a395"
            }
          }
        ],
        "category": [
          {
            "coding": [
              {
                "code": "26436-6",
                "system": "http://loinc.org",
                "display": "Laboratory studies (set)"
              }
            ]
          }
        ],
        "specimen": [
          {
            "reference": "urn:uuid:13d5b3d2-f0fb-46ab-96ab-53b7a050ed0b"
          },
          {
            "reference": "urn:uuid:ce84fcfd-fe2b-4c16-a1d4-3904314af2f1"
          },
          {
            "reference": "urn:uuid:ef612084-8478-4fe0-9054-90cec69213c3"
          }
        ],
        "result": [
          {
            "reference": "urn:uuid:b633c89d-fa9d-4918-b056-622f4d23739f"
          },
          {
            "reference": "urn:uuid:a9175a1b-a440-43d0-bc1a-57bcf4d2a254"
          },
          {
            "reference": "urn:uuid:e788e7c8-987c-4475-a957-9669aa299182"
          },
          {
            "reference": "urn:uuid:7204b5f6-c705-49c3-a633-1cc6c92bd596"
          },
          {
            "reference": "urn:uuid:a0ce081e-4b60-4758-a1d2-835fe94b635f"
          },
          {
            "reference": "urn:uuid:d48cd9e5-6723-45d5-9344-e6fff1babc08"
          },
          {
            "reference": "urn:uuid:3cce6c75-0d1a-4c39-9976-f16b442fa4e8"
          },
          {
            "reference": "urn:uuid:d5449120-7b66-4a4d-a57b-633119dd58f4"
          },
          {
            "reference": "urn:uuid:779f67f9-bb5c-4c3f-84c9-88e4d25e5702"
          },
          {
            "reference": "urn:uuid:c9a753ce-6339-4aed-9ee0-7ea797b1e1b4"
          },
          {
            "reference": "urn:uuid:9b31a4e7-390e-4073-94d8-90d0a3166143"
          },
          {
            "reference": "urn:uuid:d313f99e-dc87-4a10-8f75-5ebaf6283c87"
          },
          {
            "reference": "urn:uuid:b3327d6b-4104-46da-81a9-afc9f51f0264"
          },
          {
            "reference": "urn:uuid:b80f93d4-1f52-4fb6-a131-c62dabc87bb0"
          },
          {
            "reference": "urn:uuid:1566124e-8cdc-4326-a6e2-4455d4e156b5"
          },
          {
            "reference": "urn:uuid:ea042ef5-484a-4cf8-a0a2-e15e24398a8d"
          },
          {
            "reference": "urn:uuid:94aef8d0-6769-4a83-86ba-0b1bcf01ab90"
          },
          {
            "reference": "urn:uuid:7e5a6506-1227-43c5-999f-cccb69b3806e"
          },
          {
            "reference": "urn:uuid:be8d1f11-5731-4884-a38a-557393049675"
          },
          {
            "reference": "urn:uuid:6a54d9dc-6a73-410d-b005-7039844b248f"
          },
          {
            "reference": "urn:uuid:cc3380a1-a511-4988-8bbe-cf291e80e51c"
          },
          {
            "reference": "urn:uuid:2d90d1e5-ac75-4a61-bc3b-22fa3488cf3b"
          },
          {
            "reference": "urn:uuid:aaf03e1d-640c-44f7-922f-c9bde1e30b28"
          },
          {
            "reference": "urn:uuid:22292a1c-bc76-476e-9f3d-30764c23dbdd"
          },
          {
            "reference": "urn:uuid:e4ab3fca-1ab5-4940-a26d-4788b154650a"
          },
          {
            "reference": "urn:uuid:23e273f9-89ff-4a9c-948a-64d084cc4bc1"
          },
          {
            "reference": "urn:uuid:22c4fe5b-a3ca-4113-a408-2341532cab6a"
          },
          {
            "reference": "urn:uuid:251c0fe4-ad16-49ec-8aa1-699d85085d34"
          },
          {
            "reference": "urn:uuid:d772cf23-133e-4b2b-abde-e272bf535670"
          },
          {
            "reference": "urn:uuid:73e62aa1-6523-4903-9f7e-858b2bc06052"
          },
          {
            "reference": "urn:uuid:c00c15d1-eecb-4769-a453-945c9e7e0b42"
          },
          {
            "reference": "urn:uuid:ba14b67c-7810-4d71-bd13-941d153d03b3"
          },
          {
            "reference": "urn:uuid:e29cf9b1-ab6c-4f6b-8c9d-79b664840cef"
          },
          {
            "reference": "urn:uuid:544b088a-38e7-47c9-9303-8c77eae132eb"
          }
        ],
        "status": "registered",
        "code": {
          "coding": [
            {
              "code": "11502-2",
              "system": "http://loinc.org",
              "display": "Laboratory report"
            }
          ]
        },
        "subject": {
          "reference": "urn:uuid:a3e9475a-b039-45f6-a774-02cb0c4a75b5",
          "display": "Meaghan Neary"
        }
      }
    },
    {
      "fullUrl": "urn:uuid:a3e9475a-b039-45f6-a774-02cb0c4a75b5",
      "resource": {
        "resourceType": "Patient",
        "id": "a3e9475a-b039-45f6-a774-02cb0c4a75b5",
        "meta": {
          "security": [
            {
              "system": "http://terminology.hl7.org/CodeSystem/v3-ActReason",
              "code": "HTEST"
            },
            {
              "system": "http://terminology.hl7.org/CodeSystem/v3-ActReason",
              "code": "TRAIN"
            }
          ],
          "tag": [
            {
              "system": "https://synderai.net/fhir/CodeSystem/tags",
              "code": "synthetic",
              "display": "SYNDERAI Synthetic data"
            }
          ],
          "profile": [
            "http://hl7.eu/fhir/base/StructureDefinition/patient-eu-core"
          ]
        },
        "identifier": [
          {
            "type": {
              "coding": [
                {
                  "code": "PT",
                  "system": "http://terminology.hl7.org/CodeSystem/v2-0203"
                }
              ]
            },
            "system": "http://ec.europa.eu/identifier/eci",
            "value": "1586-567257-8"
          },
          {
            "type": {
              "coding": [
                {
                  "code": "MR",
                  "system": "http://terminology.hl7.org/CodeSystem/v2-0203"
                }
              ]
            },
            "system": "http://local.setting.eu/identifier",
            "value": "443e6379-f231-b364-3ccb-644740a1aa2a"
          }
        ],
        "name": [
          {
            "family": "Neary"
          },
          {
            "given": [
              "Meaghan"
            ]
          },
          {
            "text": "Meaghan Neary"
          }
        ],
        "address": [
          {
            "line": [
              "64 Linskey Street"
            ],
            "use": "home",
            "type": "physical",
            "postalCode": "D02",
            "city": "Dublin",
            "country": "Ireland"
          }
        ],
        "telecom": [
          {
            "system": "phone",
            "value": "001-967-573-0911x465"
          }
        ],
        "extension": [
          {
            "url": "http://hl7.org/fhir/StructureDefinition/patient-nationality",
            "valueCodeableConcept": {
              "coding": [
                {
                  "code": "IE",
                  "system": "http://hl7.org/fhir/ValueSet/country"
                }
              ]
            }
          }
        ],
        "text": {
          "status": "generated",
          "div": "<div xmlns=\"http://www.w3.org/1999/xhtml\"><table class=\"hl7__ips\"><tr><td>Meaghan Neary</td><td>female</td><td>19-Dec-1960</td></tr></table></div>"
        },
        "gender": "female",
        "birthDate": "1960-12-19"
      }
    },
    {
      "fullUrl": "urn:uuid:b792ab37-f5b2-4b0c-8586-af53edcd267f",
      "resource": {
        "resourceType": "ServiceRequest",
        "id": "b792ab37-f5b2-4b0c-8586-af53edcd267f",
        "meta": {
          "profile": [
            "http://hl7.eu/fhir/laboratory/StructureDefinition/ServiceRequest-eu-lab"
          ]
        },
        "identifier": [
          {
            "system": "http://example.org",
            "value": "8a44ba83-d3f8-4af9-a9b4-c31116ea3089"
          }
        ],
        "specimen": [
          {
            "reference": "urn:uuid:13d5b3d2-f0fb-46ab-96ab-53b7a050ed0b"
          },
          {
            "reference": "urn:uuid:ce84fcfd-fe2b-4c16-a1d4-3904314af2f1"
          },
          {
            "reference": "urn:uuid:ef612084-8478-4fe0-9054-90cec69213c3"
          }
        ],
        "reasonCode": [
          {
            "coding": [
              {
                "code": "55822004",
                "system": "http://snomed.info/sct",
                "display": "Hyperlipidemia"
              }
            ]
          },
          {
            "coding": [
              {
                "code": "433144002",
                "system": "http://snomed.info/sct",
                "display": "Chronic kidney disease stage 3"
              }
            ]
          },
          {
            "coding": [
              {
                "code": "157141000119108",
                "system": "http://snomed.info/sct",
                "display": "Proteinuria due to type 2 diabetes mellitus"
              }
            ]
          },
          {
            "coding": [
              {
                "code": "431856006",
                "system": "http://snomed.info/sct",
                "display": "Chronic kidney disease stage 2"
              }
            ]
          },
          {
            "coding": [
              {
                "code": "90781000119102",
                "system": "http://snomed.info/sct",
                "display": "Microalbuminuria due to type 2 diabetes mellitus"
              }
            ]
          },
          {
            "coding": [
              {
                "code": "127013003",
                "system": "http://snomed.info/sct",
                "display": "Disorder of kidney due to diabetes mellitus"
              }
            ]
          },
          {
            "coding": [
              {
                "code": "431855005",
                "system": "http://snomed.info/sct",
                "display": "Chronic kidney disease stage 1"
              }
            ]
          },
          {
            "coding": [
              {
                "code": "237602007",
                "system": "http://snomed.info/sct",
                "display": "Metabolic syndrome X"
              }
            ]
          },
          {
            "coding": [
              {
                "code": "271737000",
                "system": "http://snomed.info/sct",
                "display": "Anemia"
              }
            ]
          },
          {
            "coding": [
              {
                "code": "15777000",
                "system": "http://snomed.info/sct",
                "display": "Prediabetes"
              }
            ]
          },
          {
            "coding": [
              {
                "code": "59621000",
                "system": "http://snomed.info/sct",
                "display": "Essential hypertension"
              }
            ]
          }
        ],
        "status": "active",
        "intent": "order",
        "code": {
          "coding": [
            {
              "code": "108252007",
              "system": "http://snomed.info/sct",
              "display": "Laboratory procedure"
            }
          ]
        },
        "subject": {
          "reference": "urn:uuid:a3e9475a-b039-45f6-a774-02cb0c4a75b5",
          "display": "Meaghan Neary"
        },
        "requester": {
          "reference": "urn:uuid:a01ceaa5-88fa-4df0-93b9-3a7590b8b654"
        }
      }
    },
    {
      "fullUrl": "urn:uuid:a01ceaa5-88fa-4df0-93b9-3a7590b8b654",
      "resource": {
        "resourceType": "PractitionerRole",
        "id": "a01ceaa5-88fa-4df0-93b9-3a7590b8b654",
        "meta": {
          "profile": [
            "http://hl7.eu/fhir/base/StructureDefinition/practitionerRole-eu"
          ]
        },
        "text": {
          "status": "generated",
          "div": "<div xmlns=\"http://www.w3.org/1999/xhtml\">Provider Role Id: a01ceaa5-88fa-4df0-93b9-3a7590b8b654</div>"
        },
        "organization": {
          "reference": "urn:uuid:61205121-ce68-475d-8158-9623846f7234"
        }
      }
    },
    {
      "fullUrl": "urn:uuid:61205121-ce68-475d-8158-9623846f7234",
      "resource": {
        "resourceType": "Organization",
        "id": "61205121-ce68-475d-8158-9623846f7234",
        "meta": {
          "profile": [
            "http://hl7.eu/fhir/base/StructureDefinition/organization-eu"
          ]
        },
        "identifier": [
          {
            "assigner": {
              "display": "HL7 Europe"
            },
            "system": "urn:oid:2.16.840.1.113883.2.51.999",
            "value": "c82dd487-e549-42aa-8538-6843407b03d5"
          }
        ],
        "address": [
          {
            "line": [
              "Parnell Square West nan"
            ],
            "city": "Dublin",
            "postalCode": "D01",
            "country": "Ireland"
          }
        ],
        "text": {
          "status": "generated",
          "div": "<div xmlns=\"http://www.w3.org/1999/xhtml\">Provider Organization: Rotunda Hospital</div>"
        },
        "name": "Rotunda Hospital"
      }
    },
    {
      "fullUrl": "urn:uuid:13d5b3d2-f0fb-46ab-96ab-53b7a050ed0b",
      "resource": {
        "resourceType": "Specimen",
        "id": "13d5b3d2-f0fb-46ab-96ab-53b7a050ed0b",
        "meta": {
          "profile": [
            "http://hl7.eu/fhir/laboratory/StructureDefinition/Specimen-eu-lab"
          ]
        },
        "collection": {
          "collectedDateTime": "2024-07-29"
        },
        "text": {
          "status": "generated",
          "div": "<div xmlns=\"http://www.w3.org/1999/xhtml\"><table class=\"hl7__eu__lab__report\"><tr><th>Specimen</th><th>Collection Date</th></tr><tr><td>Acellular blood (serum or plasma) specimen</td><td><span class=\"nb\">29-Jul-2024</span></td></tr></table></div>"
        },
        "type": {
          "coding": [
            {
              "code": "122592007",
              "system": "http://snomed.info/sct",
              "display": "Acellular blood (serum or plasma) specimen"
            }
          ]
        }
      }
    },
    {
      "fullUrl": "urn:uuid:ce84fcfd-fe2b-4c16-a1d4-3904314af2f1",
      "resource": {
        "resourceType": "Specimen",
        "id": "ce84fcfd-fe2b-4c16-a1d4-3904314af2f1",
        "meta": {
          "profile": [
            "http://hl7.eu/fhir/laboratory/StructureDefinition/Specimen-eu-lab"
          ]
        },
        "collection": {
          "collectedDateTime": "2024-07-29"
        },
        "text": {
          "status": "generated",
          "div": "<div xmlns=\"http://www.w3.org/1999/xhtml\"><table class=\"hl7__eu__lab__report\"><tr><th>Specimen</th><th>Collection Date</th></tr><tr><td>Urine specimen</td><td><span class=\"nb\">29-Jul-2024</span></td></tr></table></div>"
        },
        "type": {
          "coding": [
            {
              "code": "122575003",
              "system": "http://snomed.info/sct",
              "display": "Urine specimen"
            }
          ]
        }
      }
    },
    {
      "fullUrl": "urn:uuid:ef612084-8478-4fe0-9054-90cec69213c3",
      "resource": {
        "resourceType": "Specimen",
        "id": "ef612084-8478-4fe0-9054-90cec69213c3",
        "meta": {
          "profile": [
            "http://hl7.eu/fhir/laboratory/StructureDefinition/Specimen-eu-lab"
          ]
        },
        "collection": {
          "collectedDateTime": "2024-07-29"
        },
        "text": {
          "status": "generated",
          "div": "<div xmlns=\"http://www.w3.org/1999/xhtml\"><table class=\"hl7__eu__lab__report\"><tr><th>Specimen</th><th>Collection Date</th></tr><tr><td>Whole blood specimen (specimen)</td><td><span class=\"nb\">29-Jul-2024</span></td></tr></table></div>"
        },
        "type": {
          "coding": [
            {
              "code": "258580003",
              "system": "http://snomed.info/sct",
              "display": "Whole blood specimen (specimen)"
            }
          ]
        }
      }
    },
    {
      "fullUrl": "urn:uuid:b633c89d-fa9d-4918-b056-622f4d23739f",
      "resource": {
        "resourceType": "Observation",
        "id": "b633c89d-fa9d-4918-b056-622f4d23739f",
        "meta": {
          "profile": [
            "http://hl7.eu/fhir/laboratory/StructureDefinition/Observation-resultslab-eu-lab"
          ]
        },
        "performer": [
          {
            "display": "The Central European Lab"
          }
        ],
        "category": [
          {
            "coding": [
              {
                "system": "http://terminology.hl7.org/CodeSystem/observation-category",
                "code": "laboratory"
              }
            ]
          }
        ],
        "code": {
          "coding": [
            {
              "code": "2345-7",
              "system": "http://loinc.org",
              "display": "Glucose [Mass/volume] in Serum or Plasma"
            }
          ],
          "text": "Glucose [Mass/volume] in Serum or Plasma"
        },
        "valueQuantity": {
          "system": "http://unitsofmeasure.org",
          "value": 65.9,
          "unit": "mg/dL",
          "code": "mg/dL"
        },
        "referenceRange": [
          {
            "low": {
              "value": 70,
              "code": "mg/dL",
              "system": "http://unitsofmeasure.org"
            }
          },
          {
            "high": {
              "value": 99,
              "code": "mg/dL",
              "system": "http://unitsofmeasure.org"
            }
          }
        ],
        "interpretation": [
          {
            "coding": [
              {
                "code": "L",
                "system": "http://terminology.hl7.org/CodeSystem/v3-ObservationInterpretation",
                "display": "Low"
              }
            ]
          }
        ],
        "text": {
          "status": "generated",
          "div": "<div xmlns=\"http://www.w3.org/1999/xhtml\"><table class=\"hl7__eu__lab__report\"><tr><th>Test</th><th>30-Jul-2024</th><th>Reference&#xA0;Range</th><th>Unit</th></tr><tr><td>Glucose [Mass/volume] in Serum or Plasma</td><td>65.9</td><td>70 - 99</td><td>L</td><td>mg/dL</td></tr></table></div>"
        },
        "status": "final",
        "subject": {
          "reference": "urn:uuid:a3e9475a-b039-45f6-a774-02cb0c4a75b5",
          "display": "Meaghan Neary"
        },
        "effectiveDateTime": "2024-07-29T22:11:04Z",
        "specimen": {
          "reference": "urn:uuid:13d5b3d2-f0fb-46ab-96ab-53b7a050ed0b"
        }
      }
    },
    {
      "fullUrl": "urn:uuid:a9175a1b-a440-43d0-bc1a-57bcf4d2a254",
      "resource": {
        "resourceType": "Observation",
        "id": "a9175a1b-a440-43d0-bc1a-57bcf4d2a254",
        "meta": {
          "profile": [
            "http://hl7.eu/fhir/laboratory/StructureDefinition/Observation-resultslab-eu-lab"
          ]
        },
        "performer": [
          {
            "display": "The Central European Lab"
          }
        ],
        "category": [
          {
            "coding": [
              {
                "system": "http://terminology.hl7.org/CodeSystem/observation-category",
                "code": "laboratory"
              }
            ]
          }
        ],
        "code": {
          "coding": [
            {
              "code": "3094-0",
              "system": "http://loinc.org",
              "display": "Urea nitrogen [Mass/volume] in Serum or Plasma"
            }
          ],
          "text": "Urea nitrogen [Mass/volume] in Serum or Plasma"
        },
        "valueQuantity": {
          "system": "http://unitsofmeasure.org",
          "value": 16.4,
          "unit": "mg/dL",
          "code": "mg/dL"
        },
        "referenceRange": [
          {
            "low": {
              "value": 7,
              "code": "mg/dL",
              "system": "http://unitsofmeasure.org"
            }
          },
          {
            "high": {
              "value": 50,
              "code": "mg/dL",
              "system": "http://unitsofmeasure.org"
            }
          }
        ],
        "text": {
          "status": "generated",
          "div": "<div xmlns=\"http://www.w3.org/1999/xhtml\"><table class=\"hl7__eu__lab__report\"><tr><th>Test</th><th>30-Jul-2024</th><th>Reference&#xA0;Range</th><th>Unit</th></tr><tr><td>Urea nitrogen [Mass/volume] in Serum or Plasma</td><td>16.4</td><td>7 - 50</td><td></td><td>mg/dL</td></tr></table></div>"
        },
        "status": "final",
        "subject": {
          "reference": "urn:uuid:a3e9475a-b039-45f6-a774-02cb0c4a75b5",
          "display": "Meaghan Neary"
        },
        "effectiveDateTime": "2024-07-29T22:11:04Z",
        "specimen": {
          "reference": "urn:uuid:13d5b3d2-f0fb-46ab-96ab-53b7a050ed0b"
        }
      }
    },
    {
      "fullUrl": "urn:uuid:e788e7c8-987c-4475-a957-9669aa299182",
      "resource": {
        "resourceType": "Observation",
        "id": "e788e7c8-987c-4475-a957-9669aa299182",
        "meta": {
          "profile": [
            "http://hl7.eu/fhir/laboratory/StructureDefinition/Observation-resultslab-eu-lab"
          ]
        },
        "performer": [
          {
            "display": "The Central European Lab"
          }
        ],
        "category": [
          {
            "coding": [
              {
                "system": "http://terminology.hl7.org/CodeSystem/observation-category",
                "code": "laboratory"
              }
            ]
          }
        ],
        "code": {
          "coding": [
            {
              "code": "2160-0",
              "system": "http://loinc.org",
              "display": "Creatinine [Mass/volume] in Serum or Plasma"
            }
          ],
          "text": "Creatinine [Mass/volume] in Serum or Plasma"
        },
        "valueQuantity": {
          "system": "http://unitsofmeasure.org",
          "value": 2,
          "unit": "mg/dL",
          "code": "mg/dL"
        },
        "referenceRange": [
          {
            "low": {
              "value": 0.6,
              "code": "mg/dL",
              "system": "http://unitsofmeasure.org"
            }
          },
          {
            "high": {
              "value": 1.1,
              "code": "mg/dL",
              "system": "http://unitsofmeasure.org"
            }
          }
        ],
        "interpretation": [
          {
            "coding": [
              {
                "code": "H",
                "system": "http://terminology.hl7.org/CodeSystem/v3-ObservationInterpretation",
                "display": "High"
              }
            ]
          }
        ],
        "text": {
          "status": "generated",
          "div": "<div xmlns=\"http://www.w3.org/1999/xhtml\"><table class=\"hl7__eu__lab__report\"><tr><th>Test</th><th>30-Jul-2024</th><th>Reference&#xA0;Range</th><th>Unit</th></tr><tr><td>Creatinine [Mass/volume] in Serum or Plasma</td><td>2.0</td><td>0.6 - 1.1</td><td>H</td><td>mg/dL</td></tr></table></div>"
        },
        "status": "final",
        "subject": {
          "reference": "urn:uuid:a3e9475a-b039-45f6-a774-02cb0c4a75b5",
          "display": "Meaghan Neary"
        },
        "effectiveDateTime": "2024-07-29T22:11:04Z",
        "specimen": {
          "reference": "urn:uuid:13d5b3d2-f0fb-46ab-96ab-53b7a050ed0b"
        }
      }
    },
    {
      "fullUrl": "urn:uuid:7204b5f6-c705-49c3-a633-1cc6c92bd596",
      "resource": {
        "resourceType": "Observation",
        "id": "7204b5f6-c705-49c3-a633-1cc6c92bd596",
        "meta": {
          "profile": [
            "http://hl7.eu/fhir/laboratory/StructureDefinition/Observation-resultslab-eu-lab"
          ]
        },
        "performer": [
          {
            "display": "The Central European Lab"
          }
        ],
        "category": [
          {
            "coding": [
              {
                "system": "http://terminology.hl7.org/CodeSystem/observation-category",
                "code": "laboratory"
              }
            ]
          }
        ],
        "code": {
          "coding": [
            {
              "code": "17861-6",
              "system": "http://loinc.org",
              "display": "Calcium [Mass/volume] in Serum or Plasma"
            }
          ],
          "text": "Calcium [Mass/volume] in Serum or Plasma"
        },
        "valueQuantity": {
          "system": "http://unitsofmeasure.org",
          "value": 9,
          "unit": "mg/dL",
          "code": "mg/dL"
        },
        "referenceRange": [
          {
            "low": {
              "value": 8.6,
              "code": "mg/dL",
              "system": "http://unitsofmeasure.org"
            }
          },
          {
            "high": {
              "value": 10.4,
              "code": "mg/dL",
              "system": "http://unitsofmeasure.org"
            }
          }
        ],
        "text": {
          "status": "generated",
          "div": "<div xmlns=\"http://www.w3.org/1999/xhtml\"><table class=\"hl7__eu__lab__report\"><tr><th>Test</th><th>30-Jul-2024</th><th>Reference&#xA0;Range</th><th>Unit</th></tr><tr><td>Calcium [Mass/volume] in Serum or Plasma</td><td>9.0</td><td>8.6 - 10.4</td><td></td><td>mg/dL</td></tr></table></div>"
        },
        "status": "final",
        "subject": {
          "reference": "urn:uuid:a3e9475a-b039-45f6-a774-02cb0c4a75b5",
          "display": "Meaghan Neary"
        },
        "effectiveDateTime": "2024-07-29T22:11:04Z",
        "specimen": {
          "reference": "urn:uuid:13d5b3d2-f0fb-46ab-96ab-53b7a050ed0b"
        }
      }
    },
    {
      "fullUrl": "urn:uuid:a0ce081e-4b60-4758-a1d2-835fe94b635f",
      "resource": {
        "resourceType": "Observation",
        "id": "a0ce081e-4b60-4758-a1d2-835fe94b635f",
        "meta": {
          "profile": [
            "http://hl7.eu/fhir/laboratory/StructureDefinition/Observation-resultslab-eu-lab"
          ]
        },
        "performer": [
          {
            "display": "The Central European Lab"
          }
        ],
        "category": [
          {
            "coding": [
              {
                "system": "http://terminology.hl7.org/CodeSystem/observation-category",
                "code": "laboratory"
              }
            ]
          }
        ],
        "code": {
          "coding": [
            {
              "code": "2951-2",
              "system": "http://loinc.org",
              "display": "Sodium [Moles/volume] in Serum or Plasma"
            }
          ],
          "text": "Sodium [Moles/volume] in Serum or Plasma"
        },
        "valueQuantity": {
          "system": "http://unitsofmeasure.org",
          "value": 140.3,
          "unit": "mmol/L",
          "code": "mmol/L"
        },
        "referenceRange": [
          {
            "low": {
              "value": 135,
              "code": "mmol/L",
              "system": "http://unitsofmeasure.org"
            }
          },
          {
            "high": {
              "value": 145,
              "code": "mmol/L",
              "system": "http://unitsofmeasure.org"
            }
          }
        ],
        "text": {
          "status": "generated",
          "div": "<div xmlns=\"http://www.w3.org/1999/xhtml\"><table class=\"hl7__eu__lab__report\"><tr><th>Test</th><th>30-Jul-2024</th><th>Reference&#xA0;Range</th><th>Unit</th></tr><tr><td>Sodium [Moles/volume] in Serum or Plasma</td><td>140.3</td><td>135 - 145</td><td></td><td>mmol/L</td></tr></table></div>"
        },
        "status": "final",
        "subject": {
          "reference": "urn:uuid:a3e9475a-b039-45f6-a774-02cb0c4a75b5",
          "display": "Meaghan Neary"
        },
        "effectiveDateTime": "2024-07-29T22:11:04Z",
        "specimen": {
          "reference": "urn:uuid:13d5b3d2-f0fb-46ab-96ab-53b7a050ed0b"
        }
      }
    },
    {
      "fullUrl": "urn:uuid:d48cd9e5-6723-45d5-9344-e6fff1babc08",
      "resource": {
        "resourceType": "Observation",
        "id": "d48cd9e5-6723-45d5-9344-e6fff1babc08",
        "meta": {
          "profile": [
            "http://hl7.eu/fhir/laboratory/StructureDefinition/Observation-resultslab-eu-lab"
          ]
        },
        "performer": [
          {
            "display": "The Central European Lab"
          }
        ],
        "category": [
          {
            "coding": [
              {
                "system": "http://terminology.hl7.org/CodeSystem/observation-category",
                "code": "laboratory"
              }
            ]
          }
        ],
        "code": {
          "coding": [
            {
              "code": "2823-3",
              "system": "http://loinc.org",
              "display": "Potassium [Moles/volume] in Serum or Plasma"
            }
          ],
          "text": "Potassium [Moles/volume] in Serum or Plasma"
        },
        "valueQuantity": {
          "system": "http://unitsofmeasure.org",
          "value": 5.1,
          "unit": "mmol/L",
          "code": "mmol/L"
        },
        "referenceRange": [
          {
            "low": {
              "value": 3.5,
              "code": "mmol/L",
              "system": "http://unitsofmeasure.org"
            }
          },
          {
            "high": {
              "value": 5.1,
              "code": "mmol/L",
              "system": "http://unitsofmeasure.org"
            }
          }
        ],
        "text": {
          "status": "generated",
          "div": "<div xmlns=\"http://www.w3.org/1999/xhtml\"><table class=\"hl7__eu__lab__report\"><tr><th>Test</th><th>30-Jul-2024</th><th>Reference&#xA0;Range</th><th>Unit</th></tr><tr><td>Potassium [Moles/volume] in Serum or Plasma</td><td>5.1</td><td>3.5 - 5.1</td><td></td><td>mmol/L</td></tr></table></div>"
        },
        "status": "final",
        "subject": {
          "reference": "urn:uuid:a3e9475a-b039-45f6-a774-02cb0c4a75b5",
          "display": "Meaghan Neary"
        },
        "effectiveDateTime": "2024-07-29T22:11:04Z",
        "specimen": {
          "reference": "urn:uuid:13d5b3d2-f0fb-46ab-96ab-53b7a050ed0b"
        }
      }
    },
    {
      "fullUrl": "urn:uuid:3cce6c75-0d1a-4c39-9976-f16b442fa4e8",
      "resource": {
        "resourceType": "Observation",
        "id": "3cce6c75-0d1a-4c39-9976-f16b442fa4e8",
        "meta": {
          "profile": [
            "http://hl7.eu/fhir/laboratory/StructureDefinition/Observation-resultslab-eu-lab"
          ]
        },
        "performer": [
          {
            "display": "The Central European Lab"
          }
        ],
        "category": [
          {
            "coding": [
              {
                "system": "http://terminology.hl7.org/CodeSystem/observation-category",
                "code": "laboratory"
              }
            ]
          }
        ],
        "code": {
          "coding": [
            {
              "code": "2075-0",
              "system": "http://loinc.org",
              "display": "Chloride [Moles/volume] in Serum or Plasma"
            }
          ],
          "text": "Chloride [Moles/volume] in Serum or Plasma"
        },
        "valueQuantity": {
          "system": "http://unitsofmeasure.org",
          "value": 106.8,
          "unit": "mmol/L",
          "code": "mmol/L"
        },
        "referenceRange": [
          {
            "low": {
              "value": 98,
              "code": "mmol/L",
              "system": "http://unitsofmeasure.org"
            }
          },
          {
            "high": {
              "value": 108,
              "code": "mmol/L",
              "system": "http://unitsofmeasure.org"
            }
          }
        ],
        "text": {
          "status": "generated",
          "div": "<div xmlns=\"http://www.w3.org/1999/xhtml\"><table class=\"hl7__eu__lab__report\"><tr><th>Test</th><th>30-Jul-2024</th><th>Reference&#xA0;Range</th><th>Unit</th></tr><tr><td>Chloride [Moles/volume] in Serum or Plasma</td><td>106.8</td><td>98 - 108</td><td></td><td>mmol/L</td></tr></table></div>"
        },
        "status": "final",
        "subject": {
          "reference": "urn:uuid:a3e9475a-b039-45f6-a774-02cb0c4a75b5",
          "display": "Meaghan Neary"
        },
        "effectiveDateTime": "2024-07-29T22:11:04Z",
        "specimen": {
          "reference": "urn:uuid:13d5b3d2-f0fb-46ab-96ab-53b7a050ed0b"
        }
      }
    },
    {
      "fullUrl": "urn:uuid:d5449120-7b66-4a4d-a57b-633119dd58f4",
      "resource": {
        "resourceType": "Observation",
        "id": "d5449120-7b66-4a4d-a57b-633119dd58f4",
        "meta": {
          "profile": [
            "http://hl7.eu/fhir/laboratory/StructureDefinition/Observation-resultslab-eu-lab"
          ]
        },
        "performer": [
          {
            "display": "The Central European Lab"
          }
        ],
        "category": [
          {
            "coding": [
              {
                "system": "http://terminology.hl7.org/CodeSystem/observation-category",
                "code": "laboratory"
              }
            ]
          }
        ],
        "code": {
          "coding": [
            {
              "code": "2028-9",
              "system": "http://loinc.org",
              "display": "Carbon dioxide, total [Moles/volume] in Serum or Plasma"
            }
          ],
          "text": "Carbon dioxide, total [Moles/volume] in Serum or Plasma"
        },
        "valueQuantity": {
          "system": "http://unitsofmeasure.org",
          "value": 22.9,
          "unit": "mmol/L",
          "code": "mmol/L"
        },
        "referenceRange": [
          {
            "low": {
              "value": 22,
              "code": "mmol/L",
              "system": "http://unitsofmeasure.org"
            }
          },
          {
            "high": {
              "value": 32,
              "code": "mmol/L",
              "system": "http://unitsofmeasure.org"
            }
          }
        ],
        "text": {
          "status": "generated",
          "div": "<div xmlns=\"http://www.w3.org/1999/xhtml\"><table class=\"hl7__eu__lab__report\"><tr><th>Test</th><th>30-Jul-2024</th><th>Reference&#xA0;Range</th><th>Unit</th></tr><tr><td>Carbon dioxide, total [Moles/volume] in Serum or Plasma</td><td>22.9</td><td>22 - 32</td><td></td><td>mmol/L</td></tr></table></div>"
        },
        "status": "final",
        "subject": {
          "reference": "urn:uuid:a3e9475a-b039-45f6-a774-02cb0c4a75b5",
          "display": "Meaghan Neary"
        },
        "effectiveDateTime": "2024-07-29T22:11:04Z",
        "specimen": {
          "reference": "urn:uuid:13d5b3d2-f0fb-46ab-96ab-53b7a050ed0b"
        }
      }
    },
    {
      "fullUrl": "urn:uuid:779f67f9-bb5c-4c3f-84c9-88e4d25e5702",
      "resource": {
        "resourceType": "Observation",
        "id": "779f67f9-bb5c-4c3f-84c9-88e4d25e5702",
        "meta": {
          "profile": [
            "http://hl7.eu/fhir/laboratory/StructureDefinition/Observation-resultslab-eu-lab"
          ]
        },
        "performer": [
          {
            "display": "The Central European Lab"
          }
        ],
        "category": [
          {
            "coding": [
              {
                "system": "http://terminology.hl7.org/CodeSystem/observation-category",
                "code": "laboratory"
              }
            ]
          }
        ],
        "code": {
          "coding": [
            {
              "code": "5767-9",
              "system": "http://loinc.org",
              "display": "Appearance of Urine"
            }
          ],
          "text": "Appearance of Urine"
        },
        "text": {
          "status": "generated",
          "div": "<div xmlns=\"http://www.w3.org/1999/xhtml\"><table class=\"hl7__eu__lab__report\"><tr><th>Test</th><th>30-Jul-2024</th><th>Reference&#xA0;Range</th><th>Unit</th></tr><tr><td>Appearance of Urine</td></tr></table></div>"
        },
        "status": "final",
        "subject": {
          "reference": "urn:uuid:a3e9475a-b039-45f6-a774-02cb0c4a75b5",
          "display": "Meaghan Neary"
        },
        "effectiveDateTime": "2024-07-29T22:11:04Z",
        "specimen": {
          "reference": "urn:uuid:ce84fcfd-fe2b-4c16-a1d4-3904314af2f1"
        }
      }
    },
    {
      "fullUrl": "urn:uuid:c9a753ce-6339-4aed-9ee0-7ea797b1e1b4",
      "resource": {
        "resourceType": "Observation",
        "id": "c9a753ce-6339-4aed-9ee0-7ea797b1e1b4",
        "meta": {
          "profile": [
            "http://hl7.eu/fhir/laboratory/StructureDefinition/Observation-resultslab-eu-lab"
          ]
        },
        "performer": [
          {
            "display": "The Central European Lab"
          }
        ],
        "category": [
          {
            "coding": [
              {
                "system": "http://terminology.hl7.org/CodeSystem/observation-category",
                "code": "laboratory"
              }
            ]
          }
        ],
        "code": {
          "coding": [
            {
              "code": "34533-0",
              "system": "http://loinc.org",
              "display": "Odor of Urine"
            }
          ],
          "text": "Odor of Urine"
        },
        "text": {
          "status": "generated",
          "div": "<div xmlns=\"http://www.w3.org/1999/xhtml\"><table class=\"hl7__eu__lab__report\"><tr><th>Test</th><th>30-Jul-2024</th><th>Reference&#xA0;Range</th><th>Unit</th></tr><tr><td>Odor of Urine</td></tr></table></div>"
        },
        "status": "final",
        "subject": {
          "reference": "urn:uuid:a3e9475a-b039-45f6-a774-02cb0c4a75b5",
          "display": "Meaghan Neary"
        },
        "effectiveDateTime": "2024-07-29T22:11:04Z",
        "specimen": {
          "reference": "urn:uuid:ce84fcfd-fe2b-4c16-a1d4-3904314af2f1"
        }
      }
    },
    {
      "fullUrl": "urn:uuid:9b31a4e7-390e-4073-94d8-90d0a3166143",
      "resource": {
        "resourceType": "Observation",
        "id": "9b31a4e7-390e-4073-94d8-90d0a3166143",
        "meta": {
          "profile": [
            "http://hl7.eu/fhir/laboratory/StructureDefinition/Observation-resultslab-eu-lab"
          ]
        },
        "performer": [
          {
            "display": "The Central European Lab"
          }
        ],
        "category": [
          {
            "coding": [
              {
                "system": "http://terminology.hl7.org/CodeSystem/observation-category",
                "code": "laboratory"
              }
            ]
          }
        ],
        "code": {
          "coding": [
            {
              "code": "32167-9",
              "system": "http://loinc.org",
              "display": "Clarity of Urine"
            }
          ],
          "text": "Clarity of Urine"
        },
        "text": {
          "status": "generated",
          "div": "<div xmlns=\"http://www.w3.org/1999/xhtml\"><table class=\"hl7__eu__lab__report\"><tr><th>Test</th><th>30-Jul-2024</th><th>Reference&#xA0;Range</th><th>Unit</th></tr><tr><td>Clarity of Urine</td></tr></table></div>"
        },
        "status": "final",
        "subject": {
          "reference": "urn:uuid:a3e9475a-b039-45f6-a774-02cb0c4a75b5",
          "display": "Meaghan Neary"
        },
        "effectiveDateTime": "2024-07-29T22:11:04Z",
        "specimen": {
          "reference": "urn:uuid:ce84fcfd-fe2b-4c16-a1d4-3904314af2f1"
        }
      }
    },
    {
      "fullUrl": "urn:uuid:d313f99e-dc87-4a10-8f75-5ebaf6283c87",
      "resource": {
        "resourceType": "Observation",
        "id": "d313f99e-dc87-4a10-8f75-5ebaf6283c87",
        "meta": {
          "profile": [
            "http://hl7.eu/fhir/laboratory/StructureDefinition/Observation-resultslab-eu-lab"
          ]
        },
        "performer": [
          {
            "display": "The Central European Lab"
          }
        ],
        "category": [
          {
            "coding": [
              {
                "system": "http://terminology.hl7.org/CodeSystem/observation-category",
                "code": "laboratory"
              }
            ]
          }
        ],
        "code": {
          "coding": [
            {
              "code": "5778-6",
              "system": "http://loinc.org",
              "display": "Color of Urine"
            }
          ],
          "text": "Color of Urine"
        },
        "text": {
          "status": "generated",
          "div": "<div xmlns=\"http://www.w3.org/1999/xhtml\"><table class=\"hl7__eu__lab__report\"><tr><th>Test</th><th>30-Jul-2024</th><th>Reference&#xA0;Range</th><th>Unit</th></tr><tr><td>Color of Urine</td></tr></table></div>"
        },
        "status": "final",
        "subject": {
          "reference": "urn:uuid:a3e9475a-b039-45f6-a774-02cb0c4a75b5",
          "display": "Meaghan Neary"
        },
        "effectiveDateTime": "2024-07-29T22:11:04Z",
        "specimen": {
          "reference": "urn:uuid:ce84fcfd-fe2b-4c16-a1d4-3904314af2f1"
        }
      }
    },
    {
      "fullUrl": "urn:uuid:b3327d6b-4104-46da-81a9-afc9f51f0264",
      "resource": {
        "resourceType": "Observation",
        "id": "b3327d6b-4104-46da-81a9-afc9f51f0264",
        "meta": {
          "profile": [
            "http://hl7.eu/fhir/laboratory/StructureDefinition/Observation-resultslab-eu-lab"
          ]
        },
        "performer": [
          {
            "display": "The Central European Lab"
          }
        ],
        "category": [
          {
            "coding": [
              {
                "system": "http://terminology.hl7.org/CodeSystem/observation-category",
                "code": "laboratory"
              }
            ]
          }
        ],
        "code": {
          "coding": [
            {
              "code": "5792-7",
              "system": "http://loinc.org",
              "display": "Glucose [Mass/volume] in Urine by Test strip"
            }
          ],
          "text": "Glucose [Mass/volume] in Urine by Test strip"
        },
        "valueQuantity": {
          "system": "http://unitsofmeasure.org",
          "value": 1.2,
          "unit": "mg/dL",
          "code": "mg/dL"
        },
        "referenceRange": [
          {
            "low": {
              "value": 0.8,
              "code": "mg/dL",
              "system": "http://unitsofmeasure.org"
            }
          },
          {
            "high": {
              "value": 0,
              "code": "mg/dL",
              "system": "http://unitsofmeasure.org"
            }
          }
        ],
        "interpretation": [
          {
            "coding": [
              {
                "code": "H",
                "system": "http://terminology.hl7.org/CodeSystem/v3-ObservationInterpretation",
                "display": "High"
              }
            ]
          }
        ],
        "text": {
          "status": "generated",
          "div": "<div xmlns=\"http://www.w3.org/1999/xhtml\"><table class=\"hl7__eu__lab__report\"><tr><th>Test</th><th>30-Jul-2024</th><th>Reference&#xA0;Range</th><th>Unit</th></tr><tr><td>Glucose [Mass/volume] in Urine by Test strip</td><td>1.2</td><td>0.8 - 0</td><td>H</td><td>mg/dL</td></tr></table></div>"
        },
        "status": "final",
        "subject": {
          "reference": "urn:uuid:a3e9475a-b039-45f6-a774-02cb0c4a75b5",
          "display": "Meaghan Neary"
        },
        "effectiveDateTime": "2024-07-29T22:11:04Z",
        "specimen": {
          "reference": "urn:uuid:ce84fcfd-fe2b-4c16-a1d4-3904314af2f1"
        }
      }
    },
    {
      "fullUrl": "urn:uuid:b80f93d4-1f52-4fb6-a131-c62dabc87bb0",
      "resource": {
        "resourceType": "Observation",
        "id": "b80f93d4-1f52-4fb6-a131-c62dabc87bb0",
        "meta": {
          "profile": [
            "http://hl7.eu/fhir/laboratory/StructureDefinition/Observation-resultslab-eu-lab"
          ]
        },
        "performer": [
          {
            "display": "The Central European Lab"
          }
        ],
        "category": [
          {
            "coding": [
              {
                "system": "http://terminology.hl7.org/CodeSystem/observation-category",
                "code": "laboratory"
              }
            ]
          }
        ],
        "code": {
          "coding": [
            {
              "code": "25428-4",
              "system": "http://loinc.org",
              "display": "Glucose [Presence] in Urine by Test strip"
            }
          ],
          "text": "Glucose [Presence] in Urine by Test strip"
        },
        "text": {
          "status": "generated",
          "div": "<div xmlns=\"http://www.w3.org/1999/xhtml\"><table class=\"hl7__eu__lab__report\"><tr><th>Test</th><th>30-Jul-2024</th><th>Reference&#xA0;Range</th><th>Unit</th></tr><tr><td>Glucose [Presence] in Urine by Test strip</td></tr></table></div>"
        },
        "status": "final",
        "subject": {
          "reference": "urn:uuid:a3e9475a-b039-45f6-a774-02cb0c4a75b5",
          "display": "Meaghan Neary"
        },
        "effectiveDateTime": "2024-07-29T22:11:04Z",
        "specimen": {
          "reference": "urn:uuid:ce84fcfd-fe2b-4c16-a1d4-3904314af2f1"
        }
      }
    },
    {
      "fullUrl": "urn:uuid:1566124e-8cdc-4326-a6e2-4455d4e156b5",
      "resource": {
        "resourceType": "Observation",
        "id": "1566124e-8cdc-4326-a6e2-4455d4e156b5",
        "meta": {
          "profile": [
            "http://hl7.eu/fhir/laboratory/StructureDefinition/Observation-resultslab-eu-lab"
          ]
        },
        "performer": [
          {
            "display": "The Central European Lab"
          }
        ],
        "category": [
          {
            "coding": [
              {
                "system": "http://terminology.hl7.org/CodeSystem/observation-category",
                "code": "laboratory"
              }
            ]
          }
        ],
        "code": {
          "coding": [
            {
              "code": "20505-4",
              "system": "http://loinc.org",
              "display": "Bilirubin.total [Mass/volume] in Urine by Test strip"
            }
          ],
          "text": "Bilirubin.total [Mass/volume] in Urine by Test strip"
        },
        "valueQuantity": {
          "system": "http://unitsofmeasure.org",
          "value": 1.2,
          "unit": "mg/dL",
          "code": "mg/dL"
        },
        "referenceRange": [
          {
            "low": {
              "value": 0,
              "code": "mg/dL",
              "system": "http://unitsofmeasure.org"
            }
          },
          {
            "high": {
              "value": 1,
              "code": "mg/dL",
              "system": "http://unitsofmeasure.org"
            }
          }
        ],
        "interpretation": [
          {
            "coding": [
              {
                "code": "H",
                "system": "http://terminology.hl7.org/CodeSystem/v3-ObservationInterpretation",
                "display": "High"
              }
            ]
          }
        ],
        "text": {
          "status": "generated",
          "div": "<div xmlns=\"http://www.w3.org/1999/xhtml\"><table class=\"hl7__eu__lab__report\"><tr><th>Test</th><th>30-Jul-2024</th><th>Reference&#xA0;Range</th><th>Unit</th></tr><tr><td>Bilirubin.total [Mass/volume] in Urine by Test strip</td><td>1.2</td><td>0 - 1</td><td>H</td><td>mg/dL</td></tr></table></div>"
        },
        "status": "final",
        "subject": {
          "reference": "urn:uuid:a3e9475a-b039-45f6-a774-02cb0c4a75b5",
          "display": "Meaghan Neary"
        },
        "effectiveDateTime": "2024-07-29T22:11:04Z",
        "specimen": {
          "reference": "urn:uuid:ce84fcfd-fe2b-4c16-a1d4-3904314af2f1"
        }
      }
    },
    {
      "fullUrl": "urn:uuid:ea042ef5-484a-4cf8-a0a2-e15e24398a8d",
      "resource": {
        "resourceType": "Observation",
        "id": "ea042ef5-484a-4cf8-a0a2-e15e24398a8d",
        "meta": {
          "profile": [
            "http://hl7.eu/fhir/laboratory/StructureDefinition/Observation-resultslab-eu-lab"
          ]
        },
        "performer": [
          {
            "display": "The Central European Lab"
          }
        ],
        "category": [
          {
            "coding": [
              {
                "system": "http://terminology.hl7.org/CodeSystem/observation-category",
                "code": "laboratory"
              }
            ]
          }
        ],
        "code": {
          "coding": [
            {
              "code": "5770-3",
              "system": "http://loinc.org",
              "display": "Bilirubin.total [Presence] in Urine by Test strip"
            }
          ],
          "text": "Bilirubin.total [Presence] in Urine by Test strip"
        },
        "text": {
          "status": "generated",
          "div": "<div xmlns=\"http://www.w3.org/1999/xhtml\"><table class=\"hl7__eu__lab__report\"><tr><th>Test</th><th>30-Jul-2024</th><th>Reference&#xA0;Range</th><th>Unit</th></tr><tr><td>Bilirubin.total [Presence] in Urine by Test strip</td></tr></table></div>"
        },
        "status": "final",
        "subject": {
          "reference": "urn:uuid:a3e9475a-b039-45f6-a774-02cb0c4a75b5",
          "display": "Meaghan Neary"
        },
        "effectiveDateTime": "2024-07-29T22:11:04Z",
        "specimen": {
          "reference": "urn:uuid:ce84fcfd-fe2b-4c16-a1d4-3904314af2f1"
        }
      }
    },
    {
      "fullUrl": "urn:uuid:94aef8d0-6769-4a83-86ba-0b1bcf01ab90",
      "resource": {
        "resourceType": "Observation",
        "id": "94aef8d0-6769-4a83-86ba-0b1bcf01ab90",
        "meta": {
          "profile": [
            "http://hl7.eu/fhir/laboratory/StructureDefinition/Observation-resultslab-eu-lab"
          ]
        },
        "performer": [
          {
            "display": "The Central European Lab"
          }
        ],
        "category": [
          {
            "coding": [
              {
                "system": "http://terminology.hl7.org/CodeSystem/observation-category",
                "code": "laboratory"
              }
            ]
          }
        ],
        "code": {
          "coding": [
            {
              "code": "5797-6",
              "system": "http://loinc.org",
              "display": "Ketones [Mass/volume] in Urine by Test strip"
            }
          ],
          "text": "Ketones [Mass/volume] in Urine by Test strip"
        },
        "valueQuantity": {
          "system": "http://unitsofmeasure.org",
          "value": 4.3,
          "unit": "mg/dL",
          "code": "mg/dL"
        },
        "referenceRange": [
          {
            "low": {
              "value": 0,
              "code": "mg/dL",
              "system": "http://unitsofmeasure.org"
            }
          },
          {
            "high": {
              "value": 4,
              "code": "mg/dL",
              "system": "http://unitsofmeasure.org"
            }
          }
        ],
        "interpretation": [
          {
            "coding": [
              {
                "code": "H",
                "system": "http://terminology.hl7.org/CodeSystem/v3-ObservationInterpretation",
                "display": "High"
              }
            ]
          }
        ],
        "text": {
          "status": "generated",
          "div": "<div xmlns=\"http://www.w3.org/1999/xhtml\"><table class=\"hl7__eu__lab__report\"><tr><th>Test</th><th>30-Jul-2024</th><th>Reference&#xA0;Range</th><th>Unit</th></tr><tr><td>Ketones [Mass/volume] in Urine by Test strip</td><td>4.3</td><td>0 - 4</td><td>H</td><td>mg/dL</td></tr></table></div>"
        },
        "status": "final",
        "subject": {
          "reference": "urn:uuid:a3e9475a-b039-45f6-a774-02cb0c4a75b5",
          "display": "Meaghan Neary"
        },
        "effectiveDateTime": "2024-07-29T22:11:04Z",
        "specimen": {
          "reference": "urn:uuid:ce84fcfd-fe2b-4c16-a1d4-3904314af2f1"
        }
      }
    },
    {
      "fullUrl": "urn:uuid:7e5a6506-1227-43c5-999f-cccb69b3806e",
      "resource": {
        "resourceType": "Observation",
        "id": "7e5a6506-1227-43c5-999f-cccb69b3806e",
        "meta": {
          "profile": [
            "http://hl7.eu/fhir/laboratory/StructureDefinition/Observation-resultslab-eu-lab"
          ]
        },
        "performer": [
          {
            "display": "The Central European Lab"
          }
        ],
        "category": [
          {
            "coding": [
              {
                "system": "http://terminology.hl7.org/CodeSystem/observation-category",
                "code": "laboratory"
              }
            ]
          }
        ],
        "code": {
          "coding": [
            {
              "code": "2514-8",
              "system": "http://loinc.org",
              "display": "Ketones [Presence] in Urine by Test strip"
            }
          ],
          "text": "Ketones [Presence] in Urine by Test strip"
        },
        "text": {
          "status": "generated",
          "div": "<div xmlns=\"http://www.w3.org/1999/xhtml\"><table class=\"hl7__eu__lab__report\"><tr><th>Test</th><th>30-Jul-2024</th><th>Reference&#xA0;Range</th><th>Unit</th></tr><tr><td>Ketones [Presence] in Urine by Test strip</td></tr></table></div>"
        },
        "status": "final",
        "subject": {
          "reference": "urn:uuid:a3e9475a-b039-45f6-a774-02cb0c4a75b5",
          "display": "Meaghan Neary"
        },
        "effectiveDateTime": "2024-07-29T22:11:04Z",
        "specimen": {
          "reference": "urn:uuid:ce84fcfd-fe2b-4c16-a1d4-3904314af2f1"
        }
      }
    },
    {
      "fullUrl": "urn:uuid:be8d1f11-5731-4884-a38a-557393049675",
      "resource": {
        "resourceType": "Observation",
        "id": "be8d1f11-5731-4884-a38a-557393049675",
        "meta": {
          "profile": [
            "http://hl7.eu/fhir/laboratory/StructureDefinition/Observation-resultslab-eu-lab"
          ]
        },
        "performer": [
          {
            "display": "The Central European Lab"
          }
        ],
        "category": [
          {
            "coding": [
              {
                "system": "http://terminology.hl7.org/CodeSystem/observation-category",
                "code": "laboratory"
              }
            ]
          }
        ],
        "code": {
          "coding": [
            {
              "code": "5811-5",
              "system": "http://loinc.org",
              "display": "Specific gravity of Urine by Test strip"
            }
          ],
          "text": "Specific gravity of Urine by Test strip"
        },
        "valueQuantity": {
          "system": "http://unitsofmeasure.org",
          "value": 1,
          "unit": "{nominal}",
          "code": "{nominal}"
        },
        "referenceRange": [
          {
            "low": {
              "value": 1.005,
              "code": "g/mL",
              "system": "http://unitsofmeasure.org"
            }
          },
          {
            "high": {
              "value": 1.03,
              "code": "g/mL",
              "system": "http://unitsofmeasure.org"
            }
          }
        ],
        "interpretation": [
          {
            "coding": [
              {
                "code": "L",
                "system": "http://terminology.hl7.org/CodeSystem/v3-ObservationInterpretation",
                "display": "Low"
              }
            ]
          }
        ],
        "text": {
          "status": "generated",
          "div": "<div xmlns=\"http://www.w3.org/1999/xhtml\"><table class=\"hl7__eu__lab__report\"><tr><th>Test</th><th>30-Jul-2024</th><th>Reference&#xA0;Range</th><th>Unit</th></tr><tr><td>Specific gravity of Urine by Test strip</td><td>1.0</td><td>1.005 - 1.03</td><td>L</td><td>{nominal}</td></tr></table></div>"
        },
        "status": "final",
        "subject": {
          "reference": "urn:uuid:a3e9475a-b039-45f6-a774-02cb0c4a75b5",
          "display": "Meaghan Neary"
        },
        "effectiveDateTime": "2024-07-29T22:11:04Z",
        "specimen": {
          "reference": "urn:uuid:ce84fcfd-fe2b-4c16-a1d4-3904314af2f1"
        }
      }
    },
    {
      "fullUrl": "urn:uuid:6a54d9dc-6a73-410d-b005-7039844b248f",
      "resource": {
        "resourceType": "Observation",
        "id": "6a54d9dc-6a73-410d-b005-7039844b248f",
        "meta": {
          "profile": [
            "http://hl7.eu/fhir/laboratory/StructureDefinition/Observation-resultslab-eu-lab"
          ]
        },
        "performer": [
          {
            "display": "The Central European Lab"
          }
        ],
        "category": [
          {
            "coding": [
              {
                "system": "http://terminology.hl7.org/CodeSystem/observation-category",
                "code": "laboratory"
              }
            ]
          }
        ],
        "code": {
          "coding": [
            {
              "code": "5803-2",
              "system": "http://loinc.org",
              "display": "pH of Urine by Test strip"
            }
          ],
          "text": "pH of Urine by Test strip"
        },
        "valueQuantity": {
          "system": "http://unitsofmeasure.org",
          "value": 6.3,
          "unit": "pH",
          "code": "pH"
        },
        "referenceRange": [
          {
            "low": {
              "value": 4.6,
              "code": "pH",
              "system": "http://unitsofmeasure.org"
            }
          },
          {
            "high": {
              "value": 7,
              "code": "pH",
              "system": "http://unitsofmeasure.org"
            }
          }
        ],
        "text": {
          "status": "generated",
          "div": "<div xmlns=\"http://www.w3.org/1999/xhtml\"><table class=\"hl7__eu__lab__report\"><tr><th>Test</th><th>30-Jul-2024</th><th>Reference&#xA0;Range</th><th>Unit</th></tr><tr><td>pH of Urine by Test strip</td><td>6.3</td><td>4.6 - 7</td><td></td><td>pH</td></tr></table></div>"
        },
        "status": "final",
        "subject": {
          "reference": "urn:uuid:a3e9475a-b039-45f6-a774-02cb0c4a75b5",
          "display": "Meaghan Neary"
        },
        "effectiveDateTime": "2024-07-29T22:11:04Z",
        "specimen": {
          "reference": "urn:uuid:ce84fcfd-fe2b-4c16-a1d4-3904314af2f1"
        }
      }
    },
    {
      "fullUrl": "urn:uuid:cc3380a1-a511-4988-8bbe-cf291e80e51c",
      "resource": {
        "resourceType": "Observation",
        "id": "cc3380a1-a511-4988-8bbe-cf291e80e51c",
        "meta": {
          "profile": [
            "http://hl7.eu/fhir/laboratory/StructureDefinition/Observation-resultslab-eu-lab"
          ]
        },
        "performer": [
          {
            "display": "The Central European Lab"
          }
        ],
        "category": [
          {
            "coding": [
              {
                "system": "http://terminology.hl7.org/CodeSystem/observation-category",
                "code": "laboratory"
              }
            ]
          }
        ],
        "code": {
          "coding": [
            {
              "code": "5804-0",
              "system": "http://loinc.org",
              "display": "Protein [Mass/volume] in Urine by Test strip"
            }
          ],
          "text": "Protein [Mass/volume] in Urine by Test strip"
        },
        "valueQuantity": {
          "system": "http://unitsofmeasure.org",
          "value": 241,
          "unit": "mg/dL",
          "code": "mg/dL"
        },
        "referenceRange": [
          {
            "low": {
              "value": 0,
              "code": "mg/dL",
              "system": "http://unitsofmeasure.org"
            }
          },
          {
            "high": {
              "value": 14,
              "code": "mg/dL",
              "system": "http://unitsofmeasure.org"
            }
          }
        ],
        "interpretation": [
          {
            "coding": [
              {
                "code": "H",
                "system": "http://terminology.hl7.org/CodeSystem/v3-ObservationInterpretation",
                "display": "High"
              }
            ]
          }
        ],
        "text": {
          "status": "generated",
          "div": "<div xmlns=\"http://www.w3.org/1999/xhtml\"><table class=\"hl7__eu__lab__report\"><tr><th>Test</th><th>30-Jul-2024</th><th>Reference&#xA0;Range</th><th>Unit</th></tr><tr><td>Protein [Mass/volume] in Urine by Test strip</td><td>241.0</td><td>0 - 14</td><td>H</td><td>mg/dL</td></tr></table></div>"
        },
        "status": "final",
        "subject": {
          "reference": "urn:uuid:a3e9475a-b039-45f6-a774-02cb0c4a75b5",
          "display": "Meaghan Neary"
        },
        "effectiveDateTime": "2024-07-29T22:11:04Z",
        "specimen": {
          "reference": "urn:uuid:ce84fcfd-fe2b-4c16-a1d4-3904314af2f1"
        }
      }
    },
    {
      "fullUrl": "urn:uuid:2d90d1e5-ac75-4a61-bc3b-22fa3488cf3b",
      "resource": {
        "resourceType": "Observation",
        "id": "2d90d1e5-ac75-4a61-bc3b-22fa3488cf3b",
        "meta": {
          "profile": [
            "http://hl7.eu/fhir/laboratory/StructureDefinition/Observation-resultslab-eu-lab"
          ]
        },
        "performer": [
          {
            "display": "The Central European Lab"
          }
        ],
        "category": [
          {
            "coding": [
              {
                "system": "http://terminology.hl7.org/CodeSystem/observation-category",
                "code": "laboratory"
              }
            ]
          }
        ],
        "code": {
          "coding": [
            {
              "code": "20454-5",
              "system": "http://loinc.org",
              "display": "Protein [Presence] in Urine by Test strip"
            }
          ],
          "text": "Protein [Presence] in Urine by Test strip"
        },
        "text": {
          "status": "generated",
          "div": "<div xmlns=\"http://www.w3.org/1999/xhtml\"><table class=\"hl7__eu__lab__report\"><tr><th>Test</th><th>30-Jul-2024</th><th>Reference&#xA0;Range</th><th>Unit</th></tr><tr><td>Protein [Presence] in Urine by Test strip</td></tr></table></div>"
        },
        "status": "final",
        "subject": {
          "reference": "urn:uuid:a3e9475a-b039-45f6-a774-02cb0c4a75b5",
          "display": "Meaghan Neary"
        },
        "effectiveDateTime": "2024-07-29T22:11:04Z",
        "specimen": {
          "reference": "urn:uuid:ce84fcfd-fe2b-4c16-a1d4-3904314af2f1"
        }
      }
    },
    {
      "fullUrl": "urn:uuid:aaf03e1d-640c-44f7-922f-c9bde1e30b28",
      "resource": {
        "resourceType": "Observation",
        "id": "aaf03e1d-640c-44f7-922f-c9bde1e30b28",
        "meta": {
          "profile": [
            "http://hl7.eu/fhir/laboratory/StructureDefinition/Observation-resultslab-eu-lab"
          ]
        },
        "performer": [
          {
            "display": "The Central European Lab"
          }
        ],
        "category": [
          {
            "coding": [
              {
                "system": "http://terminology.hl7.org/CodeSystem/observation-category",
                "code": "laboratory"
              }
            ]
          }
        ],
        "code": {
          "coding": [
            {
              "code": "5802-4",
              "system": "http://loinc.org",
              "display": "Nitrite [Presence] in Urine by Test strip"
            }
          ],
          "text": "Nitrite [Presence] in Urine by Test strip"
        },
        "text": {
          "status": "generated",
          "div": "<div xmlns=\"http://www.w3.org/1999/xhtml\"><table class=\"hl7__eu__lab__report\"><tr><th>Test</th><th>30-Jul-2024</th><th>Reference&#xA0;Range</th><th>Unit</th></tr><tr><td>Nitrite [Presence] in Urine by Test strip</td></tr></table></div>"
        },
        "status": "final",
        "subject": {
          "reference": "urn:uuid:a3e9475a-b039-45f6-a774-02cb0c4a75b5",
          "display": "Meaghan Neary"
        },
        "effectiveDateTime": "2024-07-29T22:11:04Z",
        "specimen": {
          "reference": "urn:uuid:ce84fcfd-fe2b-4c16-a1d4-3904314af2f1"
        }
      }
    },
    {
      "fullUrl": "urn:uuid:22292a1c-bc76-476e-9f3d-30764c23dbdd",
      "resource": {
        "resourceType": "Observation",
        "id": "22292a1c-bc76-476e-9f3d-30764c23dbdd",
        "meta": {
          "profile": [
            "http://hl7.eu/fhir/laboratory/StructureDefinition/Observation-resultslab-eu-lab"
          ]
        },
        "performer": [
          {
            "display": "The Central European Lab"
          }
        ],
        "category": [
          {
            "coding": [
              {
                "system": "http://terminology.hl7.org/CodeSystem/observation-category",
                "code": "laboratory"
              }
            ]
          }
        ],
        "code": {
          "coding": [
            {
              "code": "5794-3",
              "system": "http://loinc.org",
              "display": "Hemoglobin [Presence] in Urine by Test strip"
            }
          ],
          "text": "Hemoglobin [Presence] in Urine by Test strip"
        },
        "text": {
          "status": "generated",
          "div": "<div xmlns=\"http://www.w3.org/1999/xhtml\"><table class=\"hl7__eu__lab__report\"><tr><th>Test</th><th>30-Jul-2024</th><th>Reference&#xA0;Range</th><th>Unit</th></tr><tr><td>Hemoglobin [Presence] in Urine by Test strip</td></tr></table></div>"
        },
        "status": "final",
        "subject": {
          "reference": "urn:uuid:a3e9475a-b039-45f6-a774-02cb0c4a75b5",
          "display": "Meaghan Neary"
        },
        "effectiveDateTime": "2024-07-29T22:11:04Z",
        "specimen": {
          "reference": "urn:uuid:ce84fcfd-fe2b-4c16-a1d4-3904314af2f1"
        }
      }
    },
    {
      "fullUrl": "urn:uuid:e4ab3fca-1ab5-4940-a26d-4788b154650a",
      "resource": {
        "resourceType": "Observation",
        "id": "e4ab3fca-1ab5-4940-a26d-4788b154650a",
        "meta": {
          "profile": [
            "http://hl7.eu/fhir/laboratory/StructureDefinition/Observation-resultslab-eu-lab"
          ]
        },
        "performer": [
          {
            "display": "The Central European Lab"
          }
        ],
        "category": [
          {
            "coding": [
              {
                "system": "http://terminology.hl7.org/CodeSystem/observation-category",
                "code": "laboratory"
              }
            ]
          }
        ],
        "code": {
          "coding": [
            {
              "code": "5799-2",
              "system": "http://loinc.org",
              "display": "Leukocyte esterase [Presence] in Urine by Test strip"
            }
          ],
          "text": "Leukocyte esterase [Presence] in Urine by Test strip"
        },
        "text": {
          "status": "generated",
          "div": "<div xmlns=\"http://www.w3.org/1999/xhtml\"><table class=\"hl7__eu__lab__report\"><tr><th>Test</th><th>30-Jul-2024</th><th>Reference&#xA0;Range</th><th>Unit</th></tr><tr><td>Leukocyte esterase [Presence] in Urine by Test strip</td></tr></table></div>"
        },
        "status": "final",
        "subject": {
          "reference": "urn:uuid:a3e9475a-b039-45f6-a774-02cb0c4a75b5",
          "display": "Meaghan Neary"
        },
        "effectiveDateTime": "2024-07-29T22:11:04Z",
        "specimen": {
          "reference": "urn:uuid:ce84fcfd-fe2b-4c16-a1d4-3904314af2f1"
        }
      }
    },
    {
      "fullUrl": "urn:uuid:23e273f9-89ff-4a9c-948a-64d084cc4bc1",
      "resource": {
        "resourceType": "Observation",
        "id": "23e273f9-89ff-4a9c-948a-64d084cc4bc1",
        "meta": {
          "profile": [
            "http://hl7.eu/fhir/laboratory/StructureDefinition/Observation-resultslab-eu-lab"
          ]
        },
        "performer": [
          {
            "display": "The Central European Lab"
          }
        ],
        "category": [
          {
            "coding": [
              {
                "system": "http://terminology.hl7.org/CodeSystem/observation-category",
                "code": "laboratory"
              }
            ]
          }
        ],
        "code": {
          "coding": [
            {
              "code": "4548-4",
              "system": "http://loinc.org",
              "display": "Hemoglobin A1c/Hemoglobin.total in Blood"
            }
          ],
          "text": "Hemoglobin A1c/Hemoglobin.total in Blood"
        },
        "valueQuantity": {
          "system": "http://unitsofmeasure.org",
          "value": 4,
          "unit": "%",
          "code": "%"
        },
        "referenceRange": [
          {
            "low": {
              "value": 4,
              "code": "%",
              "system": "http://unitsofmeasure.org"
            }
          },
          {
            "high": {
              "value": 6.4,
              "code": "%",
              "system": "http://unitsofmeasure.org"
            }
          }
        ],
        "text": {
          "status": "generated",
          "div": "<div xmlns=\"http://www.w3.org/1999/xhtml\"><table class=\"hl7__eu__lab__report\"><tr><th>Test</th><th>30-Jul-2024</th><th>Reference&#xA0;Range</th><th>Unit</th></tr><tr><td>Hemoglobin A1c/Hemoglobin.total in Blood</td><td>4.0</td><td>4 - 6.4</td><td></td><td>%</td></tr></table></div>"
        },
        "status": "final",
        "subject": {
          "reference": "urn:uuid:a3e9475a-b039-45f6-a774-02cb0c4a75b5",
          "display": "Meaghan Neary"
        },
        "effectiveDateTime": "2024-07-29T22:11:04Z",
        "specimen": {
          "reference": "urn:uuid:ef612084-8478-4fe0-9054-90cec69213c3"
        }
      }
    },
    {
      "fullUrl": "urn:uuid:22c4fe5b-a3ca-4113-a408-2341532cab6a",
      "resource": {
        "resourceType": "Observation",
        "id": "22c4fe5b-a3ca-4113-a408-2341532cab6a",
        "meta": {
          "profile": [
            "http://hl7.eu/fhir/laboratory/StructureDefinition/Observation-resultslab-eu-lab"
          ]
        },
        "performer": [
          {
            "display": "The Central European Lab"
          }
        ],
        "category": [
          {
            "coding": [
              {
                "system": "http://terminology.hl7.org/CodeSystem/observation-category",
                "code": "laboratory"
              }
            ]
          }
        ],
        "code": {
          "coding": [
            {
              "code": "2339-0",
              "system": "http://loinc.org",
              "display": "Glucose [Mass/volume] in Blood"
            }
          ],
          "text": "Glucose [Mass/volume] in Blood"
        },
        "valueQuantity": {
          "system": "http://unitsofmeasure.org",
          "value": 65.9,
          "unit": "mg/dL",
          "code": "mg/dL"
        },
        "referenceRange": [
          {
            "low": {
              "value": 70,
              "code": "mg/dL",
              "system": "http://unitsofmeasure.org"
            }
          },
          {
            "high": {
              "value": 100,
              "code": "mg/dL",
              "system": "http://unitsofmeasure.org"
            }
          }
        ],
        "interpretation": [
          {
            "coding": [
              {
                "code": "L",
                "system": "http://terminology.hl7.org/CodeSystem/v3-ObservationInterpretation",
                "display": "Low"
              }
            ]
          }
        ],
        "text": {
          "status": "generated",
          "div": "<div xmlns=\"http://www.w3.org/1999/xhtml\"><table class=\"hl7__eu__lab__report\"><tr><th>Test</th><th>30-Jul-2024</th><th>Reference&#xA0;Range</th><th>Unit</th></tr><tr><td>Glucose [Mass/volume] in Blood</td><td>65.9</td><td>70 - 100</td><td>L</td><td>mg/dL</td></tr></table></div>"
        },
        "status": "final",
        "subject": {
          "reference": "urn:uuid:a3e9475a-b039-45f6-a774-02cb0c4a75b5",
          "display": "Meaghan Neary"
        },
        "effectiveDateTime": "2024-07-29T22:11:04Z",
        "specimen": {
          "reference": "urn:uuid:ef612084-8478-4fe0-9054-90cec69213c3"
        }
      }
    },
    {
      "fullUrl": "urn:uuid:251c0fe4-ad16-49ec-8aa1-699d85085d34",
      "resource": {
        "resourceType": "Observation",
        "id": "251c0fe4-ad16-49ec-8aa1-699d85085d34",
        "meta": {
          "profile": [
            "http://hl7.eu/fhir/laboratory/StructureDefinition/Observation-resultslab-eu-lab"
          ]
        },
        "performer": [
          {
            "display": "The Central European Lab"
          }
        ],
        "category": [
          {
            "coding": [
              {
                "system": "http://terminology.hl7.org/CodeSystem/observation-category",
                "code": "laboratory"
              }
            ]
          }
        ],
        "code": {
          "coding": [
            {
              "code": "6299-2",
              "system": "http://loinc.org",
              "display": "Urea nitrogen [Mass/volume] in Blood"
            }
          ],
          "text": "Urea nitrogen [Mass/volume] in Blood"
        },
        "valueQuantity": {
          "system": "http://unitsofmeasure.org",
          "value": 16.4,
          "unit": "mg/dL",
          "code": "mg/dL"
        },
        "referenceRange": [
          {
            "low": {
              "value": 7,
              "code": "mg/dL",
              "system": "http://unitsofmeasure.org"
            }
          },
          {
            "high": {
              "value": 43,
              "code": "mg/dL",
              "system": "http://unitsofmeasure.org"
            }
          }
        ],
        "text": {
          "status": "generated",
          "div": "<div xmlns=\"http://www.w3.org/1999/xhtml\"><table class=\"hl7__eu__lab__report\"><tr><th>Test</th><th>30-Jul-2024</th><th>Reference&#xA0;Range</th><th>Unit</th></tr><tr><td>Urea nitrogen [Mass/volume] in Blood</td><td>16.4</td><td>7 - 43</td><td></td><td>mg/dL</td></tr></table></div>"
        },
        "status": "final",
        "subject": {
          "reference": "urn:uuid:a3e9475a-b039-45f6-a774-02cb0c4a75b5",
          "display": "Meaghan Neary"
        },
        "effectiveDateTime": "2024-07-29T22:11:04Z",
        "specimen": {
          "reference": "urn:uuid:ef612084-8478-4fe0-9054-90cec69213c3"
        }
      }
    },
    {
      "fullUrl": "urn:uuid:d772cf23-133e-4b2b-abde-e272bf535670",
      "resource": {
        "resourceType": "Observation",
        "id": "d772cf23-133e-4b2b-abde-e272bf535670",
        "meta": {
          "profile": [
            "http://hl7.eu/fhir/laboratory/StructureDefinition/Observation-resultslab-eu-lab"
          ]
        },
        "performer": [
          {
            "display": "The Central European Lab"
          }
        ],
        "category": [
          {
            "coding": [
              {
                "system": "http://terminology.hl7.org/CodeSystem/observation-category",
                "code": "laboratory"
              }
            ]
          }
        ],
        "code": {
          "coding": [
            {
              "code": "38483-4",
              "system": "http://loinc.org",
              "display": "Creatinine [Mass/volume] in Blood"
            }
          ],
          "text": "Creatinine [Mass/volume] in Blood"
        },
        "valueQuantity": {
          "system": "http://unitsofmeasure.org",
          "value": 3.6,
          "unit": "mg/dL",
          "code": "mg/dL"
        },
        "referenceRange": [
          {
            "low": {
              "value": 0.6,
              "code": "mg/dL",
              "system": "http://unitsofmeasure.org"
            }
          },
          {
            "high": {
              "value": 1.1,
              "code": "mg/dL",
              "system": "http://unitsofmeasure.org"
            }
          }
        ],
        "interpretation": [
          {
            "coding": [
              {
                "code": "H",
                "system": "http://terminology.hl7.org/CodeSystem/v3-ObservationInterpretation",
                "display": "High"
              }
            ]
          }
        ],
        "text": {
          "status": "generated",
          "div": "<div xmlns=\"http://www.w3.org/1999/xhtml\"><table class=\"hl7__eu__lab__report\"><tr><th>Test</th><th>30-Jul-2024</th><th>Reference&#xA0;Range</th><th>Unit</th></tr><tr><td>Creatinine [Mass/volume] in Blood</td><td>3.6</td><td>0.6 - 1.1</td><td>H</td><td>mg/dL</td></tr></table></div>"
        },
        "status": "final",
        "subject": {
          "reference": "urn:uuid:a3e9475a-b039-45f6-a774-02cb0c4a75b5",
          "display": "Meaghan Neary"
        },
        "effectiveDateTime": "2024-07-29T22:11:04Z",
        "specimen": {
          "reference": "urn:uuid:ef612084-8478-4fe0-9054-90cec69213c3"
        }
      }
    },
    {
      "fullUrl": "urn:uuid:73e62aa1-6523-4903-9f7e-858b2bc06052",
      "resource": {
        "resourceType": "Observation",
        "id": "73e62aa1-6523-4903-9f7e-858b2bc06052",
        "meta": {
          "profile": [
            "http://hl7.eu/fhir/laboratory/StructureDefinition/Observation-resultslab-eu-lab"
          ]
        },
        "performer": [
          {
            "display": "The Central European Lab"
          }
        ],
        "category": [
          {
            "coding": [
              {
                "system": "http://terminology.hl7.org/CodeSystem/observation-category",
                "code": "laboratory"
              }
            ]
          }
        ],
        "code": {
          "coding": [
            {
              "code": "49765-1",
              "system": "http://loinc.org",
              "display": "Calcium [Mass/volume] in Blood"
            }
          ],
          "text": "Calcium [Mass/volume] in Blood"
        },
        "valueQuantity": {
          "system": "http://unitsofmeasure.org",
          "value": 9,
          "unit": "mg/dL",
          "code": "mg/dL"
        },
        "referenceRange": [
          {
            "low": {
              "value": 8.5,
              "code": "mg/dL",
              "system": "http://unitsofmeasure.org"
            }
          },
          {
            "high": {
              "value": 10.5,
              "code": "mg/dL",
              "system": "http://unitsofmeasure.org"
            }
          }
        ],
        "text": {
          "status": "generated",
          "div": "<div xmlns=\"http://www.w3.org/1999/xhtml\"><table class=\"hl7__eu__lab__report\"><tr><th>Test</th><th>30-Jul-2024</th><th>Reference&#xA0;Range</th><th>Unit</th></tr><tr><td>Calcium [Mass/volume] in Blood</td><td>9.0</td><td>8.5 - 10.5</td><td></td><td>mg/dL</td></tr></table></div>"
        },
        "status": "final",
        "subject": {
          "reference": "urn:uuid:a3e9475a-b039-45f6-a774-02cb0c4a75b5",
          "display": "Meaghan Neary"
        },
        "effectiveDateTime": "2024-07-29T22:11:04Z",
        "specimen": {
          "reference": "urn:uuid:ef612084-8478-4fe0-9054-90cec69213c3"
        }
      }
    },
    {
      "fullUrl": "urn:uuid:c00c15d1-eecb-4769-a453-945c9e7e0b42",
      "resource": {
        "resourceType": "Observation",
        "id": "c00c15d1-eecb-4769-a453-945c9e7e0b42",
        "meta": {
          "profile": [
            "http://hl7.eu/fhir/laboratory/StructureDefinition/Observation-resultslab-eu-lab"
          ]
        },
        "performer": [
          {
            "display": "The Central European Lab"
          }
        ],
        "category": [
          {
            "coding": [
              {
                "system": "http://terminology.hl7.org/CodeSystem/observation-category",
                "code": "laboratory"
              }
            ]
          }
        ],
        "code": {
          "coding": [
            {
              "code": "2947-0",
              "system": "http://loinc.org",
              "display": "Sodium [Moles/volume] in Blood"
            }
          ],
          "text": "Sodium [Moles/volume] in Blood"
        },
        "valueQuantity": {
          "system": "http://unitsofmeasure.org",
          "value": 140.3,
          "unit": "mmol/L",
          "code": "mmol/L"
        },
        "referenceRange": [
          {
            "low": {
              "value": 135,
              "code": "mmol/L",
              "system": "http://unitsofmeasure.org"
            }
          },
          {
            "high": {
              "value": 145,
              "code": "mmol/L",
              "system": "http://unitsofmeasure.org"
            }
          }
        ],
        "text": {
          "status": "generated",
          "div": "<div xmlns=\"http://www.w3.org/1999/xhtml\"><table class=\"hl7__eu__lab__report\"><tr><th>Test</th><th>30-Jul-2024</th><th>Reference&#xA0;Range</th><th>Unit</th></tr><tr><td>Sodium [Moles/volume] in Blood</td><td>140.3</td><td>135 - 145</td><td></td><td>mmol/L</td></tr></table></div>"
        },
        "status": "final",
        "subject": {
          "reference": "urn:uuid:a3e9475a-b039-45f6-a774-02cb0c4a75b5",
          "display": "Meaghan Neary"
        },
        "effectiveDateTime": "2024-07-29T22:11:04Z",
        "specimen": {
          "reference": "urn:uuid:ef612084-8478-4fe0-9054-90cec69213c3"
        }
      }
    },
    {
      "fullUrl": "urn:uuid:ba14b67c-7810-4d71-bd13-941d153d03b3",
      "resource": {
        "resourceType": "Observation",
        "id": "ba14b67c-7810-4d71-bd13-941d153d03b3",
        "meta": {
          "profile": [
            "http://hl7.eu/fhir/laboratory/StructureDefinition/Observation-resultslab-eu-lab"
          ]
        },
        "performer": [
          {
            "display": "The Central European Lab"
          }
        ],
        "category": [
          {
            "coding": [
              {
                "system": "http://terminology.hl7.org/CodeSystem/observation-category",
                "code": "laboratory"
              }
            ]
          }
        ],
        "code": {
          "coding": [
            {
              "code": "6298-4",
              "system": "http://loinc.org",
              "display": "Potassium [Moles/volume] in Blood"
            }
          ],
          "text": "Potassium [Moles/volume] in Blood"
        },
        "valueQuantity": {
          "system": "http://unitsofmeasure.org",
          "value": 5.1,
          "unit": "mmol/L",
          "code": "mmol/L"
        },
        "referenceRange": [
          {
            "low": {
              "value": 3.5,
              "code": "mmol/L",
              "system": "http://unitsofmeasure.org"
            }
          },
          {
            "high": {
              "value": 5.1,
              "code": "mmol/L",
              "system": "http://unitsofmeasure.org"
            }
          }
        ],
        "text": {
          "status": "generated",
          "div": "<div xmlns=\"http://www.w3.org/1999/xhtml\"><table class=\"hl7__eu__lab__report\"><tr><th>Test</th><th>30-Jul-2024</th><th>Reference&#xA0;Range</th><th>Unit</th></tr><tr><td>Potassium [Moles/volume] in Blood</td><td>5.1</td><td>3.5 - 5.1</td><td></td><td>mmol/L</td></tr></table></div>"
        },
        "status": "final",
        "subject": {
          "reference": "urn:uuid:a3e9475a-b039-45f6-a774-02cb0c4a75b5",
          "display": "Meaghan Neary"
        },
        "effectiveDateTime": "2024-07-29T22:11:04Z",
        "specimen": {
          "reference": "urn:uuid:ef612084-8478-4fe0-9054-90cec69213c3"
        }
      }
    },
    {
      "fullUrl": "urn:uuid:e29cf9b1-ab6c-4f6b-8c9d-79b664840cef",
      "resource": {
        "resourceType": "Observation",
        "id": "e29cf9b1-ab6c-4f6b-8c9d-79b664840cef",
        "meta": {
          "profile": [
            "http://hl7.eu/fhir/laboratory/StructureDefinition/Observation-resultslab-eu-lab"
          ]
        },
        "performer": [
          {
            "display": "The Central European Lab"
          }
        ],
        "category": [
          {
            "coding": [
              {
                "system": "http://terminology.hl7.org/CodeSystem/observation-category",
                "code": "laboratory"
              }
            ]
          }
        ],
        "code": {
          "coding": [
            {
              "code": "2069-3",
              "system": "http://loinc.org",
              "display": "Chloride [Moles/volume] in Blood"
            }
          ],
          "text": "Chloride [Moles/volume] in Blood"
        },
        "valueQuantity": {
          "system": "http://unitsofmeasure.org",
          "value": 106.8,
          "unit": "mmol/L",
          "code": "mmol/L"
        },
        "referenceRange": [
          {
            "low": {
              "value": 98,
              "code": "mmol/L",
              "system": "http://unitsofmeasure.org"
            }
          },
          {
            "high": {
              "value": 108,
              "code": "mmol/L",
              "system": "http://unitsofmeasure.org"
            }
          }
        ],
        "text": {
          "status": "generated",
          "div": "<div xmlns=\"http://www.w3.org/1999/xhtml\"><table class=\"hl7__eu__lab__report\"><tr><th>Test</th><th>30-Jul-2024</th><th>Reference&#xA0;Range</th><th>Unit</th></tr><tr><td>Chloride [Moles/volume] in Blood</td><td>106.8</td><td>98 - 108</td><td></td><td>mmol/L</td></tr></table></div>"
        },
        "status": "final",
        "subject": {
          "reference": "urn:uuid:a3e9475a-b039-45f6-a774-02cb0c4a75b5",
          "display": "Meaghan Neary"
        },
        "effectiveDateTime": "2024-07-29T22:11:04Z",
        "specimen": {
          "reference": "urn:uuid:ef612084-8478-4fe0-9054-90cec69213c3"
        }
      }
    },
    {
      "fullUrl": "urn:uuid:544b088a-38e7-47c9-9303-8c77eae132eb",
      "resource": {
        "resourceType": "Observation",
        "id": "544b088a-38e7-47c9-9303-8c77eae132eb",
        "meta": {
          "profile": [
            "http://hl7.eu/fhir/laboratory/StructureDefinition/Observation-resultslab-eu-lab"
          ]
        },
        "performer": [
          {
            "display": "The Central European Lab"
          }
        ],
        "category": [
          {
            "coding": [
              {
                "system": "http://terminology.hl7.org/CodeSystem/observation-category",
                "code": "laboratory"
              }
            ]
          }
        ],
        "code": {
          "coding": [
            {
              "code": "20565-8",
              "system": "http://loinc.org",
              "display": "Carbon dioxide, total [Moles/volume] in Blood"
            }
          ],
          "text": "Carbon dioxide, total [Moles/volume] in Blood"
        },
        "valueQuantity": {
          "system": "http://unitsofmeasure.org",
          "value": 22.9,
          "unit": "mmol/L",
          "code": "mmol/L"
        },
        "referenceRange": [
          {
            "low": {
              "value": 22,
              "code": "mmol/L",
              "system": "http://unitsofmeasure.org"
            }
          },
          {
            "high": {
              "value": 29,
              "code": "mmol/L",
              "system": "http://unitsofmeasure.org"
            }
          }
        ],
        "text": {
          "status": "generated",
          "div": "<div xmlns=\"http://www.w3.org/1999/xhtml\"><table class=\"hl7__eu__lab__report\"><tr><th>Test</th><th>30-Jul-2024</th><th>Reference&#xA0;Range</th><th>Unit</th></tr><tr><td>Carbon dioxide, total [Moles/volume] in Blood</td><td>22.9</td><td>22 - 29</td><td></td><td>mmol/L</td></tr></table></div>"
        },
        "status": "final",
        "subject": {
          "reference": "urn:uuid:a3e9475a-b039-45f6-a774-02cb0c4a75b5",
          "display": "Meaghan Neary"
        },
        "effectiveDateTime": "2024-07-29T22:11:04Z",
        "specimen": {
          "reference": "urn:uuid:ef612084-8478-4fe0-9054-90cec69213c3"
        }
      }
    },
    {
      "fullUrl": "urn:uuid:3558c153-4c8e-4b0e-bf04-3728a7f90cc5",
      "resource": {
        "resourceType": "Device",
        "id": "3558c153-4c8e-4b0e-bf04-3728a7f90cc5",
        "deviceName": [
          {
            "name": "SYNDERAI Synthetic Generator",
            "type": "manufacturer-name"
          }
        ],
        "version": [
          {
            "value": "5.0"
          }
        ],
        "text": {
          "status": "generated",
          "div": "<div xmlns=\"http://www.w3.org/1999/xhtml\">SYNDERAI Synthetic Generator v5.0</div>"
        },
        "status": "active\"",
        "distinctIdentifier": "synderai-generator-50",
        "manufacturer": "SYNDERAI Project"
      }
    },
    {
      "fullUrl": "urn:uuid:187ab56c-1472-4cbc-a9ee-af3c658129dc",
      "resource": {
        "resourceType": "Provenance",
        "id": "187ab56c-1472-4cbc-a9ee-af3c658129dc",
        "target": [
          {
            "reference": "Patient/a3e9475a-b039-45f6-a774-02cb0c4a75b5"
          },
          {
            "reference": "Bundle/ce3ded44-123c-41c8-8615-1531fe8fcffe"
          },
          {
            "reference": "Composition/51f23740-c765-40a1-bc5a-7e5478f574d5"
          },
          {
            "reference": "PractitionerRole/a769b47e-b89a-45cf-b10a-64a476b8c29f"
          },
          {
            "reference": "Practitioner/be7e3f13-8048-40c4-958c-a62cf995f404"
          },
          {
            "reference": "PractitionerRole/a01ceaa5-88fa-4df0-93b9-3a7590b8b654"
          },
          {
            "reference": "Organization/61205121-ce68-475d-8158-9623846f7234"
          }
        ],
        "activity": {
          "text": "Synthetic Example Data Generation"
        },
        "policy": [
          "https://synderai.net/synderai-synthetic-data-policy"
        ],
        "agent": [
          {
            "type": {
              "text": "author"
            },
            "who": {
              "reference": "Device/3558c153-4c8e-4b0e-bf04-3728a7f90cc5"
            }
          }
        ],
        "reason": [
          {
            "text": "Interoperability Testing and Training (non-clinical use)"
          }
        ],
        "text": {
          "status": "generated",
          "div": "<div xmlns=\"http://www.w3.org/1999/xhtml\">Provenance for SYNDERAI Synthetic Example Data Resource</div>"
        },
        "recorded": "2024-07-30T00:11:04Z"
      }
    },
    {
      "fullUrl": "urn:uuid:a769b47e-b89a-45cf-b10a-64a476b8c29f",
      "resource": {
        "resourceType": "PractitionerRole",
        "id": "a769b47e-b89a-45cf-b10a-64a476b8c29f",
        "meta": {
          "profile": [
            "http://hl7.eu/fhir/base/StructureDefinition/practitionerRole-eu"
          ]
        },
        "text": {
          "status": "generated",
          "div": "<div xmlns=\"http://www.w3.org/1999/xhtml\">Laboratory Role Id: a769b47e-b89a-45cf-b10a-64a476b8c29f</div>"
        },
        "practitioner": {
          "reference": "urn:uuid:be7e3f13-8048-40c4-958c-a62cf995f404"
        }
      }
    },
    {
      "fullUrl": "urn:uuid:be7e3f13-8048-40c4-958c-a62cf995f404",
      "resource": {
        "resourceType": "Practitioner",
        "id": "be7e3f13-8048-40c4-958c-a62cf995f404",
        "meta": {
          "profile": [
            "http://hl7.eu/fhir/base/StructureDefinition/practitioner-eu"
          ]
        },
        "identifier": [
          {
            "assigner": {
              "display": "HL7 Europe"
            },
            "system": "urn:oid:2.16.840.1.113883.2.51.999",
            "value": "bba0cab6-9297-4959-ae39-1aa1efabf966"
          }
        ],
        "name": [
          {
            "prefix": [
              "dr"
            ],
            "given": [
              "Ex"
            ],
            "family": "Ample"
          }
        ],
        "address": [
          {
            "line": [
              "Laboratoire Central Europenne",
              "Boulevard du Jardin Botanique 32"
            ],
            "postalCode": "1000",
            "city": "Brussels",
            "country": "Belgium"
          }
        ],
        "text": {
          "status": "generated",
          "div": "<div xmlns=\"http://www.w3.org/1999/xhtml\">Laboratory: Laboratoire Central Europenne, 1000 Brussels, Belgium</div>"
        }
      }
    }
  ],
  "type": "document",
  "timestamp": "2024-07-30T00:11:04Z"
}
