{
  "resourceType": "Bundle",
  "id": "ad6bf877-0b8b-46d2-a030-5b409b241b1a",
  "meta": {
    "profile": [
      "http://hl7.eu/fhir/laboratory/StructureDefinition/Bundle-eu-lab"
    ]
  },
  "identifier": {
    "assigner": {
      "display": "HL7 Europe"
    },
    "system": "urn:oid:2.16.840.1.113883.2.51.999",
    "value": "378f2faf-dd69-4781-b4e3-8c7c6e30e6a3"
  },
  "entry": [
    {
      "fullUrl": "urn:uuid:e9029be4-deb5-419a-8d03-9cb3493f6dd2",
      "resource": {
        "resourceType": "Composition",
        "id": "e9029be4-deb5-419a-8d03-9cb3493f6dd2",
        "meta": {
          "profile": [
            "http://hl7.eu/fhir/laboratory/StructureDefinition/Composition-eu-lab"
          ]
        },
        "identifier": {
          "assigner": {
            "display": "HL7 Europe"
          },
          "system": "urn:oid:2.16.840.1.113883.2.51.999",
          "value": "925bdae4-9560-4e36-9e6d-00e32ea49648"
        },
        "author": [
          {
            "reference": "urn:uuid:acab1ab5-2950-459b-91d6-9954aea6bcb1"
          }
        ],
        "category": [
          {
            "coding": [
              {
                "code": "26436-6",
                "system": "http://loinc.org",
                "display": "Laboratory studies (set)"
              }
            ]
          }
        ],
        "type": {
          "coding": [
            {
              "code": "11502-2",
              "system": "http://loinc.org",
              "display": "Laboratory report"
            }
          ],
          "text": "Laboratory Report"
        },
        "section": [
          {
            "code": {
              "coding": [
                {
                  "code": "26436-6",
                  "system": "http://loinc.org",
                  "display": "Laboratory studies (set)"
                }
              ],
              "text": "Laboratory studies"
            },
            "section": [
              {
                "code": {
                  "coding": [
                    {
                      "code": "$18723-7",
                      "system": "http://loinc.org",
                      "display": "Hematology studies (set)"
                    }
                  ],
                  "text": "Hematology"
                },
                "entry": [
                  {
                    "reference": "urn:uuid:38ab2b48-3137-4213-8975-c9d13043ccbe"
                  },
                  {
                    "reference": "urn:uuid:cbf09822-425c-4a7e-b644-780c1a0d7711"
                  },
                  {
                    "reference": "urn:uuid:343cb01d-f4d9-47d1-8de6-a68f3c6a8520"
                  },
                  {
                    "reference": "urn:uuid:e6f25395-b272-4170-bad0-bc794da1d5eb"
                  },
                  {
                    "reference": "urn:uuid:cc64591f-04bc-4b8e-92b8-0dabdc200dc1"
                  },
                  {
                    "reference": "urn:uuid:c4a4aafe-5200-4665-b39f-ca50880be0e3"
                  },
                  {
                    "reference": "urn:uuid:13af8926-466b-4b28-bff6-d50d35c02a03"
                  },
                  {
                    "reference": "urn:uuid:03f25dde-293c-4490-a011-2d3feba263aa"
                  },
                  {
                    "reference": "urn:uuid:5905f0c2-1d62-4cf8-b349-e0810338749d"
                  },
                  {
                    "reference": "urn:uuid:e96486c0-53c9-45c9-9ed9-4dd7ceef82d3"
                  },
                  {
                    "reference": "urn:uuid:ce52118f-7bb3-4803-b5a8-2972e1d462c7"
                  }
                ],
                "text": {
                  "status": "generated",
                  "div": "<div xmlns=\"http://www.w3.org/1999/xhtml\"><h3>Hematology</h3><table class=\"hl7__eu__lab__report\"><thead><tr><th>Test</th><th>07-APR-2023</th><th>Reference&#xA0;Range</th><th>Unit</th></tr></thead><tbody><tr><td>Leukocytes [#/volume] in Blood by Automated count</td><td>10.0</td><td>3.4 - 10.5</td><td>10*3/uL</td></tr><tr><td>Erythrocytes [#/volume] in Blood by Automated count</td><td>5.1</td><td>3.9 - 5.4</td><td>10*6/uL</td></tr><tr><td>Hemoglobin [Mass/volume] in Blood</td><td>12.5</td><td>12 - 16</td><td>g/dL</td></tr><tr><td>Hematocrit [Volume Fraction] of Blood by Automated count</td><td>41.7</td><td>38 - 54</td><td>%</td></tr><tr><td>MCV [Entitic volume] by Automated count</td><td>85.2</td><td>82 - 98</td><td>fL</td></tr><tr><td>MCH [Entitic mass] by Automated count</td><td>30.8</td><td>27 - 34</td><td>pg</td></tr><tr><td>MCHC [Mass/volume] by Automated count</td><td>35.5</td><td>32 - 37</td><td>g/dL</td></tr><tr><td>Erythrocyte distribution width [Entitic volume] by Automated count</td><td>45.9</td><td>36 - 55</td><td>fL</td></tr><tr><td>Platelets [#/volume] in Blood by Automated count</td><td>261.4</td><td>140 - 424</td><td>10*3/uL</td></tr><tr><td>Platelet distribution width [Entitic volume] in Blood by Automated count</td><td><strong>400.9 H</strong></td><td>13.4 - 17.4</td><td>fL</td></tr><tr><td>Platelet mean volume [Entitic volume] in Blood by Automated count</td><td>12.1</td><td>9.4 - 14</td><td>fL</td></tr></tbody></table></div>"
                },
                "title": "Hematology"
              },
              {
                "code": {
                  "coding": [
                    {
                      "code": "$18719-5",
                      "system": "http://loinc.org",
                      "display": "Chemistry studies (set)"
                    }
                  ],
                  "text": "Chemistry"
                },
                "entry": [
                  {
                    "reference": "urn:uuid:ac531204-4332-4b1f-88b4-41501cb3e1f8"
                  },
                  {
                    "reference": "urn:uuid:6b51ceaf-5b89-4d5b-8724-c7ce34907da5"
                  },
                  {
                    "reference": "urn:uuid:8ebfb5fa-7eda-4860-bd79-ebb323f14efb"
                  },
                  {
                    "reference": "urn:uuid:6d8a4130-d97a-44d9-814b-c633e869439a"
                  },
                  {
                    "reference": "urn:uuid:d5b09073-fe00-447c-8d68-eab3d53820a8"
                  },
                  {
                    "reference": "urn:uuid:91578385-8b2d-4f61-b147-65ecd2897868"
                  },
                  {
                    "reference": "urn:uuid:d0e99071-b8a1-4e57-b62e-90d5c1a4e1e0"
                  },
                  {
                    "reference": "urn:uuid:ae3d85a2-c969-44bd-87ca-33a9ca58d34a"
                  },
                  {
                    "reference": "urn:uuid:732313a7-8c9e-425c-a4b0-f526cc976d38"
                  },
                  {
                    "reference": "urn:uuid:26cb4fc9-04ea-49b2-ae7a-6fbc68dd59ee"
                  },
                  {
                    "reference": "urn:uuid:c3b45514-ad9a-4fe2-928d-e79c12ea0826"
                  },
                  {
                    "reference": "urn:uuid:3479d403-cd23-4f60-900d-4a0e1133285f"
                  },
                  {
                    "reference": "urn:uuid:dce6d982-2d43-4ea0-9b42-7909260d1b7d"
                  }
                ],
                "text": {
                  "status": "generated",
                  "div": "<div xmlns=\"http://www.w3.org/1999/xhtml\"><h3>Chemistry</h3><table class=\"hl7__eu__lab__report\"><thead><tr><th>Test</th><th>07-APR-2023</th><th>Reference&#xA0;Range</th><th>Unit</th></tr></thead><tbody><tr><td>Hemoglobin A1c/Hemoglobin.total in Blood</td><td><strong>5.8 H</strong></td><td>4.8 - 5.7</td><td>%</td></tr><tr><td>Glucose [Mass/volume] in Blood</td><td>76.8</td><td>70 - 140</td><td>mg/dL</td></tr><tr><td>Urea nitrogen [Mass/volume] in Blood</td><td>11.0</td><td>7 - 25</td><td>mg/dL</td></tr><tr><td>Creatinine [Mass/volume] in Blood</td><td>0.7</td><td>0.6 - 1.3</td><td>mg/dL</td></tr><tr><td>Calcium [Mass/volume] in Blood</td><td>8.7</td><td>8.5 - 10.5</td><td>mg/dL</td></tr><tr><td>Sodium [Moles/volume] in Blood</td><td>140.0</td><td>135 - 145</td><td>mmol/L</td></tr><tr><td>Potassium [Moles/volume] in Blood</td><td>5.1</td><td>3.5 - 5.1</td><td>mmol/L</td></tr><tr><td>Chloride [Moles/volume] in Blood</td><td>107.6</td><td>98 - 108</td><td>mmol/L</td></tr><tr><td>Carbon dioxide, total [Moles/volume] in Blood</td><td><strong>21.1 L</strong></td><td>22 - 29</td><td>mmol/L</td></tr><tr><td>Cholesterol [Mass/volume] in Serum or Plasma</td><td>179.0</td><td>125 - 200</td><td>mg/dL</td></tr><tr><td>Triglyceride [Mass/volume] in Serum or Plasma</td><td>124.9</td><td>35 - 150</td><td>mg/dL</td></tr><tr><td>Cholesterol in LDL [Mass/volume] in Serum or Plasma by Direct assay</td><td>93.2</td><td>0 - 130</td><td>mg/dL</td></tr><tr><td>Cholesterol in HDL [Mass/volume] in Serum or Plasma</td><td><strong>60.9 H</strong></td><td>40 - 60</td><td>mg/dL</td></tr></tbody></table></div>"
                },
                "title": "Chemistry"
              }
            ],
            "title": "Laboratory Report"
          },
          {
            "text": {
              "status": "generated",
              "div": "<div xmlns=\"http://www.w3.org/1999/xhtml\"><h3>Annotation</h3><table class=\"hl7__eu__lab__report\"><tr><th>Conclusion and Recommendations based on this report and previous findings known to us</th></tr><tr><td>The results show mildly elevated HbA1c (5.8%), suggesting prediabetes, and a slightly high HDL cholesterol, which is generally protective. Total CO₂ is mildly decreased, possibly indicating mild metabolic acidosis or compensation. Platelet distribution width is elevated, which may reflect increased platelet variability but is nonspecific. All other parameters, including renal function, electrolytes, and blood counts, are within normal limits. No acute abnormalities detected; recommend monitoring glucose metabolism and clinical correlation for metabolic findings.</td></tr></table></div>"
            },
            "code": {
              "coding": [
                {
                  "system": "http://loinc.org",
                  "code": "48767-8",
                  "display": "Annotation comment"
                }
              ]
            },
            "title": "Annotation comment"
          }
        ],
        "status": "final",
        "subject": {
          "reference": "urn:uuid:51ca2ae4-4560-4ea3-ad7c-61db12285ebc",
          "display": "Bethany Begum"
        },
        "date": "2023-04-07T13:40:40Z",
        "title": "Laboratory Report",
        "confidentiality": "N"
      }
    },
    {
      "fullUrl": "urn:uuid:dc7f23ae-c41f-4d1f-8c72-77f9e10f91d4",
      "resource": {
        "resourceType": "DiagnosticReport",
        "id": "dc7f23ae-c41f-4d1f-8c72-77f9e10f91d4",
        "meta": {
          "profile": [
            "http://hl7.eu/fhir/laboratory/StructureDefinition/DiagnosticReport-eu-lab"
          ]
        },
        "identifier": [
          {
            "assigner": {
              "display": "HL7 Europe"
            },
            "system": "urn:oid:2.16.840.1.113883.2.51.999",
            "value": "b5e230c0-1912-4717-aa16-a86dc9a0c6c3"
          }
        ],
        "extension": [
          {
            "url": "http://hl7.org/fhir/5.0/StructureDefinition/extension-DiagnosticReport.composition",
            "valueReference": {
              "reference": "urn:uuid:925bdae4-9560-4e36-9e6d-00e32ea49648"
            }
          }
        ],
        "category": [
          {
            "coding": [
              {
                "code": "26436-6",
                "system": "http://loinc.org",
                "display": "Laboratory studies (set)"
              }
            ]
          }
        ],
        "specimen": [
          {
            "reference": "urn:uuid:a410e2d0-fd3e-4a39-9ab0-95b6befea3cd"
          },
          {
            "reference": "urn:uuid:28afbf4d-eedd-45de-b9c5-cb36ef614b78"
          },
          {
            "reference": "urn:uuid:a410e2d0-fd3e-4a39-9ab0-95b6befea3cd"
          }
        ],
        "result": [
          {
            "reference": "urn:uuid:ac531204-4332-4b1f-88b4-41501cb3e1f8"
          },
          {
            "reference": "urn:uuid:6b51ceaf-5b89-4d5b-8724-c7ce34907da5"
          },
          {
            "reference": "urn:uuid:8ebfb5fa-7eda-4860-bd79-ebb323f14efb"
          },
          {
            "reference": "urn:uuid:6d8a4130-d97a-44d9-814b-c633e869439a"
          },
          {
            "reference": "urn:uuid:d5b09073-fe00-447c-8d68-eab3d53820a8"
          },
          {
            "reference": "urn:uuid:91578385-8b2d-4f61-b147-65ecd2897868"
          },
          {
            "reference": "urn:uuid:d0e99071-b8a1-4e57-b62e-90d5c1a4e1e0"
          },
          {
            "reference": "urn:uuid:ae3d85a2-c969-44bd-87ca-33a9ca58d34a"
          },
          {
            "reference": "urn:uuid:732313a7-8c9e-425c-a4b0-f526cc976d38"
          },
          {
            "reference": "urn:uuid:26cb4fc9-04ea-49b2-ae7a-6fbc68dd59ee"
          },
          {
            "reference": "urn:uuid:c3b45514-ad9a-4fe2-928d-e79c12ea0826"
          },
          {
            "reference": "urn:uuid:3479d403-cd23-4f60-900d-4a0e1133285f"
          },
          {
            "reference": "urn:uuid:dce6d982-2d43-4ea0-9b42-7909260d1b7d"
          },
          {
            "reference": "urn:uuid:38ab2b48-3137-4213-8975-c9d13043ccbe"
          },
          {
            "reference": "urn:uuid:cbf09822-425c-4a7e-b644-780c1a0d7711"
          },
          {
            "reference": "urn:uuid:343cb01d-f4d9-47d1-8de6-a68f3c6a8520"
          },
          {
            "reference": "urn:uuid:e6f25395-b272-4170-bad0-bc794da1d5eb"
          },
          {
            "reference": "urn:uuid:cc64591f-04bc-4b8e-92b8-0dabdc200dc1"
          },
          {
            "reference": "urn:uuid:c4a4aafe-5200-4665-b39f-ca50880be0e3"
          },
          {
            "reference": "urn:uuid:13af8926-466b-4b28-bff6-d50d35c02a03"
          },
          {
            "reference": "urn:uuid:03f25dde-293c-4490-a011-2d3feba263aa"
          },
          {
            "reference": "urn:uuid:5905f0c2-1d62-4cf8-b349-e0810338749d"
          },
          {
            "reference": "urn:uuid:e96486c0-53c9-45c9-9ed9-4dd7ceef82d3"
          },
          {
            "reference": "urn:uuid:ce52118f-7bb3-4803-b5a8-2972e1d462c7"
          }
        ],
        "status": "registered",
        "code": {
          "coding": [
            {
              "code": "11502-2",
              "system": "http://loinc.org",
              "display": "Laboratory report"
            }
          ]
        },
        "subject": {
          "reference": "urn:uuid:51ca2ae4-4560-4ea3-ad7c-61db12285ebc",
          "display": "Bethany Begum"
        }
      }
    },
    {
      "fullUrl": "urn:uuid:51ca2ae4-4560-4ea3-ad7c-61db12285ebc",
      "resource": {
        "resourceType": "Patient",
        "id": "51ca2ae4-4560-4ea3-ad7c-61db12285ebc",
        "meta": {
          "security": [
            {
              "system": "http://terminology.hl7.org/CodeSystem/v3-ActReason",
              "code": "HTEST"
            },
            {
              "system": "http://terminology.hl7.org/CodeSystem/v3-ActReason",
              "code": "TRAIN"
            }
          ],
          "tag": [
            {
              "system": "https://synderai.net/fhir/CodeSystem/tags",
              "code": "synthetic",
              "display": "SYNDERAI Synthetic data"
            }
          ],
          "profile": [
            "http://hl7.eu/fhir/base/StructureDefinition/patient-eu-core"
          ]
        },
        "identifier": [
          {
            "type": {
              "coding": [
                {
                  "code": "PT",
                  "system": "http://terminology.hl7.org/CodeSystem/v2-0203"
                }
              ]
            },
            "system": "http://ec.europa.eu/identifier/eci",
            "value": "2365-936148-1"
          },
          {
            "type": {
              "coding": [
                {
                  "code": "MR",
                  "system": "http://terminology.hl7.org/CodeSystem/v2-0203"
                }
              ]
            },
            "system": "http://local.setting.eu/identifier",
            "value": "853b213b-8bf3-d90f-2018-79d547156fd7"
          }
        ],
        "name": [
          {
            "family": "Begum"
          },
          {
            "given": [
              "Bethany"
            ]
          },
          {
            "text": "Bethany Begum"
          }
        ],
        "address": [
          {
            "line": [
              "Studio 22e",
              "Joe unions"
            ],
            "use": "home",
            "type": "physical",
            "postalCode": "M1",
            "city": "Manchester",
            "country": "United Kingdom"
          }
        ],
        "telecom": [
          {
            "system": "phone",
            "value": "(029) 2018200"
          }
        ],
        "extension": [
          {
            "url": "http://hl7.org/fhir/StructureDefinition/patient-nationality",
            "valueCodeableConcept": {
              "coding": [
                {
                  "code": "GB",
                  "system": "http://hl7.org/fhir/ValueSet/country"
                }
              ]
            }
          }
        ],
        "text": {
          "status": "generated",
          "div": "<div xmlns=\"http://www.w3.org/1999/xhtml\"><table class=\"hl7__ips\"><tr><td>Bethany Begum</td><td>female</td><td>19-Jan-1976</td></tr></table></div>"
        },
        "gender": "female",
        "birthDate": "1976-01-19"
      }
    },
    {
      "fullUrl": "urn:uuid:feca26af-c71d-44fb-94ed-735e23f37137",
      "resource": {
        "resourceType": "ServiceRequest",
        "id": "feca26af-c71d-44fb-94ed-735e23f37137",
        "meta": {
          "profile": [
            "http://hl7.eu/fhir/laboratory/StructureDefinition/ServiceRequest-eu-lab"
          ]
        },
        "identifier": [
          {
            "system": "http://example.org",
            "value": "966b9255-338c-498c-a528-ea7f2e87cd98"
          }
        ],
        "specimen": [
          {
            "reference": "urn:uuid:a410e2d0-fd3e-4a39-9ab0-95b6befea3cd"
          },
          {
            "reference": "urn:uuid:28afbf4d-eedd-45de-b9c5-cb36ef614b78"
          }
        ],
        "reasonCode": [
          {
            "coding": [
              {
                "code": "55822004",
                "system": "http://snomed.info/sct",
                "display": "Hyperlipidemia"
              }
            ]
          },
          {
            "coding": [
              {
                "code": "15777000",
                "system": "http://snomed.info/sct",
                "display": "Prediabetes"
              }
            ]
          },
          {
            "coding": [
              {
                "code": "40055000",
                "system": "http://snomed.info/sct",
                "display": "Chronic sinusitis"
              }
            ]
          }
        ],
        "status": "active",
        "intent": "order",
        "code": {
          "coding": [
            {
              "code": "108252007",
              "system": "http://snomed.info/sct",
              "display": "Laboratory procedure"
            }
          ]
        },
        "subject": {
          "reference": "urn:uuid:51ca2ae4-4560-4ea3-ad7c-61db12285ebc",
          "display": "Bethany Begum"
        },
        "requester": {
          "reference": "urn:uuid:62eae890-c243-49d7-93cc-964bbaac6dad"
        }
      }
    },
    {
      "fullUrl": "urn:uuid:62eae890-c243-49d7-93cc-964bbaac6dad",
      "resource": {
        "resourceType": "PractitionerRole",
        "id": "62eae890-c243-49d7-93cc-964bbaac6dad",
        "meta": {
          "profile": [
            "http://hl7.eu/fhir/base/StructureDefinition/practitionerRole-eu"
          ]
        },
        "text": {
          "status": "generated",
          "div": "<div xmlns=\"http://www.w3.org/1999/xhtml\">Provider Role Id: 62eae890-c243-49d7-93cc-964bbaac6dad</div>"
        },
        "organization": {
          "reference": "urn:uuid:02965cb5-31ae-4c7f-9946-a8acac2d2d23"
        }
      }
    },
    {
      "fullUrl": "urn:uuid:02965cb5-31ae-4c7f-9946-a8acac2d2d23",
      "resource": {
        "resourceType": "Organization",
        "id": "02965cb5-31ae-4c7f-9946-a8acac2d2d23",
        "meta": {
          "profile": [
            "http://hl7.eu/fhir/base/StructureDefinition/organization-eu"
          ]
        },
        "identifier": [
          {
            "assigner": {
              "display": "HL7 Europe"
            },
            "system": "urn:oid:2.16.840.1.113883.2.51.999",
            "value": "6d6f5069-3e67-44d3-8b56-e60571da1a90"
          }
        ],
        "address": [
          {
            "line": [
              "City Road 204"
            ],
            "city": "Manchester",
            "postalCode": "M3 3",
            "country": "United Kingdom"
          }
        ],
        "text": {
          "status": "generated",
          "div": "<div xmlns=\"http://www.w3.org/1999/xhtml\">Provider Organization: Cornbrook Medical Practice</div>"
        },
        "name": "Cornbrook Medical Practice"
      }
    },
    {
      "fullUrl": "urn:uuid:a410e2d0-fd3e-4a39-9ab0-95b6befea3cd",
      "resource": {
        "resourceType": "Specimen",
        "id": "a410e2d0-fd3e-4a39-9ab0-95b6befea3cd",
        "meta": {
          "profile": [
            "http://hl7.eu/fhir/laboratory/StructureDefinition/Specimen-eu-lab"
          ]
        },
        "collection": {
          "collectedDateTime": "2023-04-07"
        },
        "text": {
          "status": "generated",
          "div": "<div xmlns=\"http://www.w3.org/1999/xhtml\"><table class=\"hl7__eu__lab__report\"><tr><th>Specimen</th><th>Collection Date</th></tr><tr><td>Whole blood specimen (specimen)</td><td><span class=\"nb\">07-Apr-2023</span></td></tr></table></div>"
        },
        "type": {
          "coding": [
            {
              "code": "258580003",
              "system": "http://snomed.info/sct",
              "display": "Whole blood specimen (specimen)"
            }
          ]
        }
      }
    },
    {
      "fullUrl": "urn:uuid:28afbf4d-eedd-45de-b9c5-cb36ef614b78",
      "resource": {
        "resourceType": "Specimen",
        "id": "28afbf4d-eedd-45de-b9c5-cb36ef614b78",
        "meta": {
          "profile": [
            "http://hl7.eu/fhir/laboratory/StructureDefinition/Specimen-eu-lab"
          ]
        },
        "collection": {
          "collectedDateTime": "2023-04-07"
        },
        "text": {
          "status": "generated",
          "div": "<div xmlns=\"http://www.w3.org/1999/xhtml\"><table class=\"hl7__eu__lab__report\"><tr><th>Specimen</th><th>Collection Date</th></tr><tr><td>Acellular blood (serum or plasma) specimen</td><td><span class=\"nb\">07-Apr-2023</span></td></tr></table></div>"
        },
        "type": {
          "coding": [
            {
              "code": "122592007",
              "system": "http://snomed.info/sct",
              "display": "Acellular blood (serum or plasma) specimen"
            }
          ]
        }
      }
    },
    {
      "fullUrl": "urn:uuid:a410e2d0-fd3e-4a39-9ab0-95b6befea3cd",
      "resource": {
        "resourceType": "Specimen",
        "id": "a410e2d0-fd3e-4a39-9ab0-95b6befea3cd",
        "meta": {
          "profile": [
            "http://hl7.eu/fhir/laboratory/StructureDefinition/Specimen-eu-lab"
          ]
        },
        "collection": {
          "collectedDateTime": "2023-04-07"
        },
        "text": {
          "status": "generated",
          "div": "<div xmlns=\"http://www.w3.org/1999/xhtml\"><table class=\"hl7__eu__lab__report\"><tr><th>Specimen</th><th>Collection Date</th></tr><tr><td>Whole blood specimen (specimen)</td><td><span class=\"nb\">07-Apr-2023</span></td></tr></table></div>"
        },
        "type": {
          "coding": [
            {
              "code": "258580003",
              "system": "http://snomed.info/sct",
              "display": "Whole blood specimen (specimen)"
            }
          ]
        }
      }
    },
    {
      "fullUrl": "urn:uuid:ac531204-4332-4b1f-88b4-41501cb3e1f8",
      "resource": {
        "resourceType": "Observation",
        "id": "ac531204-4332-4b1f-88b4-41501cb3e1f8",
        "meta": {
          "profile": [
            "http://hl7.eu/fhir/laboratory/StructureDefinition/Observation-resultslab-eu-lab"
          ]
        },
        "performer": [
          {
            "display": "The Central European Lab"
          }
        ],
        "category": [
          {
            "coding": [
              {
                "system": "http://terminology.hl7.org/CodeSystem/observation-category",
                "code": "laboratory"
              }
            ]
          }
        ],
        "code": {
          "coding": [
            {
              "code": "4548-4",
              "system": "http://loinc.org",
              "display": "Hemoglobin A1c/Hemoglobin.total in Blood"
            }
          ],
          "text": "Hemoglobin A1c/Hemoglobin.total in Blood"
        },
        "valueQuantity": {
          "system": "http://unitsofmeasure.org",
          "value": 5.8,
          "unit": "%",
          "code": "%"
        },
        "referenceRange": [
          {
            "low": {
              "value": 4.8,
              "code": "%",
              "system": "http://unitsofmeasure.org"
            }
          },
          {
            "high": {
              "value": 5.7,
              "code": "%",
              "system": "http://unitsofmeasure.org"
            }
          }
        ],
        "interpretation": [
          {
            "coding": [
              {
                "code": "H",
                "system": "http://terminology.hl7.org/CodeSystem/v3-ObservationInterpretation",
                "display": "High"
              }
            ]
          }
        ],
        "text": {
          "status": "generated",
          "div": "<div xmlns=\"http://www.w3.org/1999/xhtml\"><table class=\"hl7__eu__lab__report\"><tr><th>Test</th><th>07-Apr-2023</th><th>Reference&#xA0;Range</th><th>Unit</th></tr><tr><td>Hemoglobin A1c/Hemoglobin.total in Blood</td><td>5.8</td><td>4.8 - 5.7</td><td>H</td><td>%</td></tr></table></div>"
        },
        "status": "final",
        "subject": {
          "reference": "urn:uuid:51ca2ae4-4560-4ea3-ad7c-61db12285ebc",
          "display": "Bethany Begum"
        },
        "effectiveDateTime": "2023-04-07T11:40:40Z",
        "specimen": {
          "reference": "urn:uuid:a410e2d0-fd3e-4a39-9ab0-95b6befea3cd"
        }
      }
    },
    {
      "fullUrl": "urn:uuid:6b51ceaf-5b89-4d5b-8724-c7ce34907da5",
      "resource": {
        "resourceType": "Observation",
        "id": "6b51ceaf-5b89-4d5b-8724-c7ce34907da5",
        "meta": {
          "profile": [
            "http://hl7.eu/fhir/laboratory/StructureDefinition/Observation-resultslab-eu-lab"
          ]
        },
        "performer": [
          {
            "display": "The Central European Lab"
          }
        ],
        "category": [
          {
            "coding": [
              {
                "system": "http://terminology.hl7.org/CodeSystem/observation-category",
                "code": "laboratory"
              }
            ]
          }
        ],
        "code": {
          "coding": [
            {
              "code": "2339-0",
              "system": "http://loinc.org",
              "display": "Glucose [Mass/volume] in Blood"
            }
          ],
          "text": "Glucose [Mass/volume] in Blood"
        },
        "valueQuantity": {
          "system": "http://unitsofmeasure.org",
          "value": 76.8,
          "unit": "mg/dL",
          "code": "mg/dL"
        },
        "referenceRange": [
          {
            "low": {
              "value": 70,
              "code": "mg/dL",
              "system": "http://unitsofmeasure.org"
            }
          },
          {
            "high": {
              "value": 140,
              "code": "mg/dL",
              "system": "http://unitsofmeasure.org"
            }
          }
        ],
        "text": {
          "status": "generated",
          "div": "<div xmlns=\"http://www.w3.org/1999/xhtml\"><table class=\"hl7__eu__lab__report\"><tr><th>Test</th><th>07-Apr-2023</th><th>Reference&#xA0;Range</th><th>Unit</th></tr><tr><td>Glucose [Mass/volume] in Blood</td><td>76.8</td><td>70 - 140</td><td></td><td>mg/dL</td></tr></table></div>"
        },
        "status": "final",
        "subject": {
          "reference": "urn:uuid:51ca2ae4-4560-4ea3-ad7c-61db12285ebc",
          "display": "Bethany Begum"
        },
        "effectiveDateTime": "2023-04-07T11:40:40Z",
        "specimen": {
          "reference": "urn:uuid:a410e2d0-fd3e-4a39-9ab0-95b6befea3cd"
        }
      }
    },
    {
      "fullUrl": "urn:uuid:8ebfb5fa-7eda-4860-bd79-ebb323f14efb",
      "resource": {
        "resourceType": "Observation",
        "id": "8ebfb5fa-7eda-4860-bd79-ebb323f14efb",
        "meta": {
          "profile": [
            "http://hl7.eu/fhir/laboratory/StructureDefinition/Observation-resultslab-eu-lab"
          ]
        },
        "performer": [
          {
            "display": "The Central European Lab"
          }
        ],
        "category": [
          {
            "coding": [
              {
                "system": "http://terminology.hl7.org/CodeSystem/observation-category",
                "code": "laboratory"
              }
            ]
          }
        ],
        "code": {
          "coding": [
            {
              "code": "6299-2",
              "system": "http://loinc.org",
              "display": "Urea nitrogen [Mass/volume] in Blood"
            }
          ],
          "text": "Urea nitrogen [Mass/volume] in Blood"
        },
        "valueQuantity": {
          "system": "http://unitsofmeasure.org",
          "value": 11,
          "unit": "mg/dL",
          "code": "mg/dL"
        },
        "referenceRange": [
          {
            "low": {
              "value": 7,
              "code": "mg/dL",
              "system": "http://unitsofmeasure.org"
            }
          },
          {
            "high": {
              "value": 25,
              "code": "mg/dL",
              "system": "http://unitsofmeasure.org"
            }
          }
        ],
        "text": {
          "status": "generated",
          "div": "<div xmlns=\"http://www.w3.org/1999/xhtml\"><table class=\"hl7__eu__lab__report\"><tr><th>Test</th><th>07-Apr-2023</th><th>Reference&#xA0;Range</th><th>Unit</th></tr><tr><td>Urea nitrogen [Mass/volume] in Blood</td><td>11.0</td><td>7 - 25</td><td></td><td>mg/dL</td></tr></table></div>"
        },
        "status": "final",
        "subject": {
          "reference": "urn:uuid:51ca2ae4-4560-4ea3-ad7c-61db12285ebc",
          "display": "Bethany Begum"
        },
        "effectiveDateTime": "2023-04-07T11:40:40Z",
        "specimen": {
          "reference": "urn:uuid:a410e2d0-fd3e-4a39-9ab0-95b6befea3cd"
        }
      }
    },
    {
      "fullUrl": "urn:uuid:6d8a4130-d97a-44d9-814b-c633e869439a",
      "resource": {
        "resourceType": "Observation",
        "id": "6d8a4130-d97a-44d9-814b-c633e869439a",
        "meta": {
          "profile": [
            "http://hl7.eu/fhir/laboratory/StructureDefinition/Observation-resultslab-eu-lab"
          ]
        },
        "performer": [
          {
            "display": "The Central European Lab"
          }
        ],
        "category": [
          {
            "coding": [
              {
                "system": "http://terminology.hl7.org/CodeSystem/observation-category",
                "code": "laboratory"
              }
            ]
          }
        ],
        "code": {
          "coding": [
            {
              "code": "38483-4",
              "system": "http://loinc.org",
              "display": "Creatinine [Mass/volume] in Blood"
            }
          ],
          "text": "Creatinine [Mass/volume] in Blood"
        },
        "valueQuantity": {
          "system": "http://unitsofmeasure.org",
          "value": 0.7,
          "unit": "mg/dL",
          "code": "mg/dL"
        },
        "referenceRange": [
          {
            "low": {
              "value": 0.6,
              "code": "mg/dL",
              "system": "http://unitsofmeasure.org"
            }
          },
          {
            "high": {
              "value": 1.3,
              "code": "mg/dL",
              "system": "http://unitsofmeasure.org"
            }
          }
        ],
        "text": {
          "status": "generated",
          "div": "<div xmlns=\"http://www.w3.org/1999/xhtml\"><table class=\"hl7__eu__lab__report\"><tr><th>Test</th><th>07-Apr-2023</th><th>Reference&#xA0;Range</th><th>Unit</th></tr><tr><td>Creatinine [Mass/volume] in Blood</td><td>0.7</td><td>0.6 - 1.3</td><td></td><td>mg/dL</td></tr></table></div>"
        },
        "status": "final",
        "subject": {
          "reference": "urn:uuid:51ca2ae4-4560-4ea3-ad7c-61db12285ebc",
          "display": "Bethany Begum"
        },
        "effectiveDateTime": "2023-04-07T11:40:40Z",
        "specimen": {
          "reference": "urn:uuid:a410e2d0-fd3e-4a39-9ab0-95b6befea3cd"
        }
      }
    },
    {
      "fullUrl": "urn:uuid:d5b09073-fe00-447c-8d68-eab3d53820a8",
      "resource": {
        "resourceType": "Observation",
        "id": "d5b09073-fe00-447c-8d68-eab3d53820a8",
        "meta": {
          "profile": [
            "http://hl7.eu/fhir/laboratory/StructureDefinition/Observation-resultslab-eu-lab"
          ]
        },
        "performer": [
          {
            "display": "The Central European Lab"
          }
        ],
        "category": [
          {
            "coding": [
              {
                "system": "http://terminology.hl7.org/CodeSystem/observation-category",
                "code": "laboratory"
              }
            ]
          }
        ],
        "code": {
          "coding": [
            {
              "code": "49765-1",
              "system": "http://loinc.org",
              "display": "Calcium [Mass/volume] in Blood"
            }
          ],
          "text": "Calcium [Mass/volume] in Blood"
        },
        "valueQuantity": {
          "system": "http://unitsofmeasure.org",
          "value": 8.7,
          "unit": "mg/dL",
          "code": "mg/dL"
        },
        "referenceRange": [
          {
            "low": {
              "value": 8.5,
              "code": "mg/dL",
              "system": "http://unitsofmeasure.org"
            }
          },
          {
            "high": {
              "value": 10.5,
              "code": "mg/dL",
              "system": "http://unitsofmeasure.org"
            }
          }
        ],
        "text": {
          "status": "generated",
          "div": "<div xmlns=\"http://www.w3.org/1999/xhtml\"><table class=\"hl7__eu__lab__report\"><tr><th>Test</th><th>07-Apr-2023</th><th>Reference&#xA0;Range</th><th>Unit</th></tr><tr><td>Calcium [Mass/volume] in Blood</td><td>8.7</td><td>8.5 - 10.5</td><td></td><td>mg/dL</td></tr></table></div>"
        },
        "status": "final",
        "subject": {
          "reference": "urn:uuid:51ca2ae4-4560-4ea3-ad7c-61db12285ebc",
          "display": "Bethany Begum"
        },
        "effectiveDateTime": "2023-04-07T11:40:40Z",
        "specimen": {
          "reference": "urn:uuid:a410e2d0-fd3e-4a39-9ab0-95b6befea3cd"
        }
      }
    },
    {
      "fullUrl": "urn:uuid:91578385-8b2d-4f61-b147-65ecd2897868",
      "resource": {
        "resourceType": "Observation",
        "id": "91578385-8b2d-4f61-b147-65ecd2897868",
        "meta": {
          "profile": [
            "http://hl7.eu/fhir/laboratory/StructureDefinition/Observation-resultslab-eu-lab"
          ]
        },
        "performer": [
          {
            "display": "The Central European Lab"
          }
        ],
        "category": [
          {
            "coding": [
              {
                "system": "http://terminology.hl7.org/CodeSystem/observation-category",
                "code": "laboratory"
              }
            ]
          }
        ],
        "code": {
          "coding": [
            {
              "code": "2947-0",
              "system": "http://loinc.org",
              "display": "Sodium [Moles/volume] in Blood"
            }
          ],
          "text": "Sodium [Moles/volume] in Blood"
        },
        "valueQuantity": {
          "system": "http://unitsofmeasure.org",
          "value": 140,
          "unit": "mmol/L",
          "code": "mmol/L"
        },
        "referenceRange": [
          {
            "low": {
              "value": 135,
              "code": "mmol/L",
              "system": "http://unitsofmeasure.org"
            }
          },
          {
            "high": {
              "value": 145,
              "code": "mmol/L",
              "system": "http://unitsofmeasure.org"
            }
          }
        ],
        "text": {
          "status": "generated",
          "div": "<div xmlns=\"http://www.w3.org/1999/xhtml\"><table class=\"hl7__eu__lab__report\"><tr><th>Test</th><th>07-Apr-2023</th><th>Reference&#xA0;Range</th><th>Unit</th></tr><tr><td>Sodium [Moles/volume] in Blood</td><td>140.0</td><td>135 - 145</td><td></td><td>mmol/L</td></tr></table></div>"
        },
        "status": "final",
        "subject": {
          "reference": "urn:uuid:51ca2ae4-4560-4ea3-ad7c-61db12285ebc",
          "display": "Bethany Begum"
        },
        "effectiveDateTime": "2023-04-07T11:40:40Z",
        "specimen": {
          "reference": "urn:uuid:a410e2d0-fd3e-4a39-9ab0-95b6befea3cd"
        }
      }
    },
    {
      "fullUrl": "urn:uuid:d0e99071-b8a1-4e57-b62e-90d5c1a4e1e0",
      "resource": {
        "resourceType": "Observation",
        "id": "d0e99071-b8a1-4e57-b62e-90d5c1a4e1e0",
        "meta": {
          "profile": [
            "http://hl7.eu/fhir/laboratory/StructureDefinition/Observation-resultslab-eu-lab"
          ]
        },
        "performer": [
          {
            "display": "The Central European Lab"
          }
        ],
        "category": [
          {
            "coding": [
              {
                "system": "http://terminology.hl7.org/CodeSystem/observation-category",
                "code": "laboratory"
              }
            ]
          }
        ],
        "code": {
          "coding": [
            {
              "code": "6298-4",
              "system": "http://loinc.org",
              "display": "Potassium [Moles/volume] in Blood"
            }
          ],
          "text": "Potassium [Moles/volume] in Blood"
        },
        "valueQuantity": {
          "system": "http://unitsofmeasure.org",
          "value": 5.1,
          "unit": "mmol/L",
          "code": "mmol/L"
        },
        "referenceRange": [
          {
            "low": {
              "value": 3.5,
              "code": "mmol/L",
              "system": "http://unitsofmeasure.org"
            }
          },
          {
            "high": {
              "value": 5.1,
              "code": "mmol/L",
              "system": "http://unitsofmeasure.org"
            }
          }
        ],
        "text": {
          "status": "generated",
          "div": "<div xmlns=\"http://www.w3.org/1999/xhtml\"><table class=\"hl7__eu__lab__report\"><tr><th>Test</th><th>07-Apr-2023</th><th>Reference&#xA0;Range</th><th>Unit</th></tr><tr><td>Potassium [Moles/volume] in Blood</td><td>5.1</td><td>3.5 - 5.1</td><td></td><td>mmol/L</td></tr></table></div>"
        },
        "status": "final",
        "subject": {
          "reference": "urn:uuid:51ca2ae4-4560-4ea3-ad7c-61db12285ebc",
          "display": "Bethany Begum"
        },
        "effectiveDateTime": "2023-04-07T11:40:40Z",
        "specimen": {
          "reference": "urn:uuid:a410e2d0-fd3e-4a39-9ab0-95b6befea3cd"
        }
      }
    },
    {
      "fullUrl": "urn:uuid:ae3d85a2-c969-44bd-87ca-33a9ca58d34a",
      "resource": {
        "resourceType": "Observation",
        "id": "ae3d85a2-c969-44bd-87ca-33a9ca58d34a",
        "meta": {
          "profile": [
            "http://hl7.eu/fhir/laboratory/StructureDefinition/Observation-resultslab-eu-lab"
          ]
        },
        "performer": [
          {
            "display": "The Central European Lab"
          }
        ],
        "category": [
          {
            "coding": [
              {
                "system": "http://terminology.hl7.org/CodeSystem/observation-category",
                "code": "laboratory"
              }
            ]
          }
        ],
        "code": {
          "coding": [
            {
              "code": "2069-3",
              "system": "http://loinc.org",
              "display": "Chloride [Moles/volume] in Blood"
            }
          ],
          "text": "Chloride [Moles/volume] in Blood"
        },
        "valueQuantity": {
          "system": "http://unitsofmeasure.org",
          "value": 107.6,
          "unit": "mmol/L",
          "code": "mmol/L"
        },
        "referenceRange": [
          {
            "low": {
              "value": 98,
              "code": "mmol/L",
              "system": "http://unitsofmeasure.org"
            }
          },
          {
            "high": {
              "value": 108,
              "code": "mmol/L",
              "system": "http://unitsofmeasure.org"
            }
          }
        ],
        "text": {
          "status": "generated",
          "div": "<div xmlns=\"http://www.w3.org/1999/xhtml\"><table class=\"hl7__eu__lab__report\"><tr><th>Test</th><th>07-Apr-2023</th><th>Reference&#xA0;Range</th><th>Unit</th></tr><tr><td>Chloride [Moles/volume] in Blood</td><td>107.6</td><td>98 - 108</td><td></td><td>mmol/L</td></tr></table></div>"
        },
        "status": "final",
        "subject": {
          "reference": "urn:uuid:51ca2ae4-4560-4ea3-ad7c-61db12285ebc",
          "display": "Bethany Begum"
        },
        "effectiveDateTime": "2023-04-07T11:40:40Z",
        "specimen": {
          "reference": "urn:uuid:a410e2d0-fd3e-4a39-9ab0-95b6befea3cd"
        }
      }
    },
    {
      "fullUrl": "urn:uuid:732313a7-8c9e-425c-a4b0-f526cc976d38",
      "resource": {
        "resourceType": "Observation",
        "id": "732313a7-8c9e-425c-a4b0-f526cc976d38",
        "meta": {
          "profile": [
            "http://hl7.eu/fhir/laboratory/StructureDefinition/Observation-resultslab-eu-lab"
          ]
        },
        "performer": [
          {
            "display": "The Central European Lab"
          }
        ],
        "category": [
          {
            "coding": [
              {
                "system": "http://terminology.hl7.org/CodeSystem/observation-category",
                "code": "laboratory"
              }
            ]
          }
        ],
        "code": {
          "coding": [
            {
              "code": "20565-8",
              "system": "http://loinc.org",
              "display": "Carbon dioxide, total [Moles/volume] in Blood"
            }
          ],
          "text": "Carbon dioxide, total [Moles/volume] in Blood"
        },
        "valueQuantity": {
          "system": "http://unitsofmeasure.org",
          "value": 21.1,
          "unit": "mmol/L",
          "code": "mmol/L"
        },
        "referenceRange": [
          {
            "low": {
              "value": 22,
              "code": "mmol/L",
              "system": "http://unitsofmeasure.org"
            }
          },
          {
            "high": {
              "value": 29,
              "code": "mmol/L",
              "system": "http://unitsofmeasure.org"
            }
          }
        ],
        "interpretation": [
          {
            "coding": [
              {
                "code": "L",
                "system": "http://terminology.hl7.org/CodeSystem/v3-ObservationInterpretation",
                "display": "Low"
              }
            ]
          }
        ],
        "text": {
          "status": "generated",
          "div": "<div xmlns=\"http://www.w3.org/1999/xhtml\"><table class=\"hl7__eu__lab__report\"><tr><th>Test</th><th>07-Apr-2023</th><th>Reference&#xA0;Range</th><th>Unit</th></tr><tr><td>Carbon dioxide, total [Moles/volume] in Blood</td><td>21.1</td><td>22 - 29</td><td>L</td><td>mmol/L</td></tr></table></div>"
        },
        "status": "final",
        "subject": {
          "reference": "urn:uuid:51ca2ae4-4560-4ea3-ad7c-61db12285ebc",
          "display": "Bethany Begum"
        },
        "effectiveDateTime": "2023-04-07T11:40:40Z",
        "specimen": {
          "reference": "urn:uuid:a410e2d0-fd3e-4a39-9ab0-95b6befea3cd"
        }
      }
    },
    {
      "fullUrl": "urn:uuid:26cb4fc9-04ea-49b2-ae7a-6fbc68dd59ee",
      "resource": {
        "resourceType": "Observation",
        "id": "26cb4fc9-04ea-49b2-ae7a-6fbc68dd59ee",
        "meta": {
          "profile": [
            "http://hl7.eu/fhir/laboratory/StructureDefinition/Observation-resultslab-eu-lab"
          ]
        },
        "performer": [
          {
            "display": "The Central European Lab"
          }
        ],
        "category": [
          {
            "coding": [
              {
                "system": "http://terminology.hl7.org/CodeSystem/observation-category",
                "code": "laboratory"
              }
            ]
          }
        ],
        "code": {
          "coding": [
            {
              "code": "2093-3",
              "system": "http://loinc.org",
              "display": "Cholesterol [Mass/volume] in Serum or Plasma"
            }
          ],
          "text": "Cholesterol [Mass/volume] in Serum or Plasma"
        },
        "valueQuantity": {
          "system": "http://unitsofmeasure.org",
          "value": 179,
          "unit": "mg/dL",
          "code": "mg/dL"
        },
        "referenceRange": [
          {
            "low": {
              "value": 125,
              "code": "mg/dL",
              "system": "http://unitsofmeasure.org"
            }
          },
          {
            "high": {
              "value": 200,
              "code": "mg/dL",
              "system": "http://unitsofmeasure.org"
            }
          }
        ],
        "text": {
          "status": "generated",
          "div": "<div xmlns=\"http://www.w3.org/1999/xhtml\"><table class=\"hl7__eu__lab__report\"><tr><th>Test</th><th>07-Apr-2023</th><th>Reference&#xA0;Range</th><th>Unit</th></tr><tr><td>Cholesterol [Mass/volume] in Serum or Plasma</td><td>179.0</td><td>125 - 200</td><td></td><td>mg/dL</td></tr></table></div>"
        },
        "status": "final",
        "subject": {
          "reference": "urn:uuid:51ca2ae4-4560-4ea3-ad7c-61db12285ebc",
          "display": "Bethany Begum"
        },
        "effectiveDateTime": "2023-04-07T11:40:40Z",
        "specimen": {
          "reference": "urn:uuid:28afbf4d-eedd-45de-b9c5-cb36ef614b78"
        }
      }
    },
    {
      "fullUrl": "urn:uuid:c3b45514-ad9a-4fe2-928d-e79c12ea0826",
      "resource": {
        "resourceType": "Observation",
        "id": "c3b45514-ad9a-4fe2-928d-e79c12ea0826",
        "meta": {
          "profile": [
            "http://hl7.eu/fhir/laboratory/StructureDefinition/Observation-resultslab-eu-lab"
          ]
        },
        "performer": [
          {
            "display": "The Central European Lab"
          }
        ],
        "category": [
          {
            "coding": [
              {
                "system": "http://terminology.hl7.org/CodeSystem/observation-category",
                "code": "laboratory"
              }
            ]
          }
        ],
        "code": {
          "coding": [
            {
              "code": "2571-8",
              "system": "http://loinc.org",
              "display": "Triglyceride [Mass/volume] in Serum or Plasma"
            }
          ],
          "text": "Triglyceride [Mass/volume] in Serum or Plasma"
        },
        "valueQuantity": {
          "system": "http://unitsofmeasure.org",
          "value": 124.9,
          "unit": "mg/dL",
          "code": "mg/dL"
        },
        "referenceRange": [
          {
            "low": {
              "value": 35,
              "code": "mg/dL",
              "system": "http://unitsofmeasure.org"
            }
          },
          {
            "high": {
              "value": 150,
              "code": "mg/dL",
              "system": "http://unitsofmeasure.org"
            }
          }
        ],
        "text": {
          "status": "generated",
          "div": "<div xmlns=\"http://www.w3.org/1999/xhtml\"><table class=\"hl7__eu__lab__report\"><tr><th>Test</th><th>07-Apr-2023</th><th>Reference&#xA0;Range</th><th>Unit</th></tr><tr><td>Triglyceride [Mass/volume] in Serum or Plasma</td><td>124.9</td><td>35 - 150</td><td></td><td>mg/dL</td></tr></table></div>"
        },
        "status": "final",
        "subject": {
          "reference": "urn:uuid:51ca2ae4-4560-4ea3-ad7c-61db12285ebc",
          "display": "Bethany Begum"
        },
        "effectiveDateTime": "2023-04-07T11:40:40Z",
        "specimen": {
          "reference": "urn:uuid:28afbf4d-eedd-45de-b9c5-cb36ef614b78"
        }
      }
    },
    {
      "fullUrl": "urn:uuid:3479d403-cd23-4f60-900d-4a0e1133285f",
      "resource": {
        "resourceType": "Observation",
        "id": "3479d403-cd23-4f60-900d-4a0e1133285f",
        "meta": {
          "profile": [
            "http://hl7.eu/fhir/laboratory/StructureDefinition/Observation-resultslab-eu-lab"
          ]
        },
        "performer": [
          {
            "display": "The Central European Lab"
          }
        ],
        "category": [
          {
            "coding": [
              {
                "system": "http://terminology.hl7.org/CodeSystem/observation-category",
                "code": "laboratory"
              }
            ]
          }
        ],
        "code": {
          "coding": [
            {
              "code": "18262-6",
              "system": "http://loinc.org",
              "display": "Cholesterol in LDL [Mass/volume] in Serum or Plasma by Direct assay"
            }
          ],
          "text": "Cholesterol in LDL [Mass/volume] in Serum or Plasma by Direct assay"
        },
        "valueQuantity": {
          "system": "http://unitsofmeasure.org",
          "value": 93.2,
          "unit": "mg/dL",
          "code": "mg/dL"
        },
        "referenceRange": [
          {
            "low": {
              "value": 0,
              "code": "mg/dL",
              "system": "http://unitsofmeasure.org"
            }
          },
          {
            "high": {
              "value": 130,
              "code": "mg/dL",
              "system": "http://unitsofmeasure.org"
            }
          }
        ],
        "text": {
          "status": "generated",
          "div": "<div xmlns=\"http://www.w3.org/1999/xhtml\"><table class=\"hl7__eu__lab__report\"><tr><th>Test</th><th>07-Apr-2023</th><th>Reference&#xA0;Range</th><th>Unit</th></tr><tr><td>Cholesterol in LDL [Mass/volume] in Serum or Plasma by Direct assay</td><td>93.2</td><td>0 - 130</td><td></td><td>mg/dL</td></tr></table></div>"
        },
        "status": "final",
        "subject": {
          "reference": "urn:uuid:51ca2ae4-4560-4ea3-ad7c-61db12285ebc",
          "display": "Bethany Begum"
        },
        "effectiveDateTime": "2023-04-07T11:40:40Z",
        "specimen": {
          "reference": "urn:uuid:28afbf4d-eedd-45de-b9c5-cb36ef614b78"
        }
      }
    },
    {
      "fullUrl": "urn:uuid:dce6d982-2d43-4ea0-9b42-7909260d1b7d",
      "resource": {
        "resourceType": "Observation",
        "id": "dce6d982-2d43-4ea0-9b42-7909260d1b7d",
        "meta": {
          "profile": [
            "http://hl7.eu/fhir/laboratory/StructureDefinition/Observation-resultslab-eu-lab"
          ]
        },
        "performer": [
          {
            "display": "The Central European Lab"
          }
        ],
        "category": [
          {
            "coding": [
              {
                "system": "http://terminology.hl7.org/CodeSystem/observation-category",
                "code": "laboratory"
              }
            ]
          }
        ],
        "code": {
          "coding": [
            {
              "code": "2085-9",
              "system": "http://loinc.org",
              "display": "Cholesterol in HDL [Mass/volume] in Serum or Plasma"
            }
          ],
          "text": "Cholesterol in HDL [Mass/volume] in Serum or Plasma"
        },
        "valueQuantity": {
          "system": "http://unitsofmeasure.org",
          "value": 60.9,
          "unit": "mg/dL",
          "code": "mg/dL"
        },
        "referenceRange": [
          {
            "low": {
              "value": 40,
              "code": "mg/dL",
              "system": "http://unitsofmeasure.org"
            }
          },
          {
            "high": {
              "value": 60,
              "code": "mg/dL",
              "system": "http://unitsofmeasure.org"
            }
          }
        ],
        "interpretation": [
          {
            "coding": [
              {
                "code": "H",
                "system": "http://terminology.hl7.org/CodeSystem/v3-ObservationInterpretation",
                "display": "High"
              }
            ]
          }
        ],
        "text": {
          "status": "generated",
          "div": "<div xmlns=\"http://www.w3.org/1999/xhtml\"><table class=\"hl7__eu__lab__report\"><tr><th>Test</th><th>07-Apr-2023</th><th>Reference&#xA0;Range</th><th>Unit</th></tr><tr><td>Cholesterol in HDL [Mass/volume] in Serum or Plasma</td><td>60.9</td><td>40 - 60</td><td>H</td><td>mg/dL</td></tr></table></div>"
        },
        "status": "final",
        "subject": {
          "reference": "urn:uuid:51ca2ae4-4560-4ea3-ad7c-61db12285ebc",
          "display": "Bethany Begum"
        },
        "effectiveDateTime": "2023-04-07T11:40:40Z",
        "specimen": {
          "reference": "urn:uuid:28afbf4d-eedd-45de-b9c5-cb36ef614b78"
        }
      }
    },
    {
      "fullUrl": "urn:uuid:38ab2b48-3137-4213-8975-c9d13043ccbe",
      "resource": {
        "resourceType": "Observation",
        "id": "38ab2b48-3137-4213-8975-c9d13043ccbe",
        "meta": {
          "profile": [
            "http://hl7.eu/fhir/laboratory/StructureDefinition/Observation-resultslab-eu-lab"
          ]
        },
        "performer": [
          {
            "display": "The Central European Lab"
          }
        ],
        "category": [
          {
            "coding": [
              {
                "system": "http://terminology.hl7.org/CodeSystem/observation-category",
                "code": "laboratory"
              }
            ]
          }
        ],
        "code": {
          "coding": [
            {
              "code": "6690-2",
              "system": "http://loinc.org",
              "display": "Leukocytes [#/volume] in Blood by Automated count"
            }
          ],
          "text": "Leukocytes [#/volume] in Blood by Automated count"
        },
        "valueQuantity": {
          "system": "http://unitsofmeasure.org",
          "value": 10,
          "unit": "10*3/uL",
          "code": "10*3/uL"
        },
        "referenceRange": [
          {
            "low": {
              "value": 3.4,
              "code": "10*3/uL",
              "system": "http://unitsofmeasure.org"
            }
          },
          {
            "high": {
              "value": 10.5,
              "code": "10*3/uL",
              "system": "http://unitsofmeasure.org"
            }
          }
        ],
        "text": {
          "status": "generated",
          "div": "<div xmlns=\"http://www.w3.org/1999/xhtml\"><table class=\"hl7__eu__lab__report\"><tr><th>Test</th><th>07-Apr-2023</th><th>Reference&#xA0;Range</th><th>Unit</th></tr><tr><td>Leukocytes [#/volume] in Blood by Automated count</td><td>10.0</td><td>3.4 - 10.5</td><td></td><td>10*3/uL</td></tr></table></div>"
        },
        "status": "final",
        "subject": {
          "reference": "urn:uuid:51ca2ae4-4560-4ea3-ad7c-61db12285ebc",
          "display": "Bethany Begum"
        },
        "effectiveDateTime": "2023-04-07T11:40:40Z",
        "specimen": {
          "reference": "urn:uuid:a410e2d0-fd3e-4a39-9ab0-95b6befea3cd"
        }
      }
    },
    {
      "fullUrl": "urn:uuid:cbf09822-425c-4a7e-b644-780c1a0d7711",
      "resource": {
        "resourceType": "Observation",
        "id": "cbf09822-425c-4a7e-b644-780c1a0d7711",
        "meta": {
          "profile": [
            "http://hl7.eu/fhir/laboratory/StructureDefinition/Observation-resultslab-eu-lab"
          ]
        },
        "performer": [
          {
            "display": "The Central European Lab"
          }
        ],
        "category": [
          {
            "coding": [
              {
                "system": "http://terminology.hl7.org/CodeSystem/observation-category",
                "code": "laboratory"
              }
            ]
          }
        ],
        "code": {
          "coding": [
            {
              "code": "789-8",
              "system": "http://loinc.org",
              "display": "Erythrocytes [#/volume] in Blood by Automated count"
            }
          ],
          "text": "Erythrocytes [#/volume] in Blood by Automated count"
        },
        "valueQuantity": {
          "system": "http://unitsofmeasure.org",
          "value": 5.1,
          "unit": "10*6/uL",
          "code": "10*6/uL"
        },
        "referenceRange": [
          {
            "low": {
              "value": 3.9,
              "code": "10*6/uL",
              "system": "http://unitsofmeasure.org"
            }
          },
          {
            "high": {
              "value": 5.4,
              "code": "10*6/uL",
              "system": "http://unitsofmeasure.org"
            }
          }
        ],
        "text": {
          "status": "generated",
          "div": "<div xmlns=\"http://www.w3.org/1999/xhtml\"><table class=\"hl7__eu__lab__report\"><tr><th>Test</th><th>07-Apr-2023</th><th>Reference&#xA0;Range</th><th>Unit</th></tr><tr><td>Erythrocytes [#/volume] in Blood by Automated count</td><td>5.1</td><td>3.9 - 5.4</td><td></td><td>10*6/uL</td></tr></table></div>"
        },
        "status": "final",
        "subject": {
          "reference": "urn:uuid:51ca2ae4-4560-4ea3-ad7c-61db12285ebc",
          "display": "Bethany Begum"
        },
        "effectiveDateTime": "2023-04-07T11:40:40Z",
        "specimen": {
          "reference": "urn:uuid:a410e2d0-fd3e-4a39-9ab0-95b6befea3cd"
        }
      }
    },
    {
      "fullUrl": "urn:uuid:343cb01d-f4d9-47d1-8de6-a68f3c6a8520",
      "resource": {
        "resourceType": "Observation",
        "id": "343cb01d-f4d9-47d1-8de6-a68f3c6a8520",
        "meta": {
          "profile": [
            "http://hl7.eu/fhir/laboratory/StructureDefinition/Observation-resultslab-eu-lab"
          ]
        },
        "performer": [
          {
            "display": "The Central European Lab"
          }
        ],
        "category": [
          {
            "coding": [
              {
                "system": "http://terminology.hl7.org/CodeSystem/observation-category",
                "code": "laboratory"
              }
            ]
          }
        ],
        "code": {
          "coding": [
            {
              "code": "718-7",
              "system": "http://loinc.org",
              "display": "Hemoglobin [Mass/volume] in Blood"
            }
          ],
          "text": "Hemoglobin [Mass/volume] in Blood"
        },
        "valueQuantity": {
          "system": "http://unitsofmeasure.org",
          "value": 12.5,
          "unit": "g/dL",
          "code": "g/dL"
        },
        "referenceRange": [
          {
            "low": {
              "value": 12,
              "code": "g/dL",
              "system": "http://unitsofmeasure.org"
            }
          },
          {
            "high": {
              "value": 16,
              "code": "g/dL",
              "system": "http://unitsofmeasure.org"
            }
          }
        ],
        "text": {
          "status": "generated",
          "div": "<div xmlns=\"http://www.w3.org/1999/xhtml\"><table class=\"hl7__eu__lab__report\"><tr><th>Test</th><th>07-Apr-2023</th><th>Reference&#xA0;Range</th><th>Unit</th></tr><tr><td>Hemoglobin [Mass/volume] in Blood</td><td>12.5</td><td>12 - 16</td><td></td><td>g/dL</td></tr></table></div>"
        },
        "status": "final",
        "subject": {
          "reference": "urn:uuid:51ca2ae4-4560-4ea3-ad7c-61db12285ebc",
          "display": "Bethany Begum"
        },
        "effectiveDateTime": "2023-04-07T11:40:40Z",
        "specimen": {
          "reference": "urn:uuid:a410e2d0-fd3e-4a39-9ab0-95b6befea3cd"
        }
      }
    },
    {
      "fullUrl": "urn:uuid:e6f25395-b272-4170-bad0-bc794da1d5eb",
      "resource": {
        "resourceType": "Observation",
        "id": "e6f25395-b272-4170-bad0-bc794da1d5eb",
        "meta": {
          "profile": [
            "http://hl7.eu/fhir/laboratory/StructureDefinition/Observation-resultslab-eu-lab"
          ]
        },
        "performer": [
          {
            "display": "The Central European Lab"
          }
        ],
        "category": [
          {
            "coding": [
              {
                "system": "http://terminology.hl7.org/CodeSystem/observation-category",
                "code": "laboratory"
              }
            ]
          }
        ],
        "code": {
          "coding": [
            {
              "code": "4544-3",
              "system": "http://loinc.org",
              "display": "Hematocrit [Volume Fraction] of Blood by Automated count"
            }
          ],
          "text": "Hematocrit [Volume Fraction] of Blood by Automated count"
        },
        "valueQuantity": {
          "system": "http://unitsofmeasure.org",
          "value": 41.7,
          "unit": "%",
          "code": "%"
        },
        "referenceRange": [
          {
            "low": {
              "value": 38,
              "code": "%",
              "system": "http://unitsofmeasure.org"
            }
          },
          {
            "high": {
              "value": 54,
              "code": "%",
              "system": "http://unitsofmeasure.org"
            }
          }
        ],
        "text": {
          "status": "generated",
          "div": "<div xmlns=\"http://www.w3.org/1999/xhtml\"><table class=\"hl7__eu__lab__report\"><tr><th>Test</th><th>07-Apr-2023</th><th>Reference&#xA0;Range</th><th>Unit</th></tr><tr><td>Hematocrit [Volume Fraction] of Blood by Automated count</td><td>41.7</td><td>38 - 54</td><td></td><td>%</td></tr></table></div>"
        },
        "status": "final",
        "subject": {
          "reference": "urn:uuid:51ca2ae4-4560-4ea3-ad7c-61db12285ebc",
          "display": "Bethany Begum"
        },
        "effectiveDateTime": "2023-04-07T11:40:40Z",
        "specimen": {
          "reference": "urn:uuid:a410e2d0-fd3e-4a39-9ab0-95b6befea3cd"
        }
      }
    },
    {
      "fullUrl": "urn:uuid:cc64591f-04bc-4b8e-92b8-0dabdc200dc1",
      "resource": {
        "resourceType": "Observation",
        "id": "cc64591f-04bc-4b8e-92b8-0dabdc200dc1",
        "meta": {
          "profile": [
            "http://hl7.eu/fhir/laboratory/StructureDefinition/Observation-resultslab-eu-lab"
          ]
        },
        "performer": [
          {
            "display": "The Central European Lab"
          }
        ],
        "category": [
          {
            "coding": [
              {
                "system": "http://terminology.hl7.org/CodeSystem/observation-category",
                "code": "laboratory"
              }
            ]
          }
        ],
        "code": {
          "coding": [
            {
              "code": "787-2",
              "system": "http://loinc.org",
              "display": "MCV [Entitic volume] by Automated count"
            }
          ],
          "text": "MCV [Entitic volume] by Automated count"
        },
        "valueQuantity": {
          "system": "http://unitsofmeasure.org",
          "value": 85.2,
          "unit": "fL",
          "code": "fL"
        },
        "referenceRange": [
          {
            "low": {
              "value": 82,
              "code": "fL",
              "system": "http://unitsofmeasure.org"
            }
          },
          {
            "high": {
              "value": 98,
              "code": "fL",
              "system": "http://unitsofmeasure.org"
            }
          }
        ],
        "text": {
          "status": "generated",
          "div": "<div xmlns=\"http://www.w3.org/1999/xhtml\"><table class=\"hl7__eu__lab__report\"><tr><th>Test</th><th>07-Apr-2023</th><th>Reference&#xA0;Range</th><th>Unit</th></tr><tr><td>MCV [Entitic volume] by Automated count</td><td>85.2</td><td>82 - 98</td><td></td><td>fL</td></tr></table></div>"
        },
        "status": "final",
        "subject": {
          "reference": "urn:uuid:51ca2ae4-4560-4ea3-ad7c-61db12285ebc",
          "display": "Bethany Begum"
        },
        "effectiveDateTime": "2023-04-07T11:40:40Z",
        "specimen": {
          "reference": "urn:uuid:a410e2d0-fd3e-4a39-9ab0-95b6befea3cd"
        }
      }
    },
    {
      "fullUrl": "urn:uuid:c4a4aafe-5200-4665-b39f-ca50880be0e3",
      "resource": {
        "resourceType": "Observation",
        "id": "c4a4aafe-5200-4665-b39f-ca50880be0e3",
        "meta": {
          "profile": [
            "http://hl7.eu/fhir/laboratory/StructureDefinition/Observation-resultslab-eu-lab"
          ]
        },
        "performer": [
          {
            "display": "The Central European Lab"
          }
        ],
        "category": [
          {
            "coding": [
              {
                "system": "http://terminology.hl7.org/CodeSystem/observation-category",
                "code": "laboratory"
              }
            ]
          }
        ],
        "code": {
          "coding": [
            {
              "code": "785-6",
              "system": "http://loinc.org",
              "display": "MCH [Entitic mass] by Automated count"
            }
          ],
          "text": "MCH [Entitic mass] by Automated count"
        },
        "valueQuantity": {
          "system": "http://unitsofmeasure.org",
          "value": 30.8,
          "unit": "pg",
          "code": "pg"
        },
        "referenceRange": [
          {
            "low": {
              "value": 27,
              "code": "pg",
              "system": "http://unitsofmeasure.org"
            }
          },
          {
            "high": {
              "value": 34,
              "code": "pg",
              "system": "http://unitsofmeasure.org"
            }
          }
        ],
        "text": {
          "status": "generated",
          "div": "<div xmlns=\"http://www.w3.org/1999/xhtml\"><table class=\"hl7__eu__lab__report\"><tr><th>Test</th><th>07-Apr-2023</th><th>Reference&#xA0;Range</th><th>Unit</th></tr><tr><td>MCH [Entitic mass] by Automated count</td><td>30.8</td><td>27 - 34</td><td></td><td>pg</td></tr></table></div>"
        },
        "status": "final",
        "subject": {
          "reference": "urn:uuid:51ca2ae4-4560-4ea3-ad7c-61db12285ebc",
          "display": "Bethany Begum"
        },
        "effectiveDateTime": "2023-04-07T11:40:40Z",
        "specimen": {
          "reference": "urn:uuid:a410e2d0-fd3e-4a39-9ab0-95b6befea3cd"
        }
      }
    },
    {
      "fullUrl": "urn:uuid:13af8926-466b-4b28-bff6-d50d35c02a03",
      "resource": {
        "resourceType": "Observation",
        "id": "13af8926-466b-4b28-bff6-d50d35c02a03",
        "meta": {
          "profile": [
            "http://hl7.eu/fhir/laboratory/StructureDefinition/Observation-resultslab-eu-lab"
          ]
        },
        "performer": [
          {
            "display": "The Central European Lab"
          }
        ],
        "category": [
          {
            "coding": [
              {
                "system": "http://terminology.hl7.org/CodeSystem/observation-category",
                "code": "laboratory"
              }
            ]
          }
        ],
        "code": {
          "coding": [
            {
              "code": "786-4",
              "system": "http://loinc.org",
              "display": "MCHC [Mass/volume] by Automated count"
            }
          ],
          "text": "MCHC [Mass/volume] by Automated count"
        },
        "valueQuantity": {
          "system": "http://unitsofmeasure.org",
          "value": 35.5,
          "unit": "g/dL",
          "code": "g/dL"
        },
        "referenceRange": [
          {
            "low": {
              "value": 32,
              "code": "g/dL",
              "system": "http://unitsofmeasure.org"
            }
          },
          {
            "high": {
              "value": 37,
              "code": "g/dL",
              "system": "http://unitsofmeasure.org"
            }
          }
        ],
        "text": {
          "status": "generated",
          "div": "<div xmlns=\"http://www.w3.org/1999/xhtml\"><table class=\"hl7__eu__lab__report\"><tr><th>Test</th><th>07-Apr-2023</th><th>Reference&#xA0;Range</th><th>Unit</th></tr><tr><td>MCHC [Mass/volume] by Automated count</td><td>35.5</td><td>32 - 37</td><td></td><td>g/dL</td></tr></table></div>"
        },
        "status": "final",
        "subject": {
          "reference": "urn:uuid:51ca2ae4-4560-4ea3-ad7c-61db12285ebc",
          "display": "Bethany Begum"
        },
        "effectiveDateTime": "2023-04-07T11:40:40Z",
        "specimen": {
          "reference": "urn:uuid:a410e2d0-fd3e-4a39-9ab0-95b6befea3cd"
        }
      }
    },
    {
      "fullUrl": "urn:uuid:03f25dde-293c-4490-a011-2d3feba263aa",
      "resource": {
        "resourceType": "Observation",
        "id": "03f25dde-293c-4490-a011-2d3feba263aa",
        "meta": {
          "profile": [
            "http://hl7.eu/fhir/laboratory/StructureDefinition/Observation-resultslab-eu-lab"
          ]
        },
        "performer": [
          {
            "display": "The Central European Lab"
          }
        ],
        "category": [
          {
            "coding": [
              {
                "system": "http://terminology.hl7.org/CodeSystem/observation-category",
                "code": "laboratory"
              }
            ]
          }
        ],
        "code": {
          "coding": [
            {
              "code": "21000-5",
              "system": "http://loinc.org",
              "display": "Erythrocyte distribution width [Entitic volume] by Automated count"
            }
          ],
          "text": "Erythrocyte distribution width [Entitic volume] by Automated count"
        },
        "valueQuantity": {
          "system": "http://unitsofmeasure.org",
          "value": 45.9,
          "unit": "fL",
          "code": "fL"
        },
        "referenceRange": [
          {
            "low": {
              "value": 36,
              "code": "fL",
              "system": "http://unitsofmeasure.org"
            }
          },
          {
            "high": {
              "value": 55,
              "code": "fL",
              "system": "http://unitsofmeasure.org"
            }
          }
        ],
        "text": {
          "status": "generated",
          "div": "<div xmlns=\"http://www.w3.org/1999/xhtml\"><table class=\"hl7__eu__lab__report\"><tr><th>Test</th><th>07-Apr-2023</th><th>Reference&#xA0;Range</th><th>Unit</th></tr><tr><td>Erythrocyte distribution width [Entitic volume] by Automated count</td><td>45.9</td><td>36 - 55</td><td></td><td>fL</td></tr></table></div>"
        },
        "status": "final",
        "subject": {
          "reference": "urn:uuid:51ca2ae4-4560-4ea3-ad7c-61db12285ebc",
          "display": "Bethany Begum"
        },
        "effectiveDateTime": "2023-04-07T11:40:40Z",
        "specimen": {
          "reference": "urn:uuid:a410e2d0-fd3e-4a39-9ab0-95b6befea3cd"
        }
      }
    },
    {
      "fullUrl": "urn:uuid:5905f0c2-1d62-4cf8-b349-e0810338749d",
      "resource": {
        "resourceType": "Observation",
        "id": "5905f0c2-1d62-4cf8-b349-e0810338749d",
        "meta": {
          "profile": [
            "http://hl7.eu/fhir/laboratory/StructureDefinition/Observation-resultslab-eu-lab"
          ]
        },
        "performer": [
          {
            "display": "The Central European Lab"
          }
        ],
        "category": [
          {
            "coding": [
              {
                "system": "http://terminology.hl7.org/CodeSystem/observation-category",
                "code": "laboratory"
              }
            ]
          }
        ],
        "code": {
          "coding": [
            {
              "code": "777-3",
              "system": "http://loinc.org",
              "display": "Platelets [#/volume] in Blood by Automated count"
            }
          ],
          "text": "Platelets [#/volume] in Blood by Automated count"
        },
        "valueQuantity": {
          "system": "http://unitsofmeasure.org",
          "value": 261.4,
          "unit": "10*3/uL",
          "code": "10*3/uL"
        },
        "referenceRange": [
          {
            "low": {
              "value": 140,
              "code": "10*3/uL",
              "system": "http://unitsofmeasure.org"
            }
          },
          {
            "high": {
              "value": 424,
              "code": "10*3/uL",
              "system": "http://unitsofmeasure.org"
            }
          }
        ],
        "text": {
          "status": "generated",
          "div": "<div xmlns=\"http://www.w3.org/1999/xhtml\"><table class=\"hl7__eu__lab__report\"><tr><th>Test</th><th>07-Apr-2023</th><th>Reference&#xA0;Range</th><th>Unit</th></tr><tr><td>Platelets [#/volume] in Blood by Automated count</td><td>261.4</td><td>140 - 424</td><td></td><td>10*3/uL</td></tr></table></div>"
        },
        "status": "final",
        "subject": {
          "reference": "urn:uuid:51ca2ae4-4560-4ea3-ad7c-61db12285ebc",
          "display": "Bethany Begum"
        },
        "effectiveDateTime": "2023-04-07T11:40:40Z",
        "specimen": {
          "reference": "urn:uuid:a410e2d0-fd3e-4a39-9ab0-95b6befea3cd"
        }
      }
    },
    {
      "fullUrl": "urn:uuid:e96486c0-53c9-45c9-9ed9-4dd7ceef82d3",
      "resource": {
        "resourceType": "Observation",
        "id": "e96486c0-53c9-45c9-9ed9-4dd7ceef82d3",
        "meta": {
          "profile": [
            "http://hl7.eu/fhir/laboratory/StructureDefinition/Observation-resultslab-eu-lab"
          ]
        },
        "performer": [
          {
            "display": "The Central European Lab"
          }
        ],
        "category": [
          {
            "coding": [
              {
                "system": "http://terminology.hl7.org/CodeSystem/observation-category",
                "code": "laboratory"
              }
            ]
          }
        ],
        "code": {
          "coding": [
            {
              "code": "32207-3",
              "system": "http://loinc.org",
              "display": "Platelet distribution width [Entitic volume] in Blood by Automated count"
            }
          ],
          "text": "Platelet distribution width [Entitic volume] in Blood by Automated count"
        },
        "valueQuantity": {
          "system": "http://unitsofmeasure.org",
          "value": 400.9,
          "unit": "fL",
          "code": "fL"
        },
        "referenceRange": [
          {
            "low": {
              "value": 13.4,
              "code": "fL",
              "system": "http://unitsofmeasure.org"
            }
          },
          {
            "high": {
              "value": 17.4,
              "code": "fL",
              "system": "http://unitsofmeasure.org"
            }
          }
        ],
        "interpretation": [
          {
            "coding": [
              {
                "code": "H",
                "system": "http://terminology.hl7.org/CodeSystem/v3-ObservationInterpretation",
                "display": "High"
              }
            ]
          }
        ],
        "text": {
          "status": "generated",
          "div": "<div xmlns=\"http://www.w3.org/1999/xhtml\"><table class=\"hl7__eu__lab__report\"><tr><th>Test</th><th>07-Apr-2023</th><th>Reference&#xA0;Range</th><th>Unit</th></tr><tr><td>Platelet distribution width [Entitic volume] in Blood by Automated count</td><td>400.9</td><td>13.4 - 17.4</td><td>H</td><td>fL</td></tr></table></div>"
        },
        "status": "final",
        "subject": {
          "reference": "urn:uuid:51ca2ae4-4560-4ea3-ad7c-61db12285ebc",
          "display": "Bethany Begum"
        },
        "effectiveDateTime": "2023-04-07T11:40:40Z",
        "specimen": {
          "reference": "urn:uuid:a410e2d0-fd3e-4a39-9ab0-95b6befea3cd"
        }
      }
    },
    {
      "fullUrl": "urn:uuid:ce52118f-7bb3-4803-b5a8-2972e1d462c7",
      "resource": {
        "resourceType": "Observation",
        "id": "ce52118f-7bb3-4803-b5a8-2972e1d462c7",
        "meta": {
          "profile": [
            "http://hl7.eu/fhir/laboratory/StructureDefinition/Observation-resultslab-eu-lab"
          ]
        },
        "performer": [
          {
            "display": "The Central European Lab"
          }
        ],
        "category": [
          {
            "coding": [
              {
                "system": "http://terminology.hl7.org/CodeSystem/observation-category",
                "code": "laboratory"
              }
            ]
          }
        ],
        "code": {
          "coding": [
            {
              "code": "32623-1",
              "system": "http://loinc.org",
              "display": "Platelet mean volume [Entitic volume] in Blood by Automated count"
            }
          ],
          "text": "Platelet mean volume [Entitic volume] in Blood by Automated count"
        },
        "valueQuantity": {
          "system": "http://unitsofmeasure.org",
          "value": 12.1,
          "unit": "fL",
          "code": "fL"
        },
        "referenceRange": [
          {
            "low": {
              "value": 9.4,
              "code": "fL",
              "system": "http://unitsofmeasure.org"
            }
          },
          {
            "high": {
              "value": 14,
              "code": "fL",
              "system": "http://unitsofmeasure.org"
            }
          }
        ],
        "text": {
          "status": "generated",
          "div": "<div xmlns=\"http://www.w3.org/1999/xhtml\"><table class=\"hl7__eu__lab__report\"><tr><th>Test</th><th>07-Apr-2023</th><th>Reference&#xA0;Range</th><th>Unit</th></tr><tr><td>Platelet mean volume [Entitic volume] in Blood by Automated count</td><td>12.1</td><td>9.4 - 14</td><td></td><td>fL</td></tr></table></div>"
        },
        "status": "final",
        "subject": {
          "reference": "urn:uuid:51ca2ae4-4560-4ea3-ad7c-61db12285ebc",
          "display": "Bethany Begum"
        },
        "effectiveDateTime": "2023-04-07T11:40:40Z",
        "specimen": {
          "reference": "urn:uuid:a410e2d0-fd3e-4a39-9ab0-95b6befea3cd"
        }
      }
    },
    {
      "fullUrl": "urn:uuid:7e708ef3-c079-471e-b698-d079999bc0ff",
      "resource": {
        "resourceType": "Device",
        "id": "7e708ef3-c079-471e-b698-d079999bc0ff",
        "deviceName": [
          {
            "name": "SYNDERAI Synthetic Generator",
            "type": "manufacturer-name"
          }
        ],
        "version": [
          {
            "value": "5.0"
          }
        ],
        "text": {
          "status": "generated",
          "div": "<div xmlns=\"http://www.w3.org/1999/xhtml\">SYNDERAI Synthetic Generator v5.0</div>"
        },
        "status": "active\"",
        "distinctIdentifier": "synderai-generator-50",
        "manufacturer": "SYNDERAI Project"
      }
    },
    {
      "fullUrl": "urn:uuid:5e960558-1806-47c3-9762-af23b6e07dd0",
      "resource": {
        "resourceType": "Provenance",
        "id": "5e960558-1806-47c3-9762-af23b6e07dd0",
        "target": [
          {
            "reference": "Patient/51ca2ae4-4560-4ea3-ad7c-61db12285ebc"
          },
          {
            "reference": "Bundle/ad6bf877-0b8b-46d2-a030-5b409b241b1a"
          },
          {
            "reference": "Composition/e9029be4-deb5-419a-8d03-9cb3493f6dd2"
          },
          {
            "reference": "PractitionerRole/acab1ab5-2950-459b-91d6-9954aea6bcb1"
          },
          {
            "reference": "Practitioner/8633ef6b-780a-4060-8542-bf31384c90e7"
          },
          {
            "reference": "PractitionerRole/62eae890-c243-49d7-93cc-964bbaac6dad"
          },
          {
            "reference": "Organization/02965cb5-31ae-4c7f-9946-a8acac2d2d23"
          }
        ],
        "activity": {
          "text": "Synthetic Example Data Generation"
        },
        "policy": [
          "https://synderai.net/synderai-synthetic-data-policy"
        ],
        "agent": [
          {
            "type": {
              "text": "author"
            },
            "who": {
              "reference": "Device/7e708ef3-c079-471e-b698-d079999bc0ff"
            }
          }
        ],
        "reason": [
          {
            "text": "Interoperability Testing and Training (non-clinical use)"
          }
        ],
        "text": {
          "status": "generated",
          "div": "<div xmlns=\"http://www.w3.org/1999/xhtml\">Provenance for SYNDERAI Synthetic Example Data Resource</div>"
        },
        "recorded": "2023-04-07T13:40:40Z"
      }
    },
    {
      "fullUrl": "urn:uuid:acab1ab5-2950-459b-91d6-9954aea6bcb1",
      "resource": {
        "resourceType": "PractitionerRole",
        "id": "acab1ab5-2950-459b-91d6-9954aea6bcb1",
        "meta": {
          "profile": [
            "http://hl7.eu/fhir/base/StructureDefinition/practitionerRole-eu"
          ]
        },
        "text": {
          "status": "generated",
          "div": "<div xmlns=\"http://www.w3.org/1999/xhtml\">Laboratory Role Id: acab1ab5-2950-459b-91d6-9954aea6bcb1</div>"
        },
        "practitioner": {
          "reference": "urn:uuid:8633ef6b-780a-4060-8542-bf31384c90e7"
        }
      }
    },
    {
      "fullUrl": "urn:uuid:8633ef6b-780a-4060-8542-bf31384c90e7",
      "resource": {
        "resourceType": "Practitioner",
        "id": "8633ef6b-780a-4060-8542-bf31384c90e7",
        "meta": {
          "profile": [
            "http://hl7.eu/fhir/base/StructureDefinition/practitioner-eu"
          ]
        },
        "identifier": [
          {
            "assigner": {
              "display": "HL7 Europe"
            },
            "system": "urn:oid:2.16.840.1.113883.2.51.999",
            "value": "a9e422ed-9aac-43e0-b896-2935fd855ccc"
          }
        ],
        "name": [
          {
            "prefix": [
              "dr"
            ],
            "given": [
              "Ex"
            ],
            "family": "Ample"
          }
        ],
        "address": [
          {
            "line": [
              "Laboratoire Central Européenne",
              "Boulevard du Jardin Botanique 32"
            ],
            "postalCode": "1000",
            "city": "Brussels",
            "country": "Belgium"
          }
        ],
        "text": {
          "status": "generated",
          "div": "<div xmlns=\"http://www.w3.org/1999/xhtml\">Laboratory: Laboratoire Central Européenne, 1000 Brussels, Belgium</div>"
        }
      }
    }
  ],
  "type": "document",
  "timestamp": "2023-04-07T13:40:40Z"
}
