<Bundle xmlns="http://hl7.org/fhir">
   <id value="61a70c39-12a6-4ca8-9a0d-2befbaed88cc"/>
   <meta>
      <profile value="http://hl7.eu/fhir/laboratory/StructureDefinition/Bundle-eu-lab"/>
   </meta>
   <identifier>
      <system value="urn:oid:2.16.840.1.113883.2.51.999"/>
      <value value="fbc18932-a78f-4bd7-833a-ccbf03805608"/>
      <assigner>
         <display value="HL7 Europe"/>
      </assigner>
   </identifier>
   <type value="document"/>
   <timestamp value="2025-05-05T09:49:06Z"/>
   <entry>
      <fullUrl value="urn:uuid:703f957f-27c5-494a-80d3-0fde28c75fac"/>
      <resource>
         <Composition>
            <id value="703f957f-27c5-494a-80d3-0fde28c75fac"/>
            <meta>
               <profile value="http://hl7.eu/fhir/laboratory/StructureDefinition/Composition-eu-lab"/>
            </meta>
            <identifier>
               <system value="urn:oid:2.16.840.1.113883.2.51.999"/>
               <value value="866407c1-cd13-47a0-8fdc-c6f697752cf5"/>
               <assigner>
                  <display value="HL7 Europe"/>
               </assigner>
            </identifier>
            <status value="final"/>
            <type>
               <coding>
                  <system value="http://loinc.org"/>
                  <code value="11502-2"/>
                  <display value="Laboratory report"/>
               </coding>
               <text value="Laboratory Report"/>
            </type>
            <category>
               <coding>
                  <system value="http://loinc.org"/>
                  <code value="26436-6"/>
                  <display value="Laboratory studies (set)"/>
               </coding>
            </category>
            <subject>
               <reference value="urn:uuid:30ed1032-5759-4783-abdd-fa5a2e097303"/>
               <display value="Alessio Fanucci"/>
            </subject>
            <date value="2025-05-05T09:49:06Z"/>
            <author>
               <reference value="urn:uuid:6a9526d6-2177-4f2b-a874-11a8e510d77f"/>
            </author>
            <title value="Laboratory Report"/>
            <confidentiality value="N"/>
            <section>
               <title value="Laboratory Report"/>
               <code>
                  <coding>
                     <system value="http://loinc.org"/>
                     <code value="26436-6"/>
                     <display value="Laboratory studies (set)"/>
                  </coding>
                  <text value="Laboratory studies"/>
               </code>
               <section>
                  <title value="Chemistry"/>
                  <code>
                     <coding>
                        <system value="http://loinc.org"/>
                        <code value="$18719-5"/>
                        <display value="Chemistry studies (set)"/>
                     </coding>
                     <text value="Chemistry"/>
                  </code>
                  <text>
                     <status value="generated"/>
                     <div xmlns="http://www.w3.org/1999/xhtml">
                        <h3>Chemistry</h3>
                        <table class="hl7__eu__lab__report">
                           <thead>
                              <tr>
                                 <th>Test</th>
                                 <th>05-MAY-2025</th>
                                 <th>Reference Range</th>
                                 <th>Unit</th>
                              </tr>
                           </thead>
                           <tbody>
                              <tr>
                                 <td>Hemoglobin A1c/Hemoglobin.total in Blood</td>
                                 <td>6.0</td>
                                 <td>4 - 6</td>
                                 <td>%</td>
                              </tr>
                              <tr>
                                 <td>Glucose [Mass/volume] in Blood</td>
                                 <td>76.1</td>
                                 <td>70 - 140</td>
                                 <td>mg/dL</td>
                              </tr>
                              <tr>
                                 <td>Urea nitrogen [Mass/volume] in Blood</td>
                                 <td>18.9</td>
                                 <td>7 - 20</td>
                                 <td>mg/dL</td>
                              </tr>
                              <tr>
                                 <td>Creatinine [Mass/volume] in Blood</td>
                                 <td>0.9</td>
                                 <td>0.9 - 1.3</td>
                                 <td>mg/dL</td>
                              </tr>
                              <tr>
                                 <td>Calcium [Mass/volume] in Blood</td>
                                 <td>9.4</td>
                                 <td>8.5 - 10.5</td>
                                 <td>mg/dL</td>
                              </tr>
                              <tr>
                                 <td>Sodium [Moles/volume] in Blood</td>
                                 <td>136.5</td>
                                 <td>135 - 145</td>
                                 <td>mmol/L</td>
                              </tr>
                              <tr>
                                 <td>Potassium [Moles/volume] in Blood</td>
                                 <td>4.3</td>
                                 <td>3.5 - 5</td>
                                 <td>mmol/L</td>
                              </tr>
                              <tr>
                                 <td>Chloride [Moles/volume] in Blood</td>
                                 <td>104.3</td>
                                 <td>98 - 110</td>
                                 <td>mmol/L</td>
                              </tr>
                              <tr>
                                 <td>Carbon dioxide, total [Moles/volume] in Blood</td>
                                 <td>
                                    <strong>20.4 L</strong>
                                 </td>
                                 <td>22 - 32</td>
                                 <td>mmol/L</td>
                              </tr>
                              <tr>
                                 <td>Cholesterol [Mass/volume] in Serum or Plasma</td>
                                 <td>
                                    <strong>214.9 H</strong>
                                 </td>
                                 <td>125 - 200</td>
                                 <td>mg/dL</td>
                              </tr>
                              <tr>
                                 <td>Triglyceride [Mass/volume] in Serum or Plasma</td>
                                 <td>141.2</td>
                                 <td>0 - 150</td>
                                 <td>mg/dL</td>
                              </tr>
                              <tr>
                                 <td>Cholesterol in LDL [Mass/volume] in Serum or Plasma by Direct assay</td>
                                 <td>
                                    <strong>159.3 H</strong>
                                 </td>
                                 <td>0 - 130</td>
                                 <td>mg/dL</td>
                              </tr>
                              <tr>
                                 <td>Cholesterol in HDL [Mass/volume] in Serum or Plasma</td>
                                 <td>
                                    <strong>27.4 L</strong>
                                 </td>
                                 <td>40 - 60</td>
                                 <td>mg/dL</td>
                              </tr>
                           </tbody>
                        </table>
                     </div>
                  </text>
                  <entry>
                     <reference value="urn:uuid:f10e3ba4-a2d4-442b-b6e4-f9208cac14dc"/>
                  </entry>
                  <entry>
                     <reference value="urn:uuid:4fa8207f-ca4c-4005-a734-39cc1dabcda5"/>
                  </entry>
                  <entry>
                     <reference value="urn:uuid:c9af5724-8623-46ff-85fc-2c25d5a1d4d8"/>
                  </entry>
                  <entry>
                     <reference value="urn:uuid:22d6c55a-147d-46bf-9fc9-6c17de503a28"/>
                  </entry>
                  <entry>
                     <reference value="urn:uuid:8708750b-aaed-421a-b98a-1395cccb7151"/>
                  </entry>
                  <entry>
                     <reference value="urn:uuid:3fb857a5-332b-4413-8e82-94741148d86a"/>
                  </entry>
                  <entry>
                     <reference value="urn:uuid:f57d5152-70c1-4379-a81a-8b375f282442"/>
                  </entry>
                  <entry>
                     <reference value="urn:uuid:83ffce51-b757-4847-b52e-eb68cbe8265c"/>
                  </entry>
                  <entry>
                     <reference value="urn:uuid:10fb00e2-f473-4b7b-9348-732b907c0b57"/>
                  </entry>
                  <entry>
                     <reference value="urn:uuid:3e250f97-3462-4cb9-b3f0-2bbc06a3acd9"/>
                  </entry>
                  <entry>
                     <reference value="urn:uuid:9c8f9d76-c499-42cf-8222-2cfb0b001051"/>
                  </entry>
                  <entry>
                     <reference value="urn:uuid:12ca4e1a-a72e-4b84-bb53-30bc1db2b4de"/>
                  </entry>
                  <entry>
                     <reference value="urn:uuid:44253787-e7d2-4432-9932-dc167a33f4a2"/>
                  </entry>
               </section>
            </section>
            <section>
               <title value="Annotation comment"/>
               <code>
                  <coding>
                     <system value="http://loinc.org"/>
                     <code value="48767-8"/>
                     <display value="Annotation comment"/>
                  </coding>
               </code>
               <text>
                  <status value="generated"/>
                  <div xmlns="http://www.w3.org/1999/xhtml">
                     <h3>Annotation</h3>
                     <table class="hl7__eu__lab__report">
                        <tr>
                           <th>Conclusion and Recommendations based on this report and previous findings known to us</th>
                        </tr>
                        <tr>
                           <td>The patient shows borderline elevated HbA1c, suggesting possible impaired glucose tolerance. Lipid profile reveals high total and LDL cholesterol, low HDL, and normal triglycerides, indicating increased cardiovascular risk. Mildly decreased total CO₂ may suggest a mild metabolic acidosis or compensated respiratory alkalosis. Renal function, electrolytes, and glucose are within normal limits. Recommend further cardiovascular risk assessment and consideration of lifestyle or pharmacological interventions.</td>
                        </tr>
                     </table>
                  </div>
               </text>
            </section>
         </Composition>
      </resource>
   </entry>
   <entry>
      <fullUrl value="urn:uuid:8cf12ad7-5aaf-4ca4-886a-f59e855434f0"/>
      <resource>
         <DiagnosticReport>
            <id value="8cf12ad7-5aaf-4ca4-886a-f59e855434f0"/>
            <meta>
               <profile value="http://hl7.eu/fhir/laboratory/StructureDefinition/DiagnosticReport-eu-lab"/>
            </meta>
            <extension url="http://hl7.org/fhir/5.0/StructureDefinition/extension-DiagnosticReport.composition">
               <valueReference>
                  <reference value="urn:uuid:866407c1-cd13-47a0-8fdc-c6f697752cf5"/>
               </valueReference>
            </extension>
            <identifier>
               <system value="urn:oid:2.16.840.1.113883.2.51.999"/>
               <value value="e2d58c0c-5c78-4074-94ee-e7be9ed91361"/>
               <assigner>
                  <display value="HL7 Europe"/>
               </assigner>
            </identifier>
            <status value="registered"/>
            <category>
               <coding>
                  <system value="http://loinc.org"/>
                  <code value="26436-6"/>
                  <display value="Laboratory studies (set)"/>
               </coding>
            </category>
            <code>
               <coding>
                  <system value="http://loinc.org"/>
                  <code value="11502-2"/>
                  <display value="Laboratory report"/>
               </coding>
            </code>
            <subject>
               <reference value="urn:uuid:30ed1032-5759-4783-abdd-fa5a2e097303"/>
               <display value="Alessio Fanucci"/>
            </subject>
            <specimen>
               <reference value="urn:uuid:cc7d7e49-2cbb-4389-a9cd-cb30a116d9e1"/>
            </specimen>
            <specimen>
               <reference value="urn:uuid:30174e94-f909-4cba-8c88-f50f6e6d5314"/>
            </specimen>
            <result>
               <reference value="urn:uuid:f10e3ba4-a2d4-442b-b6e4-f9208cac14dc"/>
            </result>
            <result>
               <reference value="urn:uuid:4fa8207f-ca4c-4005-a734-39cc1dabcda5"/>
            </result>
            <result>
               <reference value="urn:uuid:c9af5724-8623-46ff-85fc-2c25d5a1d4d8"/>
            </result>
            <result>
               <reference value="urn:uuid:22d6c55a-147d-46bf-9fc9-6c17de503a28"/>
            </result>
            <result>
               <reference value="urn:uuid:8708750b-aaed-421a-b98a-1395cccb7151"/>
            </result>
            <result>
               <reference value="urn:uuid:3fb857a5-332b-4413-8e82-94741148d86a"/>
            </result>
            <result>
               <reference value="urn:uuid:f57d5152-70c1-4379-a81a-8b375f282442"/>
            </result>
            <result>
               <reference value="urn:uuid:83ffce51-b757-4847-b52e-eb68cbe8265c"/>
            </result>
            <result>
               <reference value="urn:uuid:10fb00e2-f473-4b7b-9348-732b907c0b57"/>
            </result>
            <result>
               <reference value="urn:uuid:3e250f97-3462-4cb9-b3f0-2bbc06a3acd9"/>
            </result>
            <result>
               <reference value="urn:uuid:9c8f9d76-c499-42cf-8222-2cfb0b001051"/>
            </result>
            <result>
               <reference value="urn:uuid:12ca4e1a-a72e-4b84-bb53-30bc1db2b4de"/>
            </result>
            <result>
               <reference value="urn:uuid:44253787-e7d2-4432-9932-dc167a33f4a2"/>
            </result>
         </DiagnosticReport>
      </resource>
   </entry>
   <entry>
      <fullUrl value="urn:uuid:30ed1032-5759-4783-abdd-fa5a2e097303"/>
      <resource>
         <Patient>
            <id value="30ed1032-5759-4783-abdd-fa5a2e097303"/>
            <meta>
               <profile value="http://hl7.eu/fhir/base/StructureDefinition/patient-eu-core"/>
               <security>
                  <system value="http://terminology.hl7.org/CodeSystem/v3-ActReason"/>
                  <code value="HTEST"/>
               </security>
               <security>
                  <system value="http://terminology.hl7.org/CodeSystem/v3-ActReason"/>
                  <code value="TRAIN"/>
               </security>
               <tag>
                  <system value="https://synderai.net/fhir/CodeSystem/tags"/>
                  <code value="synthetic"/>
                  <display value="SYNDERAI Synthetic data"/>
               </tag>
            </meta>
            <text>
               <status value="generated"/>
               <div xmlns="http://www.w3.org/1999/xhtml">
                  <table class="hl7__ips">
                     <tr>
                        <td>Alessio Fanucci</td>
                        <td>male</td>
                        <td>12-Sep-1964</td>
                     </tr>
                  </table>
               </div>
            </text>
            <extension url="http://hl7.org/fhir/StructureDefinition/patient-nationality">
               <valueCodeableConcept>
                  <coding>
                     <system value="http://hl7.org/fhir/ValueSet/country"/>
                     <code value="IT"/>
                  </coding>
               </valueCodeableConcept>
            </extension>
            <identifier>
               <type>
                  <coding>
                     <system value="http://terminology.hl7.org/CodeSystem/v2-0203"/>
                     <code value="PT"/>
                  </coding>
               </type>
               <system value="http://ec.europa.eu/identifier/eci"/>
               <value value="4754-874768-3"/>
            </identifier>
            <identifier>
               <type>
                  <coding>
                     <system value="http://terminology.hl7.org/CodeSystem/v2-0203"/>
                     <code value="MR"/>
                  </coding>
               </type>
               <system value="http://local.setting.eu/identifier"/>
               <value value="4b888823-bdd8-59a3-b785-e7ba28e6a7b5"/>
            </identifier>
            <name>
               <family value="Fanucci"/>
            </name>
            <name>
               <given value="Alessio"/>
            </name>
            <name>
               <text value="Alessio Fanucci"/>
            </name>
            <telecom>
               <system value="phone"/>
               <value value="0125684636"/>
            </telecom>
            <gender value="male"/>
            <birthDate value="1964-09-12"/>
            <address>
               <use value="home"/>
               <type value="physical"/>
               <line value="Incrocio Combi, 822"/>
               <city value="Moggio Udinese"/>
               <postalCode value="33015"/>
               <country value="Italy"/>
            </address>
         </Patient>
      </resource>
   </entry>
   <entry>
      <fullUrl value="urn:uuid:238e69a9-7212-4859-84ff-751aa6d3efb1"/>
      <resource>
         <ServiceRequest>
            <id value="238e69a9-7212-4859-84ff-751aa6d3efb1"/>
            <meta>
               <profile value="http://hl7.eu/fhir/laboratory/StructureDefinition/ServiceRequest-eu-lab"/>
            </meta>
            <identifier>
               <system value="http://example.org"/>
               <value value="5f5ca901-6ae8-4ff2-9c79-4b932e449d61"/>
            </identifier>
            <status value="active"/>
            <intent value="order"/>
            <code>
               <coding>
                  <system value="http://snomed.info/sct"/>
                  <code value="108252007"/>
                  <display value="Laboratory procedure"/>
               </coding>
            </code>
            <subject>
               <reference value="urn:uuid:30ed1032-5759-4783-abdd-fa5a2e097303"/>
               <display value="Alessio Fanucci"/>
            </subject>
            <requester>
               <reference value="urn:uuid:1b7b0da8-efe8-4c12-99ce-898b8b8b3d57"/>
            </requester>
            <reasonCode>
               <coding>
                  <system value="http://snomed.info/sct"/>
                  <code value="15777000"/>
                  <display value="Prediabetes"/>
               </coding>
            </reasonCode>
            <reasonCode>
               <coding>
                  <system value="http://snomed.info/sct"/>
                  <code value="271737000"/>
                  <display value="Anemia"/>
               </coding>
            </reasonCode>
            <reasonCode>
               <coding>
                  <system value="http://snomed.info/sct"/>
                  <code value="40055000"/>
                  <display value="Chronic sinusitis"/>
               </coding>
            </reasonCode>
            <specimen>
               <reference value="urn:uuid:cc7d7e49-2cbb-4389-a9cd-cb30a116d9e1"/>
            </specimen>
            <specimen>
               <reference value="urn:uuid:30174e94-f909-4cba-8c88-f50f6e6d5314"/>
            </specimen>
         </ServiceRequest>
      </resource>
   </entry>
   <entry>
      <fullUrl value="urn:uuid:1b7b0da8-efe8-4c12-99ce-898b8b8b3d57"/>
      <resource>
         <PractitionerRole>
            <id value="1b7b0da8-efe8-4c12-99ce-898b8b8b3d57"/>
            <meta>
               <profile value="http://hl7.eu/fhir/base/StructureDefinition/practitionerRole-eu"/>
            </meta>
            <text>
               <status value="generated"/>
               <div xmlns="http://www.w3.org/1999/xhtml">Provider Role Id: 1b7b0da8-efe8-4c12-99ce-898b8b8b3d57</div>
            </text>
            <organization>
               <reference value="urn:uuid:386d0ae8-2fbe-411e-9b51-4071aa2f937d"/>
            </organization>
         </PractitionerRole>
      </resource>
   </entry>
   <entry>
      <fullUrl value="urn:uuid:386d0ae8-2fbe-411e-9b51-4071aa2f937d"/>
      <resource>
         <Organization>
            <id value="386d0ae8-2fbe-411e-9b51-4071aa2f937d"/>
            <meta>
               <profile value="http://hl7.eu/fhir/base/StructureDefinition/organization-eu"/>
            </meta>
            <text>
               <status value="generated"/>
               <div xmlns="http://www.w3.org/1999/xhtml">Provider Organization: Ambulatori</div>
            </text>
            <identifier>
               <system value="urn:oid:2.16.840.1.113883.2.51.999"/>
               <value value="beb038ce-f6ea-444d-aa66-ddc6bbebc92c"/>
               <assigner>
                  <display value="HL7 Europe"/>
               </assigner>
            </identifier>
            <name value="Ambulatori"/>
            <address>
               <city value="Artegna"/>
               <postalCode value="33011"/>
               <country value="Italy"/>
            </address>
         </Organization>
      </resource>
   </entry>
   <entry>
      <fullUrl value="urn:uuid:cc7d7e49-2cbb-4389-a9cd-cb30a116d9e1"/>
      <resource>
         <Specimen>
            <id value="cc7d7e49-2cbb-4389-a9cd-cb30a116d9e1"/>
            <meta>
               <profile value="http://hl7.eu/fhir/laboratory/StructureDefinition/Specimen-eu-lab"/>
            </meta>
            <text>
               <status value="generated"/>
               <div xmlns="http://www.w3.org/1999/xhtml">
                  <table class="hl7__eu__lab__report">
                     <tr>
                        <th>Specimen</th>
                        <th>Collection Date</th>
                     </tr>
                     <tr>
                        <td>Whole blood specimen (specimen)</td>
                        <td>
                           <span class="nb">05-May-2025</span>
                        </td>
                     </tr>
                  </table>
               </div>
            </text>
            <type>
               <coding>
                  <system value="http://snomed.info/sct"/>
                  <code value="258580003"/>
                  <display value="Whole blood specimen (specimen)"/>
               </coding>
            </type>
            <collection>
               <collectedDateTime value="2025-05-05"/>
            </collection>
         </Specimen>
      </resource>
   </entry>
   <entry>
      <fullUrl value="urn:uuid:30174e94-f909-4cba-8c88-f50f6e6d5314"/>
      <resource>
         <Specimen>
            <id value="30174e94-f909-4cba-8c88-f50f6e6d5314"/>
            <meta>
               <profile value="http://hl7.eu/fhir/laboratory/StructureDefinition/Specimen-eu-lab"/>
            </meta>
            <text>
               <status value="generated"/>
               <div xmlns="http://www.w3.org/1999/xhtml">
                  <table class="hl7__eu__lab__report">
                     <tr>
                        <th>Specimen</th>
                        <th>Collection Date</th>
                     </tr>
                     <tr>
                        <td>Acellular blood (serum or plasma) specimen</td>
                        <td>
                           <span class="nb">05-May-2025</span>
                        </td>
                     </tr>
                  </table>
               </div>
            </text>
            <type>
               <coding>
                  <system value="http://snomed.info/sct"/>
                  <code value="122592007"/>
                  <display value="Acellular blood (serum or plasma) specimen"/>
               </coding>
            </type>
            <collection>
               <collectedDateTime value="2025-05-05"/>
            </collection>
         </Specimen>
      </resource>
   </entry>
   <entry>
      <fullUrl value="urn:uuid:f10e3ba4-a2d4-442b-b6e4-f9208cac14dc"/>
      <resource>
         <Observation>
            <id value="f10e3ba4-a2d4-442b-b6e4-f9208cac14dc"/>
            <meta>
               <profile value="http://hl7.eu/fhir/laboratory/StructureDefinition/Observation-resultslab-eu-lab"/>
            </meta>
            <text>
               <status value="generated"/>
               <div xmlns="http://www.w3.org/1999/xhtml">
                  <table class="hl7__eu__lab__report">
                     <tr>
                        <th>Test</th>
                        <th>05-May-2025</th>
                        <th>Reference Range</th>
                        <th>Unit</th>
                     </tr>
                     <tr>
                        <td>Hemoglobin A1c/Hemoglobin.total in Blood</td>
                        <td>6.0</td>
                        <td>4 - 6</td>
                        <td/>
                        <td>%</td>
                     </tr>
                  </table>
               </div>
            </text>
            <status value="final"/>
            <category>
               <coding>
                  <system value="http://terminology.hl7.org/CodeSystem/observation-category"/>
                  <code value="laboratory"/>
               </coding>
            </category>
            <code>
               <coding>
                  <system value="http://loinc.org"/>
                  <code value="4548-4"/>
                  <display value="Hemoglobin A1c/Hemoglobin.total in Blood"/>
               </coding>
               <text value="Hemoglobin A1c/Hemoglobin.total in Blood"/>
            </code>
            <subject>
               <reference value="urn:uuid:30ed1032-5759-4783-abdd-fa5a2e097303"/>
               <display value="Alessio Fanucci"/>
            </subject>
            <effectiveDateTime value="2025-05-05T07:49:06Z"/>
            <performer>
               <display value="The Central European Lab"/>
            </performer>
            <valueQuantity>
               <value value="6"/>
               <unit value="%"/>
               <system value="http://unitsofmeasure.org"/>
               <code value="%"/>
            </valueQuantity>
            <specimen>
               <reference value="urn:uuid:cc7d7e49-2cbb-4389-a9cd-cb30a116d9e1"/>
            </specimen>
            <referenceRange>
               <low>
                  <value value="4"/>
                  <system value="http://unitsofmeasure.org"/>
                  <code value="%"/>
               </low>
            </referenceRange>
            <referenceRange>
               <high>
                  <value value="6"/>
                  <system value="http://unitsofmeasure.org"/>
                  <code value="%"/>
               </high>
            </referenceRange>
         </Observation>
      </resource>
   </entry>
   <entry>
      <fullUrl value="urn:uuid:4fa8207f-ca4c-4005-a734-39cc1dabcda5"/>
      <resource>
         <Observation>
            <id value="4fa8207f-ca4c-4005-a734-39cc1dabcda5"/>
            <meta>
               <profile value="http://hl7.eu/fhir/laboratory/StructureDefinition/Observation-resultslab-eu-lab"/>
            </meta>
            <text>
               <status value="generated"/>
               <div xmlns="http://www.w3.org/1999/xhtml">
                  <table class="hl7__eu__lab__report">
                     <tr>
                        <th>Test</th>
                        <th>05-May-2025</th>
                        <th>Reference Range</th>
                        <th>Unit</th>
                     </tr>
                     <tr>
                        <td>Glucose [Mass/volume] in Blood</td>
                        <td>76.1</td>
                        <td>70 - 140</td>
                        <td/>
                        <td>mg/dL</td>
                     </tr>
                  </table>
               </div>
            </text>
            <status value="final"/>
            <category>
               <coding>
                  <system value="http://terminology.hl7.org/CodeSystem/observation-category"/>
                  <code value="laboratory"/>
               </coding>
            </category>
            <code>
               <coding>
                  <system value="http://loinc.org"/>
                  <code value="2339-0"/>
                  <display value="Glucose [Mass/volume] in Blood"/>
               </coding>
               <text value="Glucose [Mass/volume] in Blood"/>
            </code>
            <subject>
               <reference value="urn:uuid:30ed1032-5759-4783-abdd-fa5a2e097303"/>
               <display value="Alessio Fanucci"/>
            </subject>
            <effectiveDateTime value="2025-05-05T07:49:06Z"/>
            <performer>
               <display value="The Central European Lab"/>
            </performer>
            <valueQuantity>
               <value value="76.1"/>
               <unit value="mg/dL"/>
               <system value="http://unitsofmeasure.org"/>
               <code value="mg/dL"/>
            </valueQuantity>
            <specimen>
               <reference value="urn:uuid:cc7d7e49-2cbb-4389-a9cd-cb30a116d9e1"/>
            </specimen>
            <referenceRange>
               <low>
                  <value value="70"/>
                  <system value="http://unitsofmeasure.org"/>
                  <code value="mg/dL"/>
               </low>
            </referenceRange>
            <referenceRange>
               <high>
                  <value value="140"/>
                  <system value="http://unitsofmeasure.org"/>
                  <code value="mg/dL"/>
               </high>
            </referenceRange>
         </Observation>
      </resource>
   </entry>
   <entry>
      <fullUrl value="urn:uuid:c9af5724-8623-46ff-85fc-2c25d5a1d4d8"/>
      <resource>
         <Observation>
            <id value="c9af5724-8623-46ff-85fc-2c25d5a1d4d8"/>
            <meta>
               <profile value="http://hl7.eu/fhir/laboratory/StructureDefinition/Observation-resultslab-eu-lab"/>
            </meta>
            <text>
               <status value="generated"/>
               <div xmlns="http://www.w3.org/1999/xhtml">
                  <table class="hl7__eu__lab__report">
                     <tr>
                        <th>Test</th>
                        <th>05-May-2025</th>
                        <th>Reference Range</th>
                        <th>Unit</th>
                     </tr>
                     <tr>
                        <td>Urea nitrogen [Mass/volume] in Blood</td>
                        <td>18.9</td>
                        <td>7 - 20</td>
                        <td/>
                        <td>mg/dL</td>
                     </tr>
                  </table>
               </div>
            </text>
            <status value="final"/>
            <category>
               <coding>
                  <system value="http://terminology.hl7.org/CodeSystem/observation-category"/>
                  <code value="laboratory"/>
               </coding>
            </category>
            <code>
               <coding>
                  <system value="http://loinc.org"/>
                  <code value="6299-2"/>
                  <display value="Urea nitrogen [Mass/volume] in Blood"/>
               </coding>
               <text value="Urea nitrogen [Mass/volume] in Blood"/>
            </code>
            <subject>
               <reference value="urn:uuid:30ed1032-5759-4783-abdd-fa5a2e097303"/>
               <display value="Alessio Fanucci"/>
            </subject>
            <effectiveDateTime value="2025-05-05T07:49:06Z"/>
            <performer>
               <display value="The Central European Lab"/>
            </performer>
            <valueQuantity>
               <value value="18.9"/>
               <unit value="mg/dL"/>
               <system value="http://unitsofmeasure.org"/>
               <code value="mg/dL"/>
            </valueQuantity>
            <specimen>
               <reference value="urn:uuid:cc7d7e49-2cbb-4389-a9cd-cb30a116d9e1"/>
            </specimen>
            <referenceRange>
               <low>
                  <value value="7"/>
                  <system value="http://unitsofmeasure.org"/>
                  <code value="mg/dL"/>
               </low>
            </referenceRange>
            <referenceRange>
               <high>
                  <value value="20"/>
                  <system value="http://unitsofmeasure.org"/>
                  <code value="mg/dL"/>
               </high>
            </referenceRange>
         </Observation>
      </resource>
   </entry>
   <entry>
      <fullUrl value="urn:uuid:22d6c55a-147d-46bf-9fc9-6c17de503a28"/>
      <resource>
         <Observation>
            <id value="22d6c55a-147d-46bf-9fc9-6c17de503a28"/>
            <meta>
               <profile value="http://hl7.eu/fhir/laboratory/StructureDefinition/Observation-resultslab-eu-lab"/>
            </meta>
            <text>
               <status value="generated"/>
               <div xmlns="http://www.w3.org/1999/xhtml">
                  <table class="hl7__eu__lab__report">
                     <tr>
                        <th>Test</th>
                        <th>05-May-2025</th>
                        <th>Reference Range</th>
                        <th>Unit</th>
                     </tr>
                     <tr>
                        <td>Creatinine [Mass/volume] in Blood</td>
                        <td>0.9</td>
                        <td>0.9 - 1.3</td>
                        <td/>
                        <td>mg/dL</td>
                     </tr>
                  </table>
               </div>
            </text>
            <status value="final"/>
            <category>
               <coding>
                  <system value="http://terminology.hl7.org/CodeSystem/observation-category"/>
                  <code value="laboratory"/>
               </coding>
            </category>
            <code>
               <coding>
                  <system value="http://loinc.org"/>
                  <code value="38483-4"/>
                  <display value="Creatinine [Mass/volume] in Blood"/>
               </coding>
               <text value="Creatinine [Mass/volume] in Blood"/>
            </code>
            <subject>
               <reference value="urn:uuid:30ed1032-5759-4783-abdd-fa5a2e097303"/>
               <display value="Alessio Fanucci"/>
            </subject>
            <effectiveDateTime value="2025-05-05T07:49:06Z"/>
            <performer>
               <display value="The Central European Lab"/>
            </performer>
            <valueQuantity>
               <value value="0.9"/>
               <unit value="mg/dL"/>
               <system value="http://unitsofmeasure.org"/>
               <code value="mg/dL"/>
            </valueQuantity>
            <specimen>
               <reference value="urn:uuid:cc7d7e49-2cbb-4389-a9cd-cb30a116d9e1"/>
            </specimen>
            <referenceRange>
               <low>
                  <value value="0.9"/>
                  <system value="http://unitsofmeasure.org"/>
                  <code value="mg/dL"/>
               </low>
            </referenceRange>
            <referenceRange>
               <high>
                  <value value="1.3"/>
                  <system value="http://unitsofmeasure.org"/>
                  <code value="mg/dL"/>
               </high>
            </referenceRange>
         </Observation>
      </resource>
   </entry>
   <entry>
      <fullUrl value="urn:uuid:8708750b-aaed-421a-b98a-1395cccb7151"/>
      <resource>
         <Observation>
            <id value="8708750b-aaed-421a-b98a-1395cccb7151"/>
            <meta>
               <profile value="http://hl7.eu/fhir/laboratory/StructureDefinition/Observation-resultslab-eu-lab"/>
            </meta>
            <text>
               <status value="generated"/>
               <div xmlns="http://www.w3.org/1999/xhtml">
                  <table class="hl7__eu__lab__report">
                     <tr>
                        <th>Test</th>
                        <th>05-May-2025</th>
                        <th>Reference Range</th>
                        <th>Unit</th>
                     </tr>
                     <tr>
                        <td>Calcium [Mass/volume] in Blood</td>
                        <td>9.4</td>
                        <td>8.5 - 10.5</td>
                        <td/>
                        <td>mg/dL</td>
                     </tr>
                  </table>
               </div>
            </text>
            <status value="final"/>
            <category>
               <coding>
                  <system value="http://terminology.hl7.org/CodeSystem/observation-category"/>
                  <code value="laboratory"/>
               </coding>
            </category>
            <code>
               <coding>
                  <system value="http://loinc.org"/>
                  <code value="49765-1"/>
                  <display value="Calcium [Mass/volume] in Blood"/>
               </coding>
               <text value="Calcium [Mass/volume] in Blood"/>
            </code>
            <subject>
               <reference value="urn:uuid:30ed1032-5759-4783-abdd-fa5a2e097303"/>
               <display value="Alessio Fanucci"/>
            </subject>
            <effectiveDateTime value="2025-05-05T07:49:06Z"/>
            <performer>
               <display value="The Central European Lab"/>
            </performer>
            <valueQuantity>
               <value value="9.4"/>
               <unit value="mg/dL"/>
               <system value="http://unitsofmeasure.org"/>
               <code value="mg/dL"/>
            </valueQuantity>
            <specimen>
               <reference value="urn:uuid:cc7d7e49-2cbb-4389-a9cd-cb30a116d9e1"/>
            </specimen>
            <referenceRange>
               <low>
                  <value value="8.5"/>
                  <system value="http://unitsofmeasure.org"/>
                  <code value="mg/dL"/>
               </low>
            </referenceRange>
            <referenceRange>
               <high>
                  <value value="10.5"/>
                  <system value="http://unitsofmeasure.org"/>
                  <code value="mg/dL"/>
               </high>
            </referenceRange>
         </Observation>
      </resource>
   </entry>
   <entry>
      <fullUrl value="urn:uuid:3fb857a5-332b-4413-8e82-94741148d86a"/>
      <resource>
         <Observation>
            <id value="3fb857a5-332b-4413-8e82-94741148d86a"/>
            <meta>
               <profile value="http://hl7.eu/fhir/laboratory/StructureDefinition/Observation-resultslab-eu-lab"/>
            </meta>
            <text>
               <status value="generated"/>
               <div xmlns="http://www.w3.org/1999/xhtml">
                  <table class="hl7__eu__lab__report">
                     <tr>
                        <th>Test</th>
                        <th>05-May-2025</th>
                        <th>Reference Range</th>
                        <th>Unit</th>
                     </tr>
                     <tr>
                        <td>Sodium [Moles/volume] in Blood</td>
                        <td>136.5</td>
                        <td>135 - 145</td>
                        <td/>
                        <td>mmol/L</td>
                     </tr>
                  </table>
               </div>
            </text>
            <status value="final"/>
            <category>
               <coding>
                  <system value="http://terminology.hl7.org/CodeSystem/observation-category"/>
                  <code value="laboratory"/>
               </coding>
            </category>
            <code>
               <coding>
                  <system value="http://loinc.org"/>
                  <code value="2947-0"/>
                  <display value="Sodium [Moles/volume] in Blood"/>
               </coding>
               <text value="Sodium [Moles/volume] in Blood"/>
            </code>
            <subject>
               <reference value="urn:uuid:30ed1032-5759-4783-abdd-fa5a2e097303"/>
               <display value="Alessio Fanucci"/>
            </subject>
            <effectiveDateTime value="2025-05-05T07:49:06Z"/>
            <performer>
               <display value="The Central European Lab"/>
            </performer>
            <valueQuantity>
               <value value="136.5"/>
               <unit value="mmol/L"/>
               <system value="http://unitsofmeasure.org"/>
               <code value="mmol/L"/>
            </valueQuantity>
            <specimen>
               <reference value="urn:uuid:cc7d7e49-2cbb-4389-a9cd-cb30a116d9e1"/>
            </specimen>
            <referenceRange>
               <low>
                  <value value="135"/>
                  <system value="http://unitsofmeasure.org"/>
                  <code value="mmol/L"/>
               </low>
            </referenceRange>
            <referenceRange>
               <high>
                  <value value="145"/>
                  <system value="http://unitsofmeasure.org"/>
                  <code value="mmol/L"/>
               </high>
            </referenceRange>
         </Observation>
      </resource>
   </entry>
   <entry>
      <fullUrl value="urn:uuid:f57d5152-70c1-4379-a81a-8b375f282442"/>
      <resource>
         <Observation>
            <id value="f57d5152-70c1-4379-a81a-8b375f282442"/>
            <meta>
               <profile value="http://hl7.eu/fhir/laboratory/StructureDefinition/Observation-resultslab-eu-lab"/>
            </meta>
            <text>
               <status value="generated"/>
               <div xmlns="http://www.w3.org/1999/xhtml">
                  <table class="hl7__eu__lab__report">
                     <tr>
                        <th>Test</th>
                        <th>05-May-2025</th>
                        <th>Reference Range</th>
                        <th>Unit</th>
                     </tr>
                     <tr>
                        <td>Potassium [Moles/volume] in Blood</td>
                        <td>4.3</td>
                        <td>3.5 - 5</td>
                        <td/>
                        <td>mmol/L</td>
                     </tr>
                  </table>
               </div>
            </text>
            <status value="final"/>
            <category>
               <coding>
                  <system value="http://terminology.hl7.org/CodeSystem/observation-category"/>
                  <code value="laboratory"/>
               </coding>
            </category>
            <code>
               <coding>
                  <system value="http://loinc.org"/>
                  <code value="6298-4"/>
                  <display value="Potassium [Moles/volume] in Blood"/>
               </coding>
               <text value="Potassium [Moles/volume] in Blood"/>
            </code>
            <subject>
               <reference value="urn:uuid:30ed1032-5759-4783-abdd-fa5a2e097303"/>
               <display value="Alessio Fanucci"/>
            </subject>
            <effectiveDateTime value="2025-05-05T07:49:06Z"/>
            <performer>
               <display value="The Central European Lab"/>
            </performer>
            <valueQuantity>
               <value value="4.3"/>
               <unit value="mmol/L"/>
               <system value="http://unitsofmeasure.org"/>
               <code value="mmol/L"/>
            </valueQuantity>
            <specimen>
               <reference value="urn:uuid:cc7d7e49-2cbb-4389-a9cd-cb30a116d9e1"/>
            </specimen>
            <referenceRange>
               <low>
                  <value value="3.5"/>
                  <system value="http://unitsofmeasure.org"/>
                  <code value="mmol/L"/>
               </low>
            </referenceRange>
            <referenceRange>
               <high>
                  <value value="5"/>
                  <system value="http://unitsofmeasure.org"/>
                  <code value="mmol/L"/>
               </high>
            </referenceRange>
         </Observation>
      </resource>
   </entry>
   <entry>
      <fullUrl value="urn:uuid:83ffce51-b757-4847-b52e-eb68cbe8265c"/>
      <resource>
         <Observation>
            <id value="83ffce51-b757-4847-b52e-eb68cbe8265c"/>
            <meta>
               <profile value="http://hl7.eu/fhir/laboratory/StructureDefinition/Observation-resultslab-eu-lab"/>
            </meta>
            <text>
               <status value="generated"/>
               <div xmlns="http://www.w3.org/1999/xhtml">
                  <table class="hl7__eu__lab__report">
                     <tr>
                        <th>Test</th>
                        <th>05-May-2025</th>
                        <th>Reference Range</th>
                        <th>Unit</th>
                     </tr>
                     <tr>
                        <td>Chloride [Moles/volume] in Blood</td>
                        <td>104.3</td>
                        <td>98 - 110</td>
                        <td/>
                        <td>mmol/L</td>
                     </tr>
                  </table>
               </div>
            </text>
            <status value="final"/>
            <category>
               <coding>
                  <system value="http://terminology.hl7.org/CodeSystem/observation-category"/>
                  <code value="laboratory"/>
               </coding>
            </category>
            <code>
               <coding>
                  <system value="http://loinc.org"/>
                  <code value="2069-3"/>
                  <display value="Chloride [Moles/volume] in Blood"/>
               </coding>
               <text value="Chloride [Moles/volume] in Blood"/>
            </code>
            <subject>
               <reference value="urn:uuid:30ed1032-5759-4783-abdd-fa5a2e097303"/>
               <display value="Alessio Fanucci"/>
            </subject>
            <effectiveDateTime value="2025-05-05T07:49:06Z"/>
            <performer>
               <display value="The Central European Lab"/>
            </performer>
            <valueQuantity>
               <value value="104.3"/>
               <unit value="mmol/L"/>
               <system value="http://unitsofmeasure.org"/>
               <code value="mmol/L"/>
            </valueQuantity>
            <specimen>
               <reference value="urn:uuid:cc7d7e49-2cbb-4389-a9cd-cb30a116d9e1"/>
            </specimen>
            <referenceRange>
               <low>
                  <value value="98"/>
                  <system value="http://unitsofmeasure.org"/>
                  <code value="mmol/L"/>
               </low>
            </referenceRange>
            <referenceRange>
               <high>
                  <value value="110"/>
                  <system value="http://unitsofmeasure.org"/>
                  <code value="mmol/L"/>
               </high>
            </referenceRange>
         </Observation>
      </resource>
   </entry>
   <entry>
      <fullUrl value="urn:uuid:10fb00e2-f473-4b7b-9348-732b907c0b57"/>
      <resource>
         <Observation>
            <id value="10fb00e2-f473-4b7b-9348-732b907c0b57"/>
            <meta>
               <profile value="http://hl7.eu/fhir/laboratory/StructureDefinition/Observation-resultslab-eu-lab"/>
            </meta>
            <text>
               <status value="generated"/>
               <div xmlns="http://www.w3.org/1999/xhtml">
                  <table class="hl7__eu__lab__report">
                     <tr>
                        <th>Test</th>
                        <th>05-May-2025</th>
                        <th>Reference Range</th>
                        <th>Unit</th>
                     </tr>
                     <tr>
                        <td>Carbon dioxide, total [Moles/volume] in Blood</td>
                        <td>20.4</td>
                        <td>22 - 32</td>
                        <td>L</td>
                        <td>mmol/L</td>
                     </tr>
                  </table>
               </div>
            </text>
            <status value="final"/>
            <category>
               <coding>
                  <system value="http://terminology.hl7.org/CodeSystem/observation-category"/>
                  <code value="laboratory"/>
               </coding>
            </category>
            <code>
               <coding>
                  <system value="http://loinc.org"/>
                  <code value="20565-8"/>
                  <display value="Carbon dioxide, total [Moles/volume] in Blood"/>
               </coding>
               <text value="Carbon dioxide, total [Moles/volume] in Blood"/>
            </code>
            <subject>
               <reference value="urn:uuid:30ed1032-5759-4783-abdd-fa5a2e097303"/>
               <display value="Alessio Fanucci"/>
            </subject>
            <effectiveDateTime value="2025-05-05T07:49:06Z"/>
            <performer>
               <display value="The Central European Lab"/>
            </performer>
            <valueQuantity>
               <value value="20.4"/>
               <unit value="mmol/L"/>
               <system value="http://unitsofmeasure.org"/>
               <code value="mmol/L"/>
            </valueQuantity>
            <interpretation>
               <coding>
                  <system value="http://terminology.hl7.org/CodeSystem/v3-ObservationInterpretation"/>
                  <code value="L"/>
                  <display value="Low"/>
               </coding>
            </interpretation>
            <specimen>
               <reference value="urn:uuid:cc7d7e49-2cbb-4389-a9cd-cb30a116d9e1"/>
            </specimen>
            <referenceRange>
               <low>
                  <value value="22"/>
                  <system value="http://unitsofmeasure.org"/>
                  <code value="mmol/L"/>
               </low>
            </referenceRange>
            <referenceRange>
               <high>
                  <value value="32"/>
                  <system value="http://unitsofmeasure.org"/>
                  <code value="mmol/L"/>
               </high>
            </referenceRange>
         </Observation>
      </resource>
   </entry>
   <entry>
      <fullUrl value="urn:uuid:3e250f97-3462-4cb9-b3f0-2bbc06a3acd9"/>
      <resource>
         <Observation>
            <id value="3e250f97-3462-4cb9-b3f0-2bbc06a3acd9"/>
            <meta>
               <profile value="http://hl7.eu/fhir/laboratory/StructureDefinition/Observation-resultslab-eu-lab"/>
            </meta>
            <text>
               <status value="generated"/>
               <div xmlns="http://www.w3.org/1999/xhtml">
                  <table class="hl7__eu__lab__report">
                     <tr>
                        <th>Test</th>
                        <th>05-May-2025</th>
                        <th>Reference Range</th>
                        <th>Unit</th>
                     </tr>
                     <tr>
                        <td>Cholesterol [Mass/volume] in Serum or Plasma</td>
                        <td>214.9</td>
                        <td>125 - 200</td>
                        <td>H</td>
                        <td>mg/dL</td>
                     </tr>
                  </table>
               </div>
            </text>
            <status value="final"/>
            <category>
               <coding>
                  <system value="http://terminology.hl7.org/CodeSystem/observation-category"/>
                  <code value="laboratory"/>
               </coding>
            </category>
            <code>
               <coding>
                  <system value="http://loinc.org"/>
                  <code value="2093-3"/>
                  <display value="Cholesterol [Mass/volume] in Serum or Plasma"/>
               </coding>
               <text value="Cholesterol [Mass/volume] in Serum or Plasma"/>
            </code>
            <subject>
               <reference value="urn:uuid:30ed1032-5759-4783-abdd-fa5a2e097303"/>
               <display value="Alessio Fanucci"/>
            </subject>
            <effectiveDateTime value="2025-05-05T07:49:06Z"/>
            <performer>
               <display value="The Central European Lab"/>
            </performer>
            <valueQuantity>
               <value value="214.9"/>
               <unit value="mg/dL"/>
               <system value="http://unitsofmeasure.org"/>
               <code value="mg/dL"/>
            </valueQuantity>
            <interpretation>
               <coding>
                  <system value="http://terminology.hl7.org/CodeSystem/v3-ObservationInterpretation"/>
                  <code value="H"/>
                  <display value="High"/>
               </coding>
            </interpretation>
            <specimen>
               <reference value="urn:uuid:30174e94-f909-4cba-8c88-f50f6e6d5314"/>
            </specimen>
            <referenceRange>
               <low>
                  <value value="125"/>
                  <system value="http://unitsofmeasure.org"/>
                  <code value="mg/dL"/>
               </low>
            </referenceRange>
            <referenceRange>
               <high>
                  <value value="200"/>
                  <system value="http://unitsofmeasure.org"/>
                  <code value="mg/dL"/>
               </high>
            </referenceRange>
         </Observation>
      </resource>
   </entry>
   <entry>
      <fullUrl value="urn:uuid:9c8f9d76-c499-42cf-8222-2cfb0b001051"/>
      <resource>
         <Observation>
            <id value="9c8f9d76-c499-42cf-8222-2cfb0b001051"/>
            <meta>
               <profile value="http://hl7.eu/fhir/laboratory/StructureDefinition/Observation-resultslab-eu-lab"/>
            </meta>
            <text>
               <status value="generated"/>
               <div xmlns="http://www.w3.org/1999/xhtml">
                  <table class="hl7__eu__lab__report">
                     <tr>
                        <th>Test</th>
                        <th>05-May-2025</th>
                        <th>Reference Range</th>
                        <th>Unit</th>
                     </tr>
                     <tr>
                        <td>Triglyceride [Mass/volume] in Serum or Plasma</td>
                        <td>141.2</td>
                        <td>0 - 150</td>
                        <td/>
                        <td>mg/dL</td>
                     </tr>
                  </table>
               </div>
            </text>
            <status value="final"/>
            <category>
               <coding>
                  <system value="http://terminology.hl7.org/CodeSystem/observation-category"/>
                  <code value="laboratory"/>
               </coding>
            </category>
            <code>
               <coding>
                  <system value="http://loinc.org"/>
                  <code value="2571-8"/>
                  <display value="Triglyceride [Mass/volume] in Serum or Plasma"/>
               </coding>
               <text value="Triglyceride [Mass/volume] in Serum or Plasma"/>
            </code>
            <subject>
               <reference value="urn:uuid:30ed1032-5759-4783-abdd-fa5a2e097303"/>
               <display value="Alessio Fanucci"/>
            </subject>
            <effectiveDateTime value="2025-05-05T07:49:06Z"/>
            <performer>
               <display value="The Central European Lab"/>
            </performer>
            <valueQuantity>
               <value value="141.2"/>
               <unit value="mg/dL"/>
               <system value="http://unitsofmeasure.org"/>
               <code value="mg/dL"/>
            </valueQuantity>
            <specimen>
               <reference value="urn:uuid:30174e94-f909-4cba-8c88-f50f6e6d5314"/>
            </specimen>
            <referenceRange>
               <low>
                  <value value="0"/>
                  <system value="http://unitsofmeasure.org"/>
                  <code value="mg/dL"/>
               </low>
            </referenceRange>
            <referenceRange>
               <high>
                  <value value="150"/>
                  <system value="http://unitsofmeasure.org"/>
                  <code value="mg/dL"/>
               </high>
            </referenceRange>
         </Observation>
      </resource>
   </entry>
   <entry>
      <fullUrl value="urn:uuid:12ca4e1a-a72e-4b84-bb53-30bc1db2b4de"/>
      <resource>
         <Observation>
            <id value="12ca4e1a-a72e-4b84-bb53-30bc1db2b4de"/>
            <meta>
               <profile value="http://hl7.eu/fhir/laboratory/StructureDefinition/Observation-resultslab-eu-lab"/>
            </meta>
            <text>
               <status value="generated"/>
               <div xmlns="http://www.w3.org/1999/xhtml">
                  <table class="hl7__eu__lab__report">
                     <tr>
                        <th>Test</th>
                        <th>05-May-2025</th>
                        <th>Reference Range</th>
                        <th>Unit</th>
                     </tr>
                     <tr>
                        <td>Cholesterol in LDL [Mass/volume] in Serum or Plasma by Direct assay</td>
                        <td>159.3</td>
                        <td>0 - 130</td>
                        <td>H</td>
                        <td>mg/dL</td>
                     </tr>
                  </table>
               </div>
            </text>
            <status value="final"/>
            <category>
               <coding>
                  <system value="http://terminology.hl7.org/CodeSystem/observation-category"/>
                  <code value="laboratory"/>
               </coding>
            </category>
            <code>
               <coding>
                  <system value="http://loinc.org"/>
                  <code value="18262-6"/>
                  <display value="Cholesterol in LDL [Mass/volume] in Serum or Plasma by Direct assay"/>
               </coding>
               <text value="Cholesterol in LDL [Mass/volume] in Serum or Plasma by Direct assay"/>
            </code>
            <subject>
               <reference value="urn:uuid:30ed1032-5759-4783-abdd-fa5a2e097303"/>
               <display value="Alessio Fanucci"/>
            </subject>
            <effectiveDateTime value="2025-05-05T07:49:06Z"/>
            <performer>
               <display value="The Central European Lab"/>
            </performer>
            <valueQuantity>
               <value value="159.3"/>
               <unit value="mg/dL"/>
               <system value="http://unitsofmeasure.org"/>
               <code value="mg/dL"/>
            </valueQuantity>
            <interpretation>
               <coding>
                  <system value="http://terminology.hl7.org/CodeSystem/v3-ObservationInterpretation"/>
                  <code value="H"/>
                  <display value="High"/>
               </coding>
            </interpretation>
            <specimen>
               <reference value="urn:uuid:30174e94-f909-4cba-8c88-f50f6e6d5314"/>
            </specimen>
            <referenceRange>
               <low>
                  <value value="0"/>
                  <system value="http://unitsofmeasure.org"/>
                  <code value="mg/dL"/>
               </low>
            </referenceRange>
            <referenceRange>
               <high>
                  <value value="130"/>
                  <system value="http://unitsofmeasure.org"/>
                  <code value="mg/dL"/>
               </high>
            </referenceRange>
         </Observation>
      </resource>
   </entry>
   <entry>
      <fullUrl value="urn:uuid:44253787-e7d2-4432-9932-dc167a33f4a2"/>
      <resource>
         <Observation>
            <id value="44253787-e7d2-4432-9932-dc167a33f4a2"/>
            <meta>
               <profile value="http://hl7.eu/fhir/laboratory/StructureDefinition/Observation-resultslab-eu-lab"/>
            </meta>
            <text>
               <status value="generated"/>
               <div xmlns="http://www.w3.org/1999/xhtml">
                  <table class="hl7__eu__lab__report">
                     <tr>
                        <th>Test</th>
                        <th>05-May-2025</th>
                        <th>Reference Range</th>
                        <th>Unit</th>
                     </tr>
                     <tr>
                        <td>Cholesterol in HDL [Mass/volume] in Serum or Plasma</td>
                        <td>27.4</td>
                        <td>40 - 60</td>
                        <td>L</td>
                        <td>mg/dL</td>
                     </tr>
                  </table>
               </div>
            </text>
            <status value="final"/>
            <category>
               <coding>
                  <system value="http://terminology.hl7.org/CodeSystem/observation-category"/>
                  <code value="laboratory"/>
               </coding>
            </category>
            <code>
               <coding>
                  <system value="http://loinc.org"/>
                  <code value="2085-9"/>
                  <display value="Cholesterol in HDL [Mass/volume] in Serum or Plasma"/>
               </coding>
               <text value="Cholesterol in HDL [Mass/volume] in Serum or Plasma"/>
            </code>
            <subject>
               <reference value="urn:uuid:30ed1032-5759-4783-abdd-fa5a2e097303"/>
               <display value="Alessio Fanucci"/>
            </subject>
            <effectiveDateTime value="2025-05-05T07:49:06Z"/>
            <performer>
               <display value="The Central European Lab"/>
            </performer>
            <valueQuantity>
               <value value="27.4"/>
               <unit value="mg/dL"/>
               <system value="http://unitsofmeasure.org"/>
               <code value="mg/dL"/>
            </valueQuantity>
            <interpretation>
               <coding>
                  <system value="http://terminology.hl7.org/CodeSystem/v3-ObservationInterpretation"/>
                  <code value="L"/>
                  <display value="Low"/>
               </coding>
            </interpretation>
            <specimen>
               <reference value="urn:uuid:30174e94-f909-4cba-8c88-f50f6e6d5314"/>
            </specimen>
            <referenceRange>
               <low>
                  <value value="40"/>
                  <system value="http://unitsofmeasure.org"/>
                  <code value="mg/dL"/>
               </low>
            </referenceRange>
            <referenceRange>
               <high>
                  <value value="60"/>
                  <system value="http://unitsofmeasure.org"/>
                  <code value="mg/dL"/>
               </high>
            </referenceRange>
         </Observation>
      </resource>
   </entry>
   <entry>
      <fullUrl value="urn:uuid:2803fcf8-d059-4cbb-9e09-b422a336f191"/>
      <resource>
         <Device>
            <id value="2803fcf8-d059-4cbb-9e09-b422a336f191"/>
            <text>
               <status value="generated"/>
               <div xmlns="http://www.w3.org/1999/xhtml">SYNDERAI Synthetic Generator v5.0</div>
            </text>
            <status value="active&#34;"/>
            <distinctIdentifier value="synderai-generator-50"/>
            <manufacturer value="SYNDERAI Project"/>
            <deviceName>
               <name value="SYNDERAI Synthetic Generator"/>
               <type value="manufacturer-name"/>
            </deviceName>
            <version>
               <value value="5.0"/>
            </version>
         </Device>
      </resource>
   </entry>
   <entry>
      <fullUrl value="urn:uuid:ab2b32ac-cecd-444b-a443-9c1b6afa1b88"/>
      <resource>
         <Provenance>
            <id value="ab2b32ac-cecd-444b-a443-9c1b6afa1b88"/>
            <text>
               <status value="generated"/>
               <div xmlns="http://www.w3.org/1999/xhtml">Provenance for SYNDERAI Synthetic Example Data Resource</div>
            </text>
            <target>
               <reference value="Patient/30ed1032-5759-4783-abdd-fa5a2e097303"/>
            </target>
            <target>
               <reference value="Bundle/61a70c39-12a6-4ca8-9a0d-2befbaed88cc"/>
            </target>
            <target>
               <reference value="Composition/703f957f-27c5-494a-80d3-0fde28c75fac"/>
            </target>
            <target>
               <reference value="PractitionerRole/6a9526d6-2177-4f2b-a874-11a8e510d77f"/>
            </target>
            <target>
               <reference value="Practitioner/d61449a0-c5db-4729-a264-579d073274bd"/>
            </target>
            <target>
               <reference value="PractitionerRole/1b7b0da8-efe8-4c12-99ce-898b8b8b3d57"/>
            </target>
            <target>
               <reference value="Organization/386d0ae8-2fbe-411e-9b51-4071aa2f937d"/>
            </target>
            <recorded value="2025-05-05T09:49:06Z"/>
            <policy value="https://synderai.net/synderai-synthetic-data-policy"/>
            <reason>
               <text value="Interoperability Testing and Training (non-clinical use)"/>
            </reason>
            <activity>
               <text value="Synthetic Example Data Generation"/>
            </activity>
            <agent>
               <type>
                  <text value="author"/>
               </type>
               <who>
                  <reference value="Device/2803fcf8-d059-4cbb-9e09-b422a336f191"/>
               </who>
            </agent>
         </Provenance>
      </resource>
   </entry>
   <entry>
      <fullUrl value="urn:uuid:6a9526d6-2177-4f2b-a874-11a8e510d77f"/>
      <resource>
         <PractitionerRole>
            <id value="6a9526d6-2177-4f2b-a874-11a8e510d77f"/>
            <meta>
               <profile value="http://hl7.eu/fhir/base/StructureDefinition/practitionerRole-eu"/>
            </meta>
            <text>
               <status value="generated"/>
               <div xmlns="http://www.w3.org/1999/xhtml">Laboratory Role Id: 6a9526d6-2177-4f2b-a874-11a8e510d77f</div>
            </text>
            <practitioner>
               <reference value="urn:uuid:d61449a0-c5db-4729-a264-579d073274bd"/>
            </practitioner>
         </PractitionerRole>
      </resource>
   </entry>
   <entry>
      <fullUrl value="urn:uuid:d61449a0-c5db-4729-a264-579d073274bd"/>
      <resource>
         <Practitioner>
            <id value="d61449a0-c5db-4729-a264-579d073274bd"/>
            <meta>
               <profile value="http://hl7.eu/fhir/base/StructureDefinition/practitioner-eu"/>
            </meta>
            <text>
               <status value="generated"/>
               <div xmlns="http://www.w3.org/1999/xhtml">Laboratory: Laboratoire Central Européenne, 1000 Brussels, Belgium</div>
            </text>
            <identifier>
               <system value="urn:oid:2.16.840.1.113883.2.51.999"/>
               <value value="d5ca8243-6800-405a-bd06-809130fb4160"/>
               <assigner>
                  <display value="HL7 Europe"/>
               </assigner>
            </identifier>
            <name>
               <family value="Ample"/>
               <given value="Ex"/>
               <prefix value="dr"/>
            </name>
            <address>
               <line value="Laboratoire Central Européenne"/>
               <line value="Boulevard du Jardin Botanique 32"/>
               <city value="Brussels"/>
               <postalCode value="1000"/>
               <country value="Belgium"/>
            </address>
         </Practitioner>
      </resource>
   </entry>
</Bundle>