{
  "resourceType": "Bundle",
  "id": "94c01649-17e8-456c-ad3d-6f05190edc6b",
  "meta": {
    "profile": [
      "http://hl7.eu/fhir/laboratory/StructureDefinition/Bundle-eu-lab"
    ]
  },
  "identifier": {
    "assigner": {
      "display": "HL7 Europe"
    },
    "system": "urn:oid:2.16.840.1.113883.2.51.999",
    "value": "944d5f1d-3caf-4ff7-8e2d-1fb09318f993"
  },
  "entry": [
    {
      "fullUrl": "urn:uuid:13c93731-c1b5-49ee-9b27-e5d1b42404d7",
      "resource": {
        "resourceType": "Composition",
        "id": "13c93731-c1b5-49ee-9b27-e5d1b42404d7",
        "meta": {
          "profile": [
            "http://hl7.eu/fhir/laboratory/StructureDefinition/Composition-eu-lab"
          ]
        },
        "identifier": {
          "assigner": {
            "display": "HL7 Europe"
          },
          "system": "urn:oid:2.16.840.1.113883.2.51.999",
          "value": "2479deff-4bbd-4a06-bff9-3919094689b7"
        },
        "author": [
          {
            "reference": "urn:uuid:a8732929-c991-4322-85b2-ba6211e79eaa"
          }
        ],
        "category": [
          {
            "coding": [
              {
                "code": "26436-6",
                "system": "http://loinc.org",
                "display": "Laboratory studies (set)"
              }
            ]
          }
        ],
        "type": {
          "coding": [
            {
              "code": "11502-2",
              "system": "http://loinc.org",
              "display": "Laboratory report"
            }
          ],
          "text": "Laboratory Report"
        },
        "section": [
          {
            "code": {
              "coding": [
                {
                  "code": "26436-6",
                  "system": "http://loinc.org",
                  "display": "Laboratory studies (set)"
                }
              ],
              "text": "Laboratory studies"
            },
            "section": [
              {
                "code": {
                  "coding": [
                    {
                      "code": "$18719-5",
                      "system": "http://loinc.org",
                      "display": "Chemistry studies (set)"
                    }
                  ],
                  "text": "Chemistry"
                },
                "entry": [
                  {
                    "reference": "urn:uuid:28d61ab6-60d3-4674-8822-5603e91a93be"
                  },
                  {
                    "reference": "urn:uuid:91d78a07-0b6a-4c81-b602-3f1b391cec95"
                  },
                  {
                    "reference": "urn:uuid:12ad99d8-f96e-4ca6-87bd-85adad877e0b"
                  },
                  {
                    "reference": "urn:uuid:5443b932-4b9b-45ae-97e4-c6fa57c3ee97"
                  },
                  {
                    "reference": "urn:uuid:47a1ae7d-fe60-4496-9aa8-76b8183f166a"
                  },
                  {
                    "reference": "urn:uuid:b4606ff0-cdee-49e0-b150-b84d16af4a54"
                  },
                  {
                    "reference": "urn:uuid:00348688-756b-4dde-b32b-850719398832"
                  },
                  {
                    "reference": "urn:uuid:fbf27677-6627-4541-b5fd-2ecfd1a4c35a"
                  },
                  {
                    "reference": "urn:uuid:6de51061-ab72-4a07-bb0c-580b6830f944"
                  },
                  {
                    "reference": "urn:uuid:0614d240-5882-46ff-9ead-7a008277bebb"
                  },
                  {
                    "reference": "urn:uuid:b9882b0d-7c8d-4ecb-b5b7-de58e86605a5"
                  },
                  {
                    "reference": "urn:uuid:67bbc669-1bce-4f6a-bafb-ad7c4465b855"
                  },
                  {
                    "reference": "urn:uuid:42021fa9-5280-4765-828c-77e8ab58a5b0"
                  },
                  {
                    "reference": "urn:uuid:adc80213-3733-4ed1-b2f4-f30de5cfc789"
                  },
                  {
                    "reference": "urn:uuid:d4abc379-ff09-4410-a626-812255d6527a"
                  },
                  {
                    "reference": "urn:uuid:c0824f26-d042-46a5-a792-2c61a11bc008"
                  },
                  {
                    "reference": "urn:uuid:5a7df217-e280-4eda-86c4-b07b0a62d139"
                  },
                  {
                    "reference": "urn:uuid:24d07400-8190-4d02-b1b6-729e37eab4f0"
                  },
                  {
                    "reference": "urn:uuid:67f36e88-a4e1-4d17-b7ac-66e0e2b00def"
                  }
                ],
                "text": {
                  "status": "generated",
                  "div": "<div xmlns=\"http://www.w3.org/1999/xhtml\"><h3>Chemistry</h3><table class=\"hl7__eu__lab__report\"><thead><tr><th>Test</th><th>05-OCT-2015</th><th>Reference&#xA0;Range</th><th>Unit</th></tr></thead><tbody><tr><td>Glucose [Mass/volume] in Blood</td><td>73.9</td><td>70 - 140</td><td>mg/dL</td></tr><tr><td>Urea nitrogen [Mass/volume] in Blood</td><td>13.7</td><td>7 - 25</td><td>mg/dL</td></tr><tr><td>Creatinine [Mass/volume] in Blood</td><td><strong>3.2 H</strong></td><td>0.6 - 1.1</td><td>mg/dL</td></tr><tr><td>Calcium [Mass/volume] in Blood</td><td>9.5</td><td>8.6 - 10.4</td><td>mg/dL</td></tr><tr><td>Sodium [Moles/volume] in Blood</td><td>136.9</td><td>135 - 145</td><td>mmol/L</td></tr><tr><td>Potassium [Moles/volume] in Blood</td><td>4.3</td><td>3.5 - 5.3</td><td>mmol/L</td></tr><tr><td>Chloride [Moles/volume] in Blood</td><td>106.1</td><td>98 - 108</td><td>mmol/L</td></tr><tr><td>Carbon dioxide, total [Moles/volume] in Blood</td><td>28.0</td><td>22 - 32</td><td>mmol/L</td></tr><tr><td>Protein [Mass/volume] in Serum or Plasma</td><td>6.7</td><td>6.6 - 8.3</td><td>g/dL</td></tr><tr><td>Albumin [Mass/volume] in Serum or Plasma</td><td>5.0</td><td>3.5 - 5.5</td><td>g/dL</td></tr><tr><td>Globulin [Mass/volume] in Serum by calculation</td><td>3.1</td><td>2.2 - 3.7</td><td>g/L</td></tr><tr><td>Bilirubin.total [Mass/volume] in Serum or Plasma</td><td>0.9</td><td>0.3 - 1.2</td><td>mg/dL</td></tr><tr><td>Alkaline phosphatase [Enzymatic activity/volume] in Serum or Plasma</td><td>90.2</td><td>40 - 130</td><td>U/L</td></tr><tr><td>Alanine aminotransferase [Enzymatic activity/volume] in Serum or Plasma</td><td>37.4</td><td>7 - 55</td><td>U/L</td></tr><tr><td>Aspartate aminotransferase [Enzymatic activity/volume] in Serum or Plasma</td><td>16.9</td><td>10 - 40</td><td>U/L</td></tr><tr><td>Cholesterol [Mass/volume] in Serum or Plasma</td><td>184.1</td><td>125 - 200</td><td>mg/dL</td></tr><tr><td>Triglyceride [Mass/volume] in Serum or Plasma</td><td>128.1</td><td>10 - 175</td><td>mg/dL</td></tr><tr><td>Cholesterol in LDL [Mass/volume] in Serum or Plasma by Direct assay</td><td>95.4</td><td>0 - 130</td><td>mg/dL</td></tr><tr><td>Cholesterol in HDL [Mass/volume] in Serum or Plasma</td><td>57.3</td><td>50 - 100</td><td>mg/dL</td></tr></tbody></table></div>"
                },
                "title": "Chemistry"
              }
            ],
            "title": "Laboratory Report"
          },
          {
            "text": {
              "status": "generated",
              "div": "<div xmlns=\"http://www.w3.org/1999/xhtml\"><h3>Annotation</h3><table class=\"hl7__eu__lab__report\"><tr><th>Conclusion and Recommendations based on this report and previous findings known to us</th></tr><tr><td>All parameters are within normal limits except for a significantly elevated creatinine (3.2 mg/dL), indicating impaired renal function. No electrolyte disturbances or liver enzyme abnormalities are present. Lipid profile, glucose, and protein levels are unremarkable. Recommend clinical correlation for possible chronic kidney disease and further nephrological evaluation.</td></tr></table></div>"
            },
            "code": {
              "coding": [
                {
                  "system": "http://loinc.org",
                  "code": "48767-8",
                  "display": "Annotation comment"
                }
              ]
            },
            "title": "Annotation comment"
          }
        ],
        "status": "final",
        "subject": {
          "reference": "urn:uuid:2b74d075-4b40-4c98-9098-7a20e32a1d95",
          "display": "Helene Andresen"
        },
        "date": "2015-10-05T00:53:36Z",
        "title": "Laboratory Report",
        "confidentiality": "N"
      }
    },
    {
      "fullUrl": "urn:uuid:969eca1d-6f3a-479e-9241-411d50dc1e94",
      "resource": {
        "resourceType": "DiagnosticReport",
        "id": "969eca1d-6f3a-479e-9241-411d50dc1e94",
        "meta": {
          "profile": [
            "http://hl7.eu/fhir/laboratory/StructureDefinition/DiagnosticReport-eu-lab"
          ]
        },
        "identifier": [
          {
            "assigner": {
              "display": "HL7 Europe"
            },
            "system": "urn:oid:2.16.840.1.113883.2.51.999",
            "value": "51892eb5-809a-4727-8586-5548204dc3d9"
          }
        ],
        "extension": [
          {
            "url": "http://hl7.org/fhir/5.0/StructureDefinition/extension-DiagnosticReport.composition",
            "valueReference": {
              "reference": "urn:uuid:2479deff-4bbd-4a06-bff9-3919094689b7"
            }
          }
        ],
        "category": [
          {
            "coding": [
              {
                "code": "26436-6",
                "system": "http://loinc.org",
                "display": "Laboratory studies (set)"
              }
            ]
          }
        ],
        "specimen": [
          {
            "reference": "urn:uuid:498ce407-27d9-41e4-8363-609fa5c14228"
          },
          {
            "reference": "urn:uuid:4fca8f28-b77f-47a3-83f6-bcb0afdc02be"
          },
          {
            "reference": "urn:uuid:0206c974-b0c4-47e8-ac5e-9e09ab6257f2"
          }
        ],
        "result": [
          {
            "reference": "urn:uuid:28d61ab6-60d3-4674-8822-5603e91a93be"
          },
          {
            "reference": "urn:uuid:91d78a07-0b6a-4c81-b602-3f1b391cec95"
          },
          {
            "reference": "urn:uuid:12ad99d8-f96e-4ca6-87bd-85adad877e0b"
          },
          {
            "reference": "urn:uuid:5443b932-4b9b-45ae-97e4-c6fa57c3ee97"
          },
          {
            "reference": "urn:uuid:47a1ae7d-fe60-4496-9aa8-76b8183f166a"
          },
          {
            "reference": "urn:uuid:b4606ff0-cdee-49e0-b150-b84d16af4a54"
          },
          {
            "reference": "urn:uuid:00348688-756b-4dde-b32b-850719398832"
          },
          {
            "reference": "urn:uuid:fbf27677-6627-4541-b5fd-2ecfd1a4c35a"
          },
          {
            "reference": "urn:uuid:6de51061-ab72-4a07-bb0c-580b6830f944"
          },
          {
            "reference": "urn:uuid:0614d240-5882-46ff-9ead-7a008277bebb"
          },
          {
            "reference": "urn:uuid:b9882b0d-7c8d-4ecb-b5b7-de58e86605a5"
          },
          {
            "reference": "urn:uuid:67bbc669-1bce-4f6a-bafb-ad7c4465b855"
          },
          {
            "reference": "urn:uuid:42021fa9-5280-4765-828c-77e8ab58a5b0"
          },
          {
            "reference": "urn:uuid:adc80213-3733-4ed1-b2f4-f30de5cfc789"
          },
          {
            "reference": "urn:uuid:d4abc379-ff09-4410-a626-812255d6527a"
          },
          {
            "reference": "urn:uuid:c0824f26-d042-46a5-a792-2c61a11bc008"
          },
          {
            "reference": "urn:uuid:5a7df217-e280-4eda-86c4-b07b0a62d139"
          },
          {
            "reference": "urn:uuid:24d07400-8190-4d02-b1b6-729e37eab4f0"
          },
          {
            "reference": "urn:uuid:67f36e88-a4e1-4d17-b7ac-66e0e2b00def"
          }
        ],
        "status": "registered",
        "code": {
          "coding": [
            {
              "code": "11502-2",
              "system": "http://loinc.org",
              "display": "Laboratory report"
            }
          ]
        },
        "subject": {
          "reference": "urn:uuid:2b74d075-4b40-4c98-9098-7a20e32a1d95",
          "display": "Helene Andresen"
        }
      }
    },
    {
      "fullUrl": "urn:uuid:2b74d075-4b40-4c98-9098-7a20e32a1d95",
      "resource": {
        "resourceType": "Patient",
        "id": "2b74d075-4b40-4c98-9098-7a20e32a1d95",
        "meta": {
          "security": [
            {
              "system": "http://terminology.hl7.org/CodeSystem/v3-ActReason",
              "code": "HTEST"
            },
            {
              "system": "http://terminology.hl7.org/CodeSystem/v3-ActReason",
              "code": "TRAIN"
            }
          ],
          "tag": [
            {
              "system": "https://synderai.net/fhir/CodeSystem/tags",
              "code": "synthetic",
              "display": "SYNDERAI Synthetic data"
            }
          ],
          "profile": [
            "http://hl7.eu/fhir/base/StructureDefinition/patient-eu-core"
          ]
        },
        "identifier": [
          {
            "type": {
              "coding": [
                {
                  "code": "PT",
                  "system": "http://terminology.hl7.org/CodeSystem/v2-0203"
                }
              ]
            },
            "system": "http://ec.europa.eu/identifier/eci",
            "value": "3450-170343-2"
          },
          {
            "type": {
              "coding": [
                {
                  "code": "MR",
                  "system": "http://terminology.hl7.org/CodeSystem/v2-0203"
                }
              ]
            },
            "system": "http://local.setting.eu/identifier",
            "value": "72e91c9c-0b01-42b0-a6a0-6dcc70aeec49"
          }
        ],
        "name": [
          {
            "family": "Andresen"
          },
          {
            "given": [
              "Helene"
            ]
          },
          {
            "text": "Helene Andresen"
          }
        ],
        "address": [
          {
            "line": [
              "Kristiansenberget 2"
            ],
            "use": "home",
            "type": "physical",
            "postalCode": "0172",
            "city": "Sørensen",
            "country": "Norway"
          }
        ],
        "telecom": [
          {
            "system": "phone",
            "value": "53 98 86 24"
          }
        ],
        "extension": [
          {
            "url": "http://hl7.org/fhir/StructureDefinition/patient-nationality",
            "valueCodeableConcept": {
              "coding": [
                {
                  "code": "NO",
                  "system": "http://hl7.org/fhir/ValueSet/country"
                }
              ]
            }
          }
        ],
        "text": {
          "status": "generated",
          "div": "<div xmlns=\"http://www.w3.org/1999/xhtml\"><table class=\"hl7__ips\"><tr><td>Helene Andresen</td><td>female</td><td>17-Oct-1939</td></tr></table></div>"
        },
        "gender": "female",
        "birthDate": "1939-10-17"
      }
    },
    {
      "fullUrl": "urn:uuid:0479ae55-8d58-4e1a-9c23-6125864e33f6",
      "resource": {
        "resourceType": "ServiceRequest",
        "id": "0479ae55-8d58-4e1a-9c23-6125864e33f6",
        "meta": {
          "profile": [
            "http://hl7.eu/fhir/laboratory/StructureDefinition/ServiceRequest-eu-lab"
          ]
        },
        "identifier": [
          {
            "system": "http://example.org",
            "value": "21cdd820-4a84-4a70-8a1b-6c5544dec079"
          }
        ],
        "specimen": [
          {
            "reference": "urn:uuid:498ce407-27d9-41e4-8363-609fa5c14228"
          },
          {
            "reference": "urn:uuid:4fca8f28-b77f-47a3-83f6-bcb0afdc02be"
          },
          {
            "reference": "urn:uuid:0206c974-b0c4-47e8-ac5e-9e09ab6257f2"
          }
        ],
        "reasonCode": [
          {
            "coding": [
              {
                "code": "64859006",
                "system": "http://snomed.info/sct",
                "display": "Osteoporosis"
              }
            ]
          },
          {
            "coding": [
              {
                "code": "40055000",
                "system": "http://snomed.info/sct",
                "display": "Chronic sinusitis"
              }
            ]
          },
          {
            "coding": [
              {
                "code": "55822004",
                "system": "http://snomed.info/sct",
                "display": "Hyperlipidemia"
              }
            ]
          },
          {
            "coding": [
              {
                "code": "271737000",
                "system": "http://snomed.info/sct",
                "display": "Anemia"
              }
            ]
          },
          {
            "coding": [
              {
                "code": "15777000",
                "system": "http://snomed.info/sct",
                "display": "Prediabetes"
              }
            ]
          },
          {
            "coding": [
              {
                "code": "128613002",
                "system": "http://snomed.info/sct",
                "display": "Seizure disorder"
              }
            ]
          }
        ],
        "status": "active",
        "intent": "order",
        "code": {
          "coding": [
            {
              "code": "108252007",
              "system": "http://snomed.info/sct",
              "display": "Laboratory procedure"
            }
          ]
        },
        "subject": {
          "reference": "urn:uuid:2b74d075-4b40-4c98-9098-7a20e32a1d95",
          "display": "Helene Andresen"
        },
        "requester": {
          "reference": "urn:uuid:23a1bc3b-790d-4b61-95b4-2ec70f7813db"
        }
      }
    },
    {
      "fullUrl": "urn:uuid:23a1bc3b-790d-4b61-95b4-2ec70f7813db",
      "resource": {
        "resourceType": "PractitionerRole",
        "id": "23a1bc3b-790d-4b61-95b4-2ec70f7813db",
        "meta": {
          "profile": [
            "http://hl7.eu/fhir/base/StructureDefinition/practitionerRole-eu"
          ]
        },
        "text": {
          "status": "generated",
          "div": "<div xmlns=\"http://www.w3.org/1999/xhtml\">Provider Role Id: 23a1bc3b-790d-4b61-95b4-2ec70f7813db</div>"
        },
        "organization": {
          "reference": "urn:uuid:01f9ec2e-893a-4c17-be40-498cc408d700"
        }
      }
    },
    {
      "fullUrl": "urn:uuid:01f9ec2e-893a-4c17-be40-498cc408d700",
      "resource": {
        "resourceType": "Organization",
        "id": "01f9ec2e-893a-4c17-be40-498cc408d700",
        "meta": {
          "profile": [
            "http://hl7.eu/fhir/base/StructureDefinition/organization-eu"
          ]
        },
        "identifier": [
          {
            "assigner": {
              "display": "HL7 Europe"
            },
            "system": "urn:oid:2.16.840.1.113883.2.51.999",
            "value": "63548d5d-32fb-4839-a6a4-13f0e0cb4d46"
          }
        ],
        "address": [
          {
            "city": "Oslo",
            "postalCode": "0155",
            "country": "Norway"
          }
        ],
        "text": {
          "status": "generated",
          "div": "<div xmlns=\"http://www.w3.org/1999/xhtml\">Provider Organization: Oslo universitetssykehus (Ullevål)</div>"
        },
        "name": "Oslo universitetssykehus (Ullevål)"
      }
    },
    {
      "fullUrl": "urn:uuid:498ce407-27d9-41e4-8363-609fa5c14228",
      "resource": {
        "resourceType": "Specimen",
        "id": "498ce407-27d9-41e4-8363-609fa5c14228",
        "meta": {
          "profile": [
            "http://hl7.eu/fhir/laboratory/StructureDefinition/Specimen-eu-lab"
          ]
        },
        "collection": {
          "collectedDateTime": "2015-10-04"
        },
        "text": {
          "status": "generated",
          "div": "<div xmlns=\"http://www.w3.org/1999/xhtml\"><table class=\"hl7__eu__lab__report\"><tr><th>Specimen</th><th>Collection Date</th></tr><tr><td>Whole blood specimen (specimen)</td><td><span class=\"nb\">04-Oct-2015</span></td></tr></table></div>"
        },
        "type": {
          "coding": [
            {
              "code": "258580003",
              "system": "http://snomed.info/sct",
              "display": "Whole blood specimen (specimen)"
            }
          ]
        }
      }
    },
    {
      "fullUrl": "urn:uuid:4fca8f28-b77f-47a3-83f6-bcb0afdc02be",
      "resource": {
        "resourceType": "Specimen",
        "id": "4fca8f28-b77f-47a3-83f6-bcb0afdc02be",
        "meta": {
          "profile": [
            "http://hl7.eu/fhir/laboratory/StructureDefinition/Specimen-eu-lab"
          ]
        },
        "collection": {
          "collectedDateTime": "2015-10-04"
        },
        "text": {
          "status": "generated",
          "div": "<div xmlns=\"http://www.w3.org/1999/xhtml\"><table class=\"hl7__eu__lab__report\"><tr><th>Specimen</th><th>Collection Date</th></tr><tr><td>Acellular blood (serum or plasma) specimen</td><td><span class=\"nb\">04-Oct-2015</span></td></tr></table></div>"
        },
        "type": {
          "coding": [
            {
              "code": "122592007",
              "system": "http://snomed.info/sct",
              "display": "Acellular blood (serum or plasma) specimen"
            }
          ]
        }
      }
    },
    {
      "fullUrl": "urn:uuid:0206c974-b0c4-47e8-ac5e-9e09ab6257f2",
      "resource": {
        "resourceType": "Specimen",
        "id": "0206c974-b0c4-47e8-ac5e-9e09ab6257f2",
        "meta": {
          "profile": [
            "http://hl7.eu/fhir/laboratory/StructureDefinition/Specimen-eu-lab"
          ]
        },
        "collection": {
          "collectedDateTime": "2015-10-04"
        },
        "text": {
          "status": "generated",
          "div": "<div xmlns=\"http://www.w3.org/1999/xhtml\"><table class=\"hl7__eu__lab__report\"><tr><th>Specimen</th><th>Collection Date</th></tr><tr><td>Serum specimen</td><td><span class=\"nb\">04-Oct-2015</span></td></tr></table></div>"
        },
        "type": {
          "coding": [
            {
              "code": "119364003",
              "system": "http://snomed.info/sct",
              "display": "Serum specimen"
            }
          ]
        }
      }
    },
    {
      "fullUrl": "urn:uuid:28d61ab6-60d3-4674-8822-5603e91a93be",
      "resource": {
        "resourceType": "Observation",
        "id": "28d61ab6-60d3-4674-8822-5603e91a93be",
        "meta": {
          "profile": [
            "http://hl7.eu/fhir/laboratory/StructureDefinition/Observation-resultslab-eu-lab"
          ]
        },
        "performer": [
          {
            "display": "The Central European Lab"
          }
        ],
        "category": [
          {
            "coding": [
              {
                "system": "http://terminology.hl7.org/CodeSystem/observation-category",
                "code": "laboratory"
              }
            ]
          }
        ],
        "code": {
          "coding": [
            {
              "code": "2339-0",
              "system": "http://loinc.org",
              "display": "Glucose [Mass/volume] in Blood"
            }
          ],
          "text": "Glucose [Mass/volume] in Blood"
        },
        "valueQuantity": {
          "system": "http://unitsofmeasure.org",
          "value": 73.9,
          "unit": "mg/dL",
          "code": "mg/dL"
        },
        "referenceRange": [
          {
            "low": {
              "value": 70,
              "code": "mg/dL",
              "system": "http://unitsofmeasure.org"
            }
          },
          {
            "high": {
              "value": 140,
              "code": "mg/dL",
              "system": "http://unitsofmeasure.org"
            }
          }
        ],
        "text": {
          "status": "generated",
          "div": "<div xmlns=\"http://www.w3.org/1999/xhtml\"><table class=\"hl7__eu__lab__report\"><tr><th>Test</th><th>05-Oct-2015</th><th>Reference&#xA0;Range</th><th>Unit</th></tr><tr><td>Glucose [Mass/volume] in Blood</td><td>73.9</td><td>70 - 140</td><td></td><td>mg/dL</td></tr></table></div>"
        },
        "status": "final",
        "subject": {
          "reference": "urn:uuid:2b74d075-4b40-4c98-9098-7a20e32a1d95",
          "display": "Helene Andresen"
        },
        "effectiveDateTime": "2015-10-04T22:53:36Z",
        "specimen": {
          "reference": "urn:uuid:498ce407-27d9-41e4-8363-609fa5c14228"
        }
      }
    },
    {
      "fullUrl": "urn:uuid:91d78a07-0b6a-4c81-b602-3f1b391cec95",
      "resource": {
        "resourceType": "Observation",
        "id": "91d78a07-0b6a-4c81-b602-3f1b391cec95",
        "meta": {
          "profile": [
            "http://hl7.eu/fhir/laboratory/StructureDefinition/Observation-resultslab-eu-lab"
          ]
        },
        "performer": [
          {
            "display": "The Central European Lab"
          }
        ],
        "category": [
          {
            "coding": [
              {
                "system": "http://terminology.hl7.org/CodeSystem/observation-category",
                "code": "laboratory"
              }
            ]
          }
        ],
        "code": {
          "coding": [
            {
              "code": "6299-2",
              "system": "http://loinc.org",
              "display": "Urea nitrogen [Mass/volume] in Blood"
            }
          ],
          "text": "Urea nitrogen [Mass/volume] in Blood"
        },
        "valueQuantity": {
          "system": "http://unitsofmeasure.org",
          "value": 13.7,
          "unit": "mg/dL",
          "code": "mg/dL"
        },
        "referenceRange": [
          {
            "low": {
              "value": 7,
              "code": "mg/dL",
              "system": "http://unitsofmeasure.org"
            }
          },
          {
            "high": {
              "value": 25,
              "code": "mg/dL",
              "system": "http://unitsofmeasure.org"
            }
          }
        ],
        "text": {
          "status": "generated",
          "div": "<div xmlns=\"http://www.w3.org/1999/xhtml\"><table class=\"hl7__eu__lab__report\"><tr><th>Test</th><th>05-Oct-2015</th><th>Reference&#xA0;Range</th><th>Unit</th></tr><tr><td>Urea nitrogen [Mass/volume] in Blood</td><td>13.7</td><td>7 - 25</td><td></td><td>mg/dL</td></tr></table></div>"
        },
        "status": "final",
        "subject": {
          "reference": "urn:uuid:2b74d075-4b40-4c98-9098-7a20e32a1d95",
          "display": "Helene Andresen"
        },
        "effectiveDateTime": "2015-10-04T22:53:36Z",
        "specimen": {
          "reference": "urn:uuid:498ce407-27d9-41e4-8363-609fa5c14228"
        }
      }
    },
    {
      "fullUrl": "urn:uuid:12ad99d8-f96e-4ca6-87bd-85adad877e0b",
      "resource": {
        "resourceType": "Observation",
        "id": "12ad99d8-f96e-4ca6-87bd-85adad877e0b",
        "meta": {
          "profile": [
            "http://hl7.eu/fhir/laboratory/StructureDefinition/Observation-resultslab-eu-lab"
          ]
        },
        "performer": [
          {
            "display": "The Central European Lab"
          }
        ],
        "category": [
          {
            "coding": [
              {
                "system": "http://terminology.hl7.org/CodeSystem/observation-category",
                "code": "laboratory"
              }
            ]
          }
        ],
        "code": {
          "coding": [
            {
              "code": "38483-4",
              "system": "http://loinc.org",
              "display": "Creatinine [Mass/volume] in Blood"
            }
          ],
          "text": "Creatinine [Mass/volume] in Blood"
        },
        "valueQuantity": {
          "system": "http://unitsofmeasure.org",
          "value": 3.2,
          "unit": "mg/dL",
          "code": "mg/dL"
        },
        "referenceRange": [
          {
            "low": {
              "value": 0.6,
              "code": "mg/dL",
              "system": "http://unitsofmeasure.org"
            }
          },
          {
            "high": {
              "value": 1.1,
              "code": "mg/dL",
              "system": "http://unitsofmeasure.org"
            }
          }
        ],
        "interpretation": [
          {
            "coding": [
              {
                "code": "H",
                "system": "http://terminology.hl7.org/CodeSystem/v3-ObservationInterpretation",
                "display": "High"
              }
            ]
          }
        ],
        "text": {
          "status": "generated",
          "div": "<div xmlns=\"http://www.w3.org/1999/xhtml\"><table class=\"hl7__eu__lab__report\"><tr><th>Test</th><th>05-Oct-2015</th><th>Reference&#xA0;Range</th><th>Unit</th></tr><tr><td>Creatinine [Mass/volume] in Blood</td><td>3.2</td><td>0.6 - 1.1</td><td>H</td><td>mg/dL</td></tr></table></div>"
        },
        "status": "final",
        "subject": {
          "reference": "urn:uuid:2b74d075-4b40-4c98-9098-7a20e32a1d95",
          "display": "Helene Andresen"
        },
        "effectiveDateTime": "2015-10-04T22:53:36Z",
        "specimen": {
          "reference": "urn:uuid:498ce407-27d9-41e4-8363-609fa5c14228"
        }
      }
    },
    {
      "fullUrl": "urn:uuid:5443b932-4b9b-45ae-97e4-c6fa57c3ee97",
      "resource": {
        "resourceType": "Observation",
        "id": "5443b932-4b9b-45ae-97e4-c6fa57c3ee97",
        "meta": {
          "profile": [
            "http://hl7.eu/fhir/laboratory/StructureDefinition/Observation-resultslab-eu-lab"
          ]
        },
        "performer": [
          {
            "display": "The Central European Lab"
          }
        ],
        "category": [
          {
            "coding": [
              {
                "system": "http://terminology.hl7.org/CodeSystem/observation-category",
                "code": "laboratory"
              }
            ]
          }
        ],
        "code": {
          "coding": [
            {
              "code": "49765-1",
              "system": "http://loinc.org",
              "display": "Calcium [Mass/volume] in Blood"
            }
          ],
          "text": "Calcium [Mass/volume] in Blood"
        },
        "valueQuantity": {
          "system": "http://unitsofmeasure.org",
          "value": 9.5,
          "unit": "mg/dL",
          "code": "mg/dL"
        },
        "referenceRange": [
          {
            "low": {
              "value": 8.6,
              "code": "mg/dL",
              "system": "http://unitsofmeasure.org"
            }
          },
          {
            "high": {
              "value": 10.4,
              "code": "mg/dL",
              "system": "http://unitsofmeasure.org"
            }
          }
        ],
        "text": {
          "status": "generated",
          "div": "<div xmlns=\"http://www.w3.org/1999/xhtml\"><table class=\"hl7__eu__lab__report\"><tr><th>Test</th><th>05-Oct-2015</th><th>Reference&#xA0;Range</th><th>Unit</th></tr><tr><td>Calcium [Mass/volume] in Blood</td><td>9.5</td><td>8.6 - 10.4</td><td></td><td>mg/dL</td></tr></table></div>"
        },
        "status": "final",
        "subject": {
          "reference": "urn:uuid:2b74d075-4b40-4c98-9098-7a20e32a1d95",
          "display": "Helene Andresen"
        },
        "effectiveDateTime": "2015-10-04T22:53:36Z",
        "specimen": {
          "reference": "urn:uuid:498ce407-27d9-41e4-8363-609fa5c14228"
        }
      }
    },
    {
      "fullUrl": "urn:uuid:47a1ae7d-fe60-4496-9aa8-76b8183f166a",
      "resource": {
        "resourceType": "Observation",
        "id": "47a1ae7d-fe60-4496-9aa8-76b8183f166a",
        "meta": {
          "profile": [
            "http://hl7.eu/fhir/laboratory/StructureDefinition/Observation-resultslab-eu-lab"
          ]
        },
        "performer": [
          {
            "display": "The Central European Lab"
          }
        ],
        "category": [
          {
            "coding": [
              {
                "system": "http://terminology.hl7.org/CodeSystem/observation-category",
                "code": "laboratory"
              }
            ]
          }
        ],
        "code": {
          "coding": [
            {
              "code": "2947-0",
              "system": "http://loinc.org",
              "display": "Sodium [Moles/volume] in Blood"
            }
          ],
          "text": "Sodium [Moles/volume] in Blood"
        },
        "valueQuantity": {
          "system": "http://unitsofmeasure.org",
          "value": 136.9,
          "unit": "mmol/L",
          "code": "mmol/L"
        },
        "referenceRange": [
          {
            "low": {
              "value": 135,
              "code": "mmol/L",
              "system": "http://unitsofmeasure.org"
            }
          },
          {
            "high": {
              "value": 145,
              "code": "mmol/L",
              "system": "http://unitsofmeasure.org"
            }
          }
        ],
        "text": {
          "status": "generated",
          "div": "<div xmlns=\"http://www.w3.org/1999/xhtml\"><table class=\"hl7__eu__lab__report\"><tr><th>Test</th><th>05-Oct-2015</th><th>Reference&#xA0;Range</th><th>Unit</th></tr><tr><td>Sodium [Moles/volume] in Blood</td><td>136.9</td><td>135 - 145</td><td></td><td>mmol/L</td></tr></table></div>"
        },
        "status": "final",
        "subject": {
          "reference": "urn:uuid:2b74d075-4b40-4c98-9098-7a20e32a1d95",
          "display": "Helene Andresen"
        },
        "effectiveDateTime": "2015-10-04T22:53:36Z",
        "specimen": {
          "reference": "urn:uuid:498ce407-27d9-41e4-8363-609fa5c14228"
        }
      }
    },
    {
      "fullUrl": "urn:uuid:b4606ff0-cdee-49e0-b150-b84d16af4a54",
      "resource": {
        "resourceType": "Observation",
        "id": "b4606ff0-cdee-49e0-b150-b84d16af4a54",
        "meta": {
          "profile": [
            "http://hl7.eu/fhir/laboratory/StructureDefinition/Observation-resultslab-eu-lab"
          ]
        },
        "performer": [
          {
            "display": "The Central European Lab"
          }
        ],
        "category": [
          {
            "coding": [
              {
                "system": "http://terminology.hl7.org/CodeSystem/observation-category",
                "code": "laboratory"
              }
            ]
          }
        ],
        "code": {
          "coding": [
            {
              "code": "6298-4",
              "system": "http://loinc.org",
              "display": "Potassium [Moles/volume] in Blood"
            }
          ],
          "text": "Potassium [Moles/volume] in Blood"
        },
        "valueQuantity": {
          "system": "http://unitsofmeasure.org",
          "value": 4.3,
          "unit": "mmol/L",
          "code": "mmol/L"
        },
        "referenceRange": [
          {
            "low": {
              "value": 3.5,
              "code": "mmol/L",
              "system": "http://unitsofmeasure.org"
            }
          },
          {
            "high": {
              "value": 5.3,
              "code": "mmol/L",
              "system": "http://unitsofmeasure.org"
            }
          }
        ],
        "text": {
          "status": "generated",
          "div": "<div xmlns=\"http://www.w3.org/1999/xhtml\"><table class=\"hl7__eu__lab__report\"><tr><th>Test</th><th>05-Oct-2015</th><th>Reference&#xA0;Range</th><th>Unit</th></tr><tr><td>Potassium [Moles/volume] in Blood</td><td>4.3</td><td>3.5 - 5.3</td><td></td><td>mmol/L</td></tr></table></div>"
        },
        "status": "final",
        "subject": {
          "reference": "urn:uuid:2b74d075-4b40-4c98-9098-7a20e32a1d95",
          "display": "Helene Andresen"
        },
        "effectiveDateTime": "2015-10-04T22:53:36Z",
        "specimen": {
          "reference": "urn:uuid:498ce407-27d9-41e4-8363-609fa5c14228"
        }
      }
    },
    {
      "fullUrl": "urn:uuid:00348688-756b-4dde-b32b-850719398832",
      "resource": {
        "resourceType": "Observation",
        "id": "00348688-756b-4dde-b32b-850719398832",
        "meta": {
          "profile": [
            "http://hl7.eu/fhir/laboratory/StructureDefinition/Observation-resultslab-eu-lab"
          ]
        },
        "performer": [
          {
            "display": "The Central European Lab"
          }
        ],
        "category": [
          {
            "coding": [
              {
                "system": "http://terminology.hl7.org/CodeSystem/observation-category",
                "code": "laboratory"
              }
            ]
          }
        ],
        "code": {
          "coding": [
            {
              "code": "2069-3",
              "system": "http://loinc.org",
              "display": "Chloride [Moles/volume] in Blood"
            }
          ],
          "text": "Chloride [Moles/volume] in Blood"
        },
        "valueQuantity": {
          "system": "http://unitsofmeasure.org",
          "value": 106.1,
          "unit": "mmol/L",
          "code": "mmol/L"
        },
        "referenceRange": [
          {
            "low": {
              "value": 98,
              "code": "mmol/L",
              "system": "http://unitsofmeasure.org"
            }
          },
          {
            "high": {
              "value": 108,
              "code": "mmol/L",
              "system": "http://unitsofmeasure.org"
            }
          }
        ],
        "text": {
          "status": "generated",
          "div": "<div xmlns=\"http://www.w3.org/1999/xhtml\"><table class=\"hl7__eu__lab__report\"><tr><th>Test</th><th>05-Oct-2015</th><th>Reference&#xA0;Range</th><th>Unit</th></tr><tr><td>Chloride [Moles/volume] in Blood</td><td>106.1</td><td>98 - 108</td><td></td><td>mmol/L</td></tr></table></div>"
        },
        "status": "final",
        "subject": {
          "reference": "urn:uuid:2b74d075-4b40-4c98-9098-7a20e32a1d95",
          "display": "Helene Andresen"
        },
        "effectiveDateTime": "2015-10-04T22:53:36Z",
        "specimen": {
          "reference": "urn:uuid:498ce407-27d9-41e4-8363-609fa5c14228"
        }
      }
    },
    {
      "fullUrl": "urn:uuid:fbf27677-6627-4541-b5fd-2ecfd1a4c35a",
      "resource": {
        "resourceType": "Observation",
        "id": "fbf27677-6627-4541-b5fd-2ecfd1a4c35a",
        "meta": {
          "profile": [
            "http://hl7.eu/fhir/laboratory/StructureDefinition/Observation-resultslab-eu-lab"
          ]
        },
        "performer": [
          {
            "display": "The Central European Lab"
          }
        ],
        "category": [
          {
            "coding": [
              {
                "system": "http://terminology.hl7.org/CodeSystem/observation-category",
                "code": "laboratory"
              }
            ]
          }
        ],
        "code": {
          "coding": [
            {
              "code": "20565-8",
              "system": "http://loinc.org",
              "display": "Carbon dioxide, total [Moles/volume] in Blood"
            }
          ],
          "text": "Carbon dioxide, total [Moles/volume] in Blood"
        },
        "valueQuantity": {
          "system": "http://unitsofmeasure.org",
          "value": 28,
          "unit": "mmol/L",
          "code": "mmol/L"
        },
        "referenceRange": [
          {
            "low": {
              "value": 22,
              "code": "mmol/L",
              "system": "http://unitsofmeasure.org"
            }
          },
          {
            "high": {
              "value": 32,
              "code": "mmol/L",
              "system": "http://unitsofmeasure.org"
            }
          }
        ],
        "text": {
          "status": "generated",
          "div": "<div xmlns=\"http://www.w3.org/1999/xhtml\"><table class=\"hl7__eu__lab__report\"><tr><th>Test</th><th>05-Oct-2015</th><th>Reference&#xA0;Range</th><th>Unit</th></tr><tr><td>Carbon dioxide, total [Moles/volume] in Blood</td><td>28.0</td><td>22 - 32</td><td></td><td>mmol/L</td></tr></table></div>"
        },
        "status": "final",
        "subject": {
          "reference": "urn:uuid:2b74d075-4b40-4c98-9098-7a20e32a1d95",
          "display": "Helene Andresen"
        },
        "effectiveDateTime": "2015-10-04T22:53:36Z",
        "specimen": {
          "reference": "urn:uuid:498ce407-27d9-41e4-8363-609fa5c14228"
        }
      }
    },
    {
      "fullUrl": "urn:uuid:6de51061-ab72-4a07-bb0c-580b6830f944",
      "resource": {
        "resourceType": "Observation",
        "id": "6de51061-ab72-4a07-bb0c-580b6830f944",
        "meta": {
          "profile": [
            "http://hl7.eu/fhir/laboratory/StructureDefinition/Observation-resultslab-eu-lab"
          ]
        },
        "performer": [
          {
            "display": "The Central European Lab"
          }
        ],
        "category": [
          {
            "coding": [
              {
                "system": "http://terminology.hl7.org/CodeSystem/observation-category",
                "code": "laboratory"
              }
            ]
          }
        ],
        "code": {
          "coding": [
            {
              "code": "2885-2",
              "system": "http://loinc.org",
              "display": "Protein [Mass/volume] in Serum or Plasma"
            }
          ],
          "text": "Protein [Mass/volume] in Serum or Plasma"
        },
        "valueQuantity": {
          "system": "http://unitsofmeasure.org",
          "value": 6.7,
          "unit": "g/dL",
          "code": "g/dL"
        },
        "referenceRange": [
          {
            "low": {
              "value": 6.6,
              "code": "g/dL",
              "system": "http://unitsofmeasure.org"
            }
          },
          {
            "high": {
              "value": 8.3,
              "code": "g/dL",
              "system": "http://unitsofmeasure.org"
            }
          }
        ],
        "text": {
          "status": "generated",
          "div": "<div xmlns=\"http://www.w3.org/1999/xhtml\"><table class=\"hl7__eu__lab__report\"><tr><th>Test</th><th>05-Oct-2015</th><th>Reference&#xA0;Range</th><th>Unit</th></tr><tr><td>Protein [Mass/volume] in Serum or Plasma</td><td>6.7</td><td>6.6 - 8.3</td><td></td><td>g/dL</td></tr></table></div>"
        },
        "status": "final",
        "subject": {
          "reference": "urn:uuid:2b74d075-4b40-4c98-9098-7a20e32a1d95",
          "display": "Helene Andresen"
        },
        "effectiveDateTime": "2015-10-04T22:53:36Z",
        "specimen": {
          "reference": "urn:uuid:4fca8f28-b77f-47a3-83f6-bcb0afdc02be"
        }
      }
    },
    {
      "fullUrl": "urn:uuid:0614d240-5882-46ff-9ead-7a008277bebb",
      "resource": {
        "resourceType": "Observation",
        "id": "0614d240-5882-46ff-9ead-7a008277bebb",
        "meta": {
          "profile": [
            "http://hl7.eu/fhir/laboratory/StructureDefinition/Observation-resultslab-eu-lab"
          ]
        },
        "performer": [
          {
            "display": "The Central European Lab"
          }
        ],
        "category": [
          {
            "coding": [
              {
                "system": "http://terminology.hl7.org/CodeSystem/observation-category",
                "code": "laboratory"
              }
            ]
          }
        ],
        "code": {
          "coding": [
            {
              "code": "1751-7",
              "system": "http://loinc.org",
              "display": "Albumin [Mass/volume] in Serum or Plasma"
            }
          ],
          "text": "Albumin [Mass/volume] in Serum or Plasma"
        },
        "valueQuantity": {
          "system": "http://unitsofmeasure.org",
          "value": 5,
          "unit": "g/dL",
          "code": "g/dL"
        },
        "referenceRange": [
          {
            "low": {
              "value": 3.5,
              "code": "g/dL",
              "system": "http://unitsofmeasure.org"
            }
          },
          {
            "high": {
              "value": 5.5,
              "code": "g/dL",
              "system": "http://unitsofmeasure.org"
            }
          }
        ],
        "text": {
          "status": "generated",
          "div": "<div xmlns=\"http://www.w3.org/1999/xhtml\"><table class=\"hl7__eu__lab__report\"><tr><th>Test</th><th>05-Oct-2015</th><th>Reference&#xA0;Range</th><th>Unit</th></tr><tr><td>Albumin [Mass/volume] in Serum or Plasma</td><td>5.0</td><td>3.5 - 5.5</td><td></td><td>g/dL</td></tr></table></div>"
        },
        "status": "final",
        "subject": {
          "reference": "urn:uuid:2b74d075-4b40-4c98-9098-7a20e32a1d95",
          "display": "Helene Andresen"
        },
        "effectiveDateTime": "2015-10-04T22:53:36Z",
        "specimen": {
          "reference": "urn:uuid:4fca8f28-b77f-47a3-83f6-bcb0afdc02be"
        }
      }
    },
    {
      "fullUrl": "urn:uuid:b9882b0d-7c8d-4ecb-b5b7-de58e86605a5",
      "resource": {
        "resourceType": "Observation",
        "id": "b9882b0d-7c8d-4ecb-b5b7-de58e86605a5",
        "meta": {
          "profile": [
            "http://hl7.eu/fhir/laboratory/StructureDefinition/Observation-resultslab-eu-lab"
          ]
        },
        "performer": [
          {
            "display": "The Central European Lab"
          }
        ],
        "category": [
          {
            "coding": [
              {
                "system": "http://terminology.hl7.org/CodeSystem/observation-category",
                "code": "laboratory"
              }
            ]
          }
        ],
        "code": {
          "coding": [
            {
              "code": "10834-0",
              "system": "http://loinc.org",
              "display": "Globulin [Mass/volume] in Serum by calculation"
            }
          ],
          "text": "Globulin [Mass/volume] in Serum by calculation"
        },
        "valueQuantity": {
          "system": "http://unitsofmeasure.org",
          "value": 3.1,
          "unit": "g/L",
          "code": "g/L"
        },
        "referenceRange": [
          {
            "low": {
              "value": 2.2,
              "code": "g/L",
              "system": "http://unitsofmeasure.org"
            }
          },
          {
            "high": {
              "value": 3.7,
              "code": "g/L",
              "system": "http://unitsofmeasure.org"
            }
          }
        ],
        "text": {
          "status": "generated",
          "div": "<div xmlns=\"http://www.w3.org/1999/xhtml\"><table class=\"hl7__eu__lab__report\"><tr><th>Test</th><th>05-Oct-2015</th><th>Reference&#xA0;Range</th><th>Unit</th></tr><tr><td>Globulin [Mass/volume] in Serum by calculation</td><td>3.1</td><td>2.2 - 3.7</td><td></td><td>g/L</td></tr></table></div>"
        },
        "status": "final",
        "subject": {
          "reference": "urn:uuid:2b74d075-4b40-4c98-9098-7a20e32a1d95",
          "display": "Helene Andresen"
        },
        "effectiveDateTime": "2015-10-04T22:53:36Z",
        "specimen": {
          "reference": "urn:uuid:0206c974-b0c4-47e8-ac5e-9e09ab6257f2"
        }
      }
    },
    {
      "fullUrl": "urn:uuid:67bbc669-1bce-4f6a-bafb-ad7c4465b855",
      "resource": {
        "resourceType": "Observation",
        "id": "67bbc669-1bce-4f6a-bafb-ad7c4465b855",
        "meta": {
          "profile": [
            "http://hl7.eu/fhir/laboratory/StructureDefinition/Observation-resultslab-eu-lab"
          ]
        },
        "performer": [
          {
            "display": "The Central European Lab"
          }
        ],
        "category": [
          {
            "coding": [
              {
                "system": "http://terminology.hl7.org/CodeSystem/observation-category",
                "code": "laboratory"
              }
            ]
          }
        ],
        "code": {
          "coding": [
            {
              "code": "1975-2",
              "system": "http://loinc.org",
              "display": "Bilirubin.total [Mass/volume] in Serum or Plasma"
            }
          ],
          "text": "Bilirubin.total [Mass/volume] in Serum or Plasma"
        },
        "valueQuantity": {
          "system": "http://unitsofmeasure.org",
          "value": 0.9,
          "unit": "mg/dL",
          "code": "mg/dL"
        },
        "referenceRange": [
          {
            "low": {
              "value": 0.3,
              "code": "mg/dL",
              "system": "http://unitsofmeasure.org"
            }
          },
          {
            "high": {
              "value": 1.2,
              "code": "mg/dL",
              "system": "http://unitsofmeasure.org"
            }
          }
        ],
        "text": {
          "status": "generated",
          "div": "<div xmlns=\"http://www.w3.org/1999/xhtml\"><table class=\"hl7__eu__lab__report\"><tr><th>Test</th><th>05-Oct-2015</th><th>Reference&#xA0;Range</th><th>Unit</th></tr><tr><td>Bilirubin.total [Mass/volume] in Serum or Plasma</td><td>0.9</td><td>0.3 - 1.2</td><td></td><td>mg/dL</td></tr></table></div>"
        },
        "status": "final",
        "subject": {
          "reference": "urn:uuid:2b74d075-4b40-4c98-9098-7a20e32a1d95",
          "display": "Helene Andresen"
        },
        "effectiveDateTime": "2015-10-04T22:53:36Z",
        "specimen": {
          "reference": "urn:uuid:4fca8f28-b77f-47a3-83f6-bcb0afdc02be"
        }
      }
    },
    {
      "fullUrl": "urn:uuid:42021fa9-5280-4765-828c-77e8ab58a5b0",
      "resource": {
        "resourceType": "Observation",
        "id": "42021fa9-5280-4765-828c-77e8ab58a5b0",
        "meta": {
          "profile": [
            "http://hl7.eu/fhir/laboratory/StructureDefinition/Observation-resultslab-eu-lab"
          ]
        },
        "performer": [
          {
            "display": "The Central European Lab"
          }
        ],
        "category": [
          {
            "coding": [
              {
                "system": "http://terminology.hl7.org/CodeSystem/observation-category",
                "code": "laboratory"
              }
            ]
          }
        ],
        "code": {
          "coding": [
            {
              "code": "6768-6",
              "system": "http://loinc.org",
              "display": "Alkaline phosphatase [Enzymatic activity/volume] in Serum or Plasma"
            }
          ],
          "text": "Alkaline phosphatase [Enzymatic activity/volume] in Serum or Plasma"
        },
        "valueQuantity": {
          "system": "http://unitsofmeasure.org",
          "value": 90.2,
          "unit": "U/L",
          "code": "U/L"
        },
        "referenceRange": [
          {
            "low": {
              "value": 40,
              "code": "U/L",
              "system": "http://unitsofmeasure.org"
            }
          },
          {
            "high": {
              "value": 130,
              "code": "U/L",
              "system": "http://unitsofmeasure.org"
            }
          }
        ],
        "text": {
          "status": "generated",
          "div": "<div xmlns=\"http://www.w3.org/1999/xhtml\"><table class=\"hl7__eu__lab__report\"><tr><th>Test</th><th>05-Oct-2015</th><th>Reference&#xA0;Range</th><th>Unit</th></tr><tr><td>Alkaline phosphatase [Enzymatic activity/volume] in Serum or Plasma</td><td>90.2</td><td>40 - 130</td><td></td><td>U/L</td></tr></table></div>"
        },
        "status": "final",
        "subject": {
          "reference": "urn:uuid:2b74d075-4b40-4c98-9098-7a20e32a1d95",
          "display": "Helene Andresen"
        },
        "effectiveDateTime": "2015-10-04T22:53:36Z",
        "specimen": {
          "reference": "urn:uuid:4fca8f28-b77f-47a3-83f6-bcb0afdc02be"
        }
      }
    },
    {
      "fullUrl": "urn:uuid:adc80213-3733-4ed1-b2f4-f30de5cfc789",
      "resource": {
        "resourceType": "Observation",
        "id": "adc80213-3733-4ed1-b2f4-f30de5cfc789",
        "meta": {
          "profile": [
            "http://hl7.eu/fhir/laboratory/StructureDefinition/Observation-resultslab-eu-lab"
          ]
        },
        "performer": [
          {
            "display": "The Central European Lab"
          }
        ],
        "category": [
          {
            "coding": [
              {
                "system": "http://terminology.hl7.org/CodeSystem/observation-category",
                "code": "laboratory"
              }
            ]
          }
        ],
        "code": {
          "coding": [
            {
              "code": "1742-6",
              "system": "http://loinc.org",
              "display": "Alanine aminotransferase [Enzymatic activity/volume] in Serum or Plasma"
            }
          ],
          "text": "Alanine aminotransferase [Enzymatic activity/volume] in Serum or Plasma"
        },
        "valueQuantity": {
          "system": "http://unitsofmeasure.org",
          "value": 37.4,
          "unit": "U/L",
          "code": "U/L"
        },
        "referenceRange": [
          {
            "low": {
              "value": 7,
              "code": "U/L",
              "system": "http://unitsofmeasure.org"
            }
          },
          {
            "high": {
              "value": 55,
              "code": "U/L",
              "system": "http://unitsofmeasure.org"
            }
          }
        ],
        "text": {
          "status": "generated",
          "div": "<div xmlns=\"http://www.w3.org/1999/xhtml\"><table class=\"hl7__eu__lab__report\"><tr><th>Test</th><th>05-Oct-2015</th><th>Reference&#xA0;Range</th><th>Unit</th></tr><tr><td>Alanine aminotransferase [Enzymatic activity/volume] in Serum or Plasma</td><td>37.4</td><td>7 - 55</td><td></td><td>U/L</td></tr></table></div>"
        },
        "status": "final",
        "subject": {
          "reference": "urn:uuid:2b74d075-4b40-4c98-9098-7a20e32a1d95",
          "display": "Helene Andresen"
        },
        "effectiveDateTime": "2015-10-04T22:53:36Z",
        "specimen": {
          "reference": "urn:uuid:4fca8f28-b77f-47a3-83f6-bcb0afdc02be"
        }
      }
    },
    {
      "fullUrl": "urn:uuid:d4abc379-ff09-4410-a626-812255d6527a",
      "resource": {
        "resourceType": "Observation",
        "id": "d4abc379-ff09-4410-a626-812255d6527a",
        "meta": {
          "profile": [
            "http://hl7.eu/fhir/laboratory/StructureDefinition/Observation-resultslab-eu-lab"
          ]
        },
        "performer": [
          {
            "display": "The Central European Lab"
          }
        ],
        "category": [
          {
            "coding": [
              {
                "system": "http://terminology.hl7.org/CodeSystem/observation-category",
                "code": "laboratory"
              }
            ]
          }
        ],
        "code": {
          "coding": [
            {
              "code": "1920-8",
              "system": "http://loinc.org",
              "display": "Aspartate aminotransferase [Enzymatic activity/volume] in Serum or Plasma"
            }
          ],
          "text": "Aspartate aminotransferase [Enzymatic activity/volume] in Serum or Plasma"
        },
        "valueQuantity": {
          "system": "http://unitsofmeasure.org",
          "value": 16.9,
          "unit": "U/L",
          "code": "U/L"
        },
        "referenceRange": [
          {
            "low": {
              "value": 10,
              "code": "U/L",
              "system": "http://unitsofmeasure.org"
            }
          },
          {
            "high": {
              "value": 40,
              "code": "U/L",
              "system": "http://unitsofmeasure.org"
            }
          }
        ],
        "text": {
          "status": "generated",
          "div": "<div xmlns=\"http://www.w3.org/1999/xhtml\"><table class=\"hl7__eu__lab__report\"><tr><th>Test</th><th>05-Oct-2015</th><th>Reference&#xA0;Range</th><th>Unit</th></tr><tr><td>Aspartate aminotransferase [Enzymatic activity/volume] in Serum or Plasma</td><td>16.9</td><td>10 - 40</td><td></td><td>U/L</td></tr></table></div>"
        },
        "status": "final",
        "subject": {
          "reference": "urn:uuid:2b74d075-4b40-4c98-9098-7a20e32a1d95",
          "display": "Helene Andresen"
        },
        "effectiveDateTime": "2015-10-04T22:53:36Z",
        "specimen": {
          "reference": "urn:uuid:4fca8f28-b77f-47a3-83f6-bcb0afdc02be"
        }
      }
    },
    {
      "fullUrl": "urn:uuid:c0824f26-d042-46a5-a792-2c61a11bc008",
      "resource": {
        "resourceType": "Observation",
        "id": "c0824f26-d042-46a5-a792-2c61a11bc008",
        "meta": {
          "profile": [
            "http://hl7.eu/fhir/laboratory/StructureDefinition/Observation-resultslab-eu-lab"
          ]
        },
        "performer": [
          {
            "display": "The Central European Lab"
          }
        ],
        "category": [
          {
            "coding": [
              {
                "system": "http://terminology.hl7.org/CodeSystem/observation-category",
                "code": "laboratory"
              }
            ]
          }
        ],
        "code": {
          "coding": [
            {
              "code": "2093-3",
              "system": "http://loinc.org",
              "display": "Cholesterol [Mass/volume] in Serum or Plasma"
            }
          ],
          "text": "Cholesterol [Mass/volume] in Serum or Plasma"
        },
        "valueQuantity": {
          "system": "http://unitsofmeasure.org",
          "value": 184.1,
          "unit": "mg/dL",
          "code": "mg/dL"
        },
        "referenceRange": [
          {
            "low": {
              "value": 125,
              "code": "mg/dL",
              "system": "http://unitsofmeasure.org"
            }
          },
          {
            "high": {
              "value": 200,
              "code": "mg/dL",
              "system": "http://unitsofmeasure.org"
            }
          }
        ],
        "text": {
          "status": "generated",
          "div": "<div xmlns=\"http://www.w3.org/1999/xhtml\"><table class=\"hl7__eu__lab__report\"><tr><th>Test</th><th>05-Oct-2015</th><th>Reference&#xA0;Range</th><th>Unit</th></tr><tr><td>Cholesterol [Mass/volume] in Serum or Plasma</td><td>184.1</td><td>125 - 200</td><td></td><td>mg/dL</td></tr></table></div>"
        },
        "status": "final",
        "subject": {
          "reference": "urn:uuid:2b74d075-4b40-4c98-9098-7a20e32a1d95",
          "display": "Helene Andresen"
        },
        "effectiveDateTime": "2015-10-04T22:53:36Z",
        "specimen": {
          "reference": "urn:uuid:4fca8f28-b77f-47a3-83f6-bcb0afdc02be"
        }
      }
    },
    {
      "fullUrl": "urn:uuid:5a7df217-e280-4eda-86c4-b07b0a62d139",
      "resource": {
        "resourceType": "Observation",
        "id": "5a7df217-e280-4eda-86c4-b07b0a62d139",
        "meta": {
          "profile": [
            "http://hl7.eu/fhir/laboratory/StructureDefinition/Observation-resultslab-eu-lab"
          ]
        },
        "performer": [
          {
            "display": "The Central European Lab"
          }
        ],
        "category": [
          {
            "coding": [
              {
                "system": "http://terminology.hl7.org/CodeSystem/observation-category",
                "code": "laboratory"
              }
            ]
          }
        ],
        "code": {
          "coding": [
            {
              "code": "2571-8",
              "system": "http://loinc.org",
              "display": "Triglyceride [Mass/volume] in Serum or Plasma"
            }
          ],
          "text": "Triglyceride [Mass/volume] in Serum or Plasma"
        },
        "valueQuantity": {
          "system": "http://unitsofmeasure.org",
          "value": 128.1,
          "unit": "mg/dL",
          "code": "mg/dL"
        },
        "referenceRange": [
          {
            "low": {
              "value": 10,
              "code": "mg/dL",
              "system": "http://unitsofmeasure.org"
            }
          },
          {
            "high": {
              "value": 175,
              "code": "mg/dL",
              "system": "http://unitsofmeasure.org"
            }
          }
        ],
        "text": {
          "status": "generated",
          "div": "<div xmlns=\"http://www.w3.org/1999/xhtml\"><table class=\"hl7__eu__lab__report\"><tr><th>Test</th><th>05-Oct-2015</th><th>Reference&#xA0;Range</th><th>Unit</th></tr><tr><td>Triglyceride [Mass/volume] in Serum or Plasma</td><td>128.1</td><td>10 - 175</td><td></td><td>mg/dL</td></tr></table></div>"
        },
        "status": "final",
        "subject": {
          "reference": "urn:uuid:2b74d075-4b40-4c98-9098-7a20e32a1d95",
          "display": "Helene Andresen"
        },
        "effectiveDateTime": "2015-10-04T22:53:36Z",
        "specimen": {
          "reference": "urn:uuid:4fca8f28-b77f-47a3-83f6-bcb0afdc02be"
        }
      }
    },
    {
      "fullUrl": "urn:uuid:24d07400-8190-4d02-b1b6-729e37eab4f0",
      "resource": {
        "resourceType": "Observation",
        "id": "24d07400-8190-4d02-b1b6-729e37eab4f0",
        "meta": {
          "profile": [
            "http://hl7.eu/fhir/laboratory/StructureDefinition/Observation-resultslab-eu-lab"
          ]
        },
        "performer": [
          {
            "display": "The Central European Lab"
          }
        ],
        "category": [
          {
            "coding": [
              {
                "system": "http://terminology.hl7.org/CodeSystem/observation-category",
                "code": "laboratory"
              }
            ]
          }
        ],
        "code": {
          "coding": [
            {
              "code": "18262-6",
              "system": "http://loinc.org",
              "display": "Cholesterol in LDL [Mass/volume] in Serum or Plasma by Direct assay"
            }
          ],
          "text": "Cholesterol in LDL [Mass/volume] in Serum or Plasma by Direct assay"
        },
        "valueQuantity": {
          "system": "http://unitsofmeasure.org",
          "value": 95.4,
          "unit": "mg/dL",
          "code": "mg/dL"
        },
        "referenceRange": [
          {
            "low": {
              "value": 0,
              "code": "mg/dL",
              "system": "http://unitsofmeasure.org"
            }
          },
          {
            "high": {
              "value": 130,
              "code": "mg/dL",
              "system": "http://unitsofmeasure.org"
            }
          }
        ],
        "text": {
          "status": "generated",
          "div": "<div xmlns=\"http://www.w3.org/1999/xhtml\"><table class=\"hl7__eu__lab__report\"><tr><th>Test</th><th>05-Oct-2015</th><th>Reference&#xA0;Range</th><th>Unit</th></tr><tr><td>Cholesterol in LDL [Mass/volume] in Serum or Plasma by Direct assay</td><td>95.4</td><td>0 - 130</td><td></td><td>mg/dL</td></tr></table></div>"
        },
        "status": "final",
        "subject": {
          "reference": "urn:uuid:2b74d075-4b40-4c98-9098-7a20e32a1d95",
          "display": "Helene Andresen"
        },
        "effectiveDateTime": "2015-10-04T22:53:36Z",
        "specimen": {
          "reference": "urn:uuid:4fca8f28-b77f-47a3-83f6-bcb0afdc02be"
        }
      }
    },
    {
      "fullUrl": "urn:uuid:67f36e88-a4e1-4d17-b7ac-66e0e2b00def",
      "resource": {
        "resourceType": "Observation",
        "id": "67f36e88-a4e1-4d17-b7ac-66e0e2b00def",
        "meta": {
          "profile": [
            "http://hl7.eu/fhir/laboratory/StructureDefinition/Observation-resultslab-eu-lab"
          ]
        },
        "performer": [
          {
            "display": "The Central European Lab"
          }
        ],
        "category": [
          {
            "coding": [
              {
                "system": "http://terminology.hl7.org/CodeSystem/observation-category",
                "code": "laboratory"
              }
            ]
          }
        ],
        "code": {
          "coding": [
            {
              "code": "2085-9",
              "system": "http://loinc.org",
              "display": "Cholesterol in HDL [Mass/volume] in Serum or Plasma"
            }
          ],
          "text": "Cholesterol in HDL [Mass/volume] in Serum or Plasma"
        },
        "valueQuantity": {
          "system": "http://unitsofmeasure.org",
          "value": 57.3,
          "unit": "mg/dL",
          "code": "mg/dL"
        },
        "referenceRange": [
          {
            "low": {
              "value": 50,
              "code": "mg/dL",
              "system": "http://unitsofmeasure.org"
            }
          },
          {
            "high": {
              "value": 100,
              "code": "mg/dL",
              "system": "http://unitsofmeasure.org"
            }
          }
        ],
        "text": {
          "status": "generated",
          "div": "<div xmlns=\"http://www.w3.org/1999/xhtml\"><table class=\"hl7__eu__lab__report\"><tr><th>Test</th><th>05-Oct-2015</th><th>Reference&#xA0;Range</th><th>Unit</th></tr><tr><td>Cholesterol in HDL [Mass/volume] in Serum or Plasma</td><td>57.3</td><td>50 - 100</td><td></td><td>mg/dL</td></tr></table></div>"
        },
        "status": "final",
        "subject": {
          "reference": "urn:uuid:2b74d075-4b40-4c98-9098-7a20e32a1d95",
          "display": "Helene Andresen"
        },
        "effectiveDateTime": "2015-10-04T22:53:36Z",
        "specimen": {
          "reference": "urn:uuid:4fca8f28-b77f-47a3-83f6-bcb0afdc02be"
        }
      }
    },
    {
      "fullUrl": "urn:uuid:3970fb5d-0dda-44ea-bbfa-08584eb874b0",
      "resource": {
        "resourceType": "Device",
        "id": "3970fb5d-0dda-44ea-bbfa-08584eb874b0",
        "deviceName": [
          {
            "name": "SYNDERAI Synthetic Generator",
            "type": "manufacturer-name"
          }
        ],
        "version": [
          {
            "value": "5.0"
          }
        ],
        "text": {
          "status": "generated",
          "div": "<div xmlns=\"http://www.w3.org/1999/xhtml\">SYNDERAI Synthetic Generator v5.0</div>"
        },
        "status": "active\"",
        "distinctIdentifier": "synderai-generator-50",
        "manufacturer": "SYNDERAI Project"
      }
    },
    {
      "fullUrl": "urn:uuid:69537afa-28f3-499e-a735-790c57e3e30c",
      "resource": {
        "resourceType": "Provenance",
        "id": "69537afa-28f3-499e-a735-790c57e3e30c",
        "target": [
          {
            "reference": "Patient/2b74d075-4b40-4c98-9098-7a20e32a1d95"
          },
          {
            "reference": "Bundle/94c01649-17e8-456c-ad3d-6f05190edc6b"
          },
          {
            "reference": "Composition/13c93731-c1b5-49ee-9b27-e5d1b42404d7"
          },
          {
            "reference": "PractitionerRole/a8732929-c991-4322-85b2-ba6211e79eaa"
          },
          {
            "reference": "Practitioner/0fc63576-7141-4215-8524-982c71e2d5a9"
          },
          {
            "reference": "PractitionerRole/23a1bc3b-790d-4b61-95b4-2ec70f7813db"
          },
          {
            "reference": "Organization/01f9ec2e-893a-4c17-be40-498cc408d700"
          }
        ],
        "activity": {
          "text": "Synthetic Example Data Generation"
        },
        "policy": [
          "https://synderai.net/synderai-synthetic-data-policy"
        ],
        "agent": [
          {
            "type": {
              "text": "author"
            },
            "who": {
              "reference": "Device/3970fb5d-0dda-44ea-bbfa-08584eb874b0"
            }
          }
        ],
        "reason": [
          {
            "text": "Interoperability Testing and Training (non-clinical use)"
          }
        ],
        "text": {
          "status": "generated",
          "div": "<div xmlns=\"http://www.w3.org/1999/xhtml\">Provenance for SYNDERAI Synthetic Example Data Resource</div>"
        },
        "recorded": "2015-10-05T00:53:36Z"
      }
    },
    {
      "fullUrl": "urn:uuid:a8732929-c991-4322-85b2-ba6211e79eaa",
      "resource": {
        "resourceType": "PractitionerRole",
        "id": "a8732929-c991-4322-85b2-ba6211e79eaa",
        "meta": {
          "profile": [
            "http://hl7.eu/fhir/base/StructureDefinition/practitionerRole-eu"
          ]
        },
        "text": {
          "status": "generated",
          "div": "<div xmlns=\"http://www.w3.org/1999/xhtml\">Laboratory Role Id: a8732929-c991-4322-85b2-ba6211e79eaa</div>"
        },
        "practitioner": {
          "reference": "urn:uuid:0fc63576-7141-4215-8524-982c71e2d5a9"
        }
      }
    },
    {
      "fullUrl": "urn:uuid:0fc63576-7141-4215-8524-982c71e2d5a9",
      "resource": {
        "resourceType": "Practitioner",
        "id": "0fc63576-7141-4215-8524-982c71e2d5a9",
        "meta": {
          "profile": [
            "http://hl7.eu/fhir/base/StructureDefinition/practitioner-eu"
          ]
        },
        "identifier": [
          {
            "assigner": {
              "display": "HL7 Europe"
            },
            "system": "urn:oid:2.16.840.1.113883.2.51.999",
            "value": "5d035868-59a3-4ad6-8bcb-9c8b94b1a372"
          }
        ],
        "name": [
          {
            "prefix": [
              "dr"
            ],
            "given": [
              "Ex"
            ],
            "family": "Ample"
          }
        ],
        "address": [
          {
            "line": [
              "Laboratoire Central Européenne",
              "Boulevard du Jardin Botanique 32"
            ],
            "postalCode": "1000",
            "city": "Brussels",
            "country": "Belgium"
          }
        ],
        "text": {
          "status": "generated",
          "div": "<div xmlns=\"http://www.w3.org/1999/xhtml\">Laboratory: Laboratoire Central Européenne, 1000 Brussels, Belgium</div>"
        }
      }
    }
  ],
  "type": "document",
  "timestamp": "2015-10-05T00:53:36Z"
}
