{
  "resourceType": "Bundle",
  "id": "db69974d-6f58-4a15-9480-169b1d0ad469",
  "meta": {
    "profile": [
      "http://hl7.eu/fhir/laboratory/StructureDefinition/Bundle-eu-lab"
    ]
  },
  "identifier": {
    "assigner": {
      "display": "HL7 Europe"
    },
    "system": "urn:oid:2.16.840.1.113883.2.51.999",
    "value": "f7965f79-d8d2-48ae-8de9-a398076ae275"
  },
  "entry": [
    {
      "fullUrl": "urn:uuid:7d951cc1-a602-4eee-8b9e-ad8f14379350",
      "resource": {
        "resourceType": "Composition",
        "id": "7d951cc1-a602-4eee-8b9e-ad8f14379350",
        "meta": {
          "profile": [
            "http://hl7.eu/fhir/laboratory/StructureDefinition/Composition-eu-lab"
          ]
        },
        "identifier": {
          "assigner": {
            "display": "HL7 Europe"
          },
          "system": "urn:oid:2.16.840.1.113883.2.51.999",
          "value": "fc3f245e-0d57-452b-b7d8-0fdb9103c445"
        },
        "author": [
          {
            "reference": "urn:uuid:5a9936c4-fd81-47e7-b0a7-ea37c8af10e8"
          }
        ],
        "category": [
          {
            "coding": [
              {
                "code": "26436-6",
                "system": "http://loinc.org",
                "display": "Laboratory studies (set)"
              }
            ]
          }
        ],
        "type": {
          "coding": [
            {
              "code": "11502-2",
              "system": "http://loinc.org",
              "display": "Laboratory report"
            }
          ],
          "text": "Laboratory Report"
        },
        "section": [
          {
            "code": {
              "coding": [
                {
                  "code": "26436-6",
                  "system": "http://loinc.org",
                  "display": "Laboratory studies (set)"
                }
              ],
              "text": "Laboratory studies"
            },
            "section": [
              {
                "code": {
                  "coding": [
                    {
                      "code": "$18719-5",
                      "system": "http://loinc.org",
                      "display": "Chemistry studies (set)"
                    }
                  ],
                  "text": "Chemistry"
                },
                "entry": [
                  {
                    "reference": "urn:uuid:bb219ab3-51d8-49c9-a36b-b43202a494c9"
                  },
                  {
                    "reference": "urn:uuid:1bda5bfe-fad2-4c60-9205-f45ff5ee044b"
                  },
                  {
                    "reference": "urn:uuid:24d9b68b-6a5b-4c96-851c-144445dd1183"
                  },
                  {
                    "reference": "urn:uuid:facf41e6-4d43-45df-aee9-a30053ae25d2"
                  },
                  {
                    "reference": "urn:uuid:509fb289-76f3-4502-9cff-762203f77c0a"
                  },
                  {
                    "reference": "urn:uuid:5f7c9ab8-4251-4c71-a214-c9e4d78eea0f"
                  },
                  {
                    "reference": "urn:uuid:d30b2b03-5a15-4cf3-b4ed-b9485a68b795"
                  },
                  {
                    "reference": "urn:uuid:36dfeff6-3f75-4fc2-9d01-eed89f4fa99d"
                  },
                  {
                    "reference": "urn:uuid:fb2963a7-2c93-4596-82e9-1d950f7164dd"
                  },
                  {
                    "reference": "urn:uuid:e80d7755-c239-4cc8-973f-9e1154b878d7"
                  },
                  {
                    "reference": "urn:uuid:5ca9d8a2-e83c-4cc5-bc96-544c580016d7"
                  },
                  {
                    "reference": "urn:uuid:8cdd7381-ec9d-43ed-98c6-fafcec700120"
                  },
                  {
                    "reference": "urn:uuid:83b8ffa3-83c7-4a4f-8df3-b68bcdcb2c55"
                  },
                  {
                    "reference": "urn:uuid:004b7769-fca0-446a-b6a7-44638c3d3f74"
                  },
                  {
                    "reference": "urn:uuid:5ab18de3-f2a5-4628-90a7-16a1ca7723c5"
                  },
                  {
                    "reference": "urn:uuid:e2f118a3-028f-46e5-90b0-d06bd1a2150d"
                  },
                  {
                    "reference": "urn:uuid:1cadebd5-4992-4c61-bfef-5c80d291b725"
                  },
                  {
                    "reference": "urn:uuid:bee4a077-a10b-40d0-87e4-40f755a657e1"
                  }
                ],
                "text": {
                  "status": "generated",
                  "div": "<div xmlns=\"http://www.w3.org/1999/xhtml\"><h3>Chemistry</h3><table class=\"hl7__eu__lab__report\"><thead><tr><th>Test</th><th>24-OCT-2019</th><th>Reference&#xA0;Range</th><th>Unit</th></tr></thead><tbody><tr><td>Glucose [Mass/volume] in Serum or Plasma</td><td>95.9</td><td>70 - 140</td><td>mg/dL</td></tr><tr><td>Urea nitrogen [Mass/volume] in Serum or Plasma</td><td>11.6</td><td>7 - 25</td><td>mg/dL</td></tr><tr><td>Creatinine [Mass/volume] in Serum or Plasma</td><td><strong>2.0 H</strong></td><td>0.9 - 1.3</td><td>mg/dL</td></tr><tr><td>Calcium [Mass/volume] in Serum or Plasma</td><td>9.3</td><td>8.5 - 10.5</td><td>mg/dL</td></tr><tr><td>Sodium [Moles/volume] in Serum or Plasma</td><td>137.8</td><td>135 - 145</td><td>mmol/L</td></tr><tr><td>Potassium [Moles/volume] in Serum or Plasma</td><td>5.0</td><td>3.5 - 5.3</td><td>mmol/L</td></tr><tr><td>Chloride [Moles/volume] in Serum or Plasma</td><td>105.4</td><td>98 - 107</td><td>mmol/L</td></tr><tr><td>Carbon dioxide, total [Moles/volume] in Serum or Plasma</td><td>22.0</td><td>22 - 29</td><td>mmol/L</td></tr><tr><td>Ketones [Presence] in Urine by Test strip</td><td>Urine ketone test = +</td><td></td><td></td></tr><tr><td>Hemoglobin A1c/Hemoglobin.total in Blood</td><td><strong>3.2 L</strong></td><td>4.5 - 6.4</td><td>%</td></tr><tr><td>Glucose [Mass/volume] in Blood</td><td>95.9</td><td>70 - 140</td><td>mg/dL</td></tr><tr><td>Urea nitrogen [Mass/volume] in Blood</td><td>11.6</td><td>7 - 25</td><td>mg/dL</td></tr><tr><td>Creatinine [Mass/volume] in Blood</td><td><strong>2.0 H</strong></td><td>0.9 - 1.3</td><td>mg/dL</td></tr><tr><td>Calcium [Mass/volume] in Blood</td><td>9.3</td><td>8.6 - 10.2</td><td>mg/dL</td></tr><tr><td>Sodium [Moles/volume] in Blood</td><td>137.8</td><td>135 - 145</td><td>mmol/L</td></tr><tr><td>Potassium [Moles/volume] in Blood</td><td>5.0</td><td>3.5 - 5.1</td><td>mmol/L</td></tr><tr><td>Chloride [Moles/volume] in Blood</td><td>105.4</td><td>98 - 108</td><td>mmol/L</td></tr><tr><td>Carbon dioxide, total [Moles/volume] in Blood</td><td>22.0</td><td>22 - 32</td><td>mmol/L</td></tr></tbody></table></div>"
                },
                "title": "Chemistry"
              },
              {
                "code": {
                  "coding": [
                    {
                      "code": "$18729-4",
                      "system": "http://loinc.org",
                      "display": "Urinalysis studies (set)"
                    }
                  ],
                  "text": "Urinalysis"
                },
                "entry": [
                  {
                    "reference": "urn:uuid:8dfe862b-af85-47ba-beec-5a0423f4c670"
                  },
                  {
                    "reference": "urn:uuid:f840d8f1-a47e-4b77-85da-374a36fd7946"
                  },
                  {
                    "reference": "urn:uuid:4b45a1ff-0ff9-4c80-bbae-2433bfbed158"
                  },
                  {
                    "reference": "urn:uuid:d00034ba-730a-4912-b3a2-a8471bae793a"
                  },
                  {
                    "reference": "urn:uuid:2d8459ca-d797-413f-b830-cd4c212d2bfe"
                  },
                  {
                    "reference": "urn:uuid:d151b152-1e53-4a99-ae8e-bfb4ca89ae72"
                  },
                  {
                    "reference": "urn:uuid:764e37f5-5dab-4f58-a55d-14b6ad7c6d7c"
                  },
                  {
                    "reference": "urn:uuid:68fdb517-5e90-43e6-baf2-e77a2acce732"
                  },
                  {
                    "reference": "urn:uuid:1beeb8c4-93a6-4b07-873c-5f0bc482a6e6"
                  },
                  {
                    "reference": "urn:uuid:3a1c5a3f-71a2-4d07-9733-be55b8dada3d"
                  },
                  {
                    "reference": "urn:uuid:745699f5-f54d-4d65-88b4-1be209da7a57"
                  },
                  {
                    "reference": "urn:uuid:6b759747-57bb-48a1-8f31-5f7d342f3bee"
                  }
                ],
                "text": {
                  "status": "generated",
                  "div": "<div xmlns=\"http://www.w3.org/1999/xhtml\"><h3>Urinalysis</h3><table class=\"hl7__eu__lab__report\"><thead><tr><th>Test</th><th>24-OCT-2019</th><th>Reference&#xA0;Range</th><th>Unit</th></tr></thead><tbody><tr><td>Glucose [Mass/volume] in Urine by Test strip</td><td><strong>1.2 H</strong></td><td>0.8 - 0</td><td>mg/dL</td></tr><tr><td>Glucose [Presence] in Urine by Test strip</td><td>++</td><td></td><td></td></tr><tr><td>Bilirubin.total [Mass/volume] in Urine by Test strip</td><td>0.2</td><td>0.2 - 1.5</td><td>mg/dL</td></tr><tr><td>Bilirubin.total [Presence] in Urine by Test strip</td><td>Finding of bilirubin in urine</td><td></td><td></td></tr><tr><td>Ketones [Mass/volume] in Urine by Test strip</td><td><strong>11.4 H</strong></td><td>0 - 4</td><td>mg/dL</td></tr><tr><td>Specific gravity of Urine by Test strip</td><td><strong>1.0 L</strong></td><td>1.01 - 1.03</td><td>{nominal}</td></tr><tr><td>pH of Urine by Test strip</td><td>6.7</td><td>4.5 - 7.5</td><td>pH</td></tr><tr><td>Protein [Mass/volume] in Urine by Test strip</td><td><strong>294.5 H</strong></td><td>0 - 150</td><td>mg/dL</td></tr><tr><td>Protein [Presence] in Urine by Test strip</td><td>Urine protein test = ++</td><td></td><td></td></tr><tr><td>Nitrite [Presence] in Urine by Test strip</td><td>Urine nitrite negative</td><td></td><td></td></tr><tr><td>Hemoglobin [Presence] in Urine by Test strip</td><td>Urine blood test = negative</td><td></td><td></td></tr><tr><td>Leukocyte esterase [Presence] in Urine by Test strip</td><td>Urine leukocyte test negative</td><td></td><td></td></tr></tbody></table></div>"
                },
                "title": "Urinalysis"
              },
              {
                "code": {
                  "coding": [
                    {
                      "code": "$LP7846-1",
                      "system": "http://loinc.org",
                      "display": "Specimen information"
                    }
                  ],
                  "text": "Specimen information"
                },
                "entry": [
                  {
                    "reference": "urn:uuid:8a2973ea-2afa-493e-8fb1-fed1249920cf"
                  },
                  {
                    "reference": "urn:uuid:d445c560-9f62-4730-88a0-99381ef1ca04"
                  },
                  {
                    "reference": "urn:uuid:18eb3758-c67c-4802-9f54-4147130adce8"
                  },
                  {
                    "reference": "urn:uuid:0ff77bd3-0896-458c-92d2-1f20a3ea469b"
                  }
                ],
                "text": {
                  "status": "generated",
                  "div": "<div xmlns=\"http://www.w3.org/1999/xhtml\"><h3>Specimen information</h3><table class=\"hl7__eu__lab__report\"><thead><tr><th>Test</th><th>24-OCT-2019</th><th>Specimen</th><th></th></tr></thead><tbody><tr><td>Appearance of Urine</td><td>Cloudy urine</td><td>Urine</td><td></td></tr><tr><td>Odor of Urine</td><td>Urine smell ammoniacal</td><td>Urine</td><td></td></tr><tr><td>Clarity of Urine</td><td>Translucent</td><td>Urine</td><td></td></tr><tr><td>Color of Urine</td><td>Brown color</td><td>Urine</td><td></td></tr></tbody></table></div>"
                },
                "title": "Specimen information"
              }
            ],
            "title": "Laboratory Report"
          },
          {
            "text": {
              "status": "generated",
              "div": "<div xmlns=\"http://www.w3.org/1999/xhtml\"><h3>Annotation</h3><table class=\"hl7__eu__lab__report\"><tr><th>Conclusion and Recommendations based on this report and previous findings known to us</th></tr><tr><td>The patient shows elevated creatinine, indicating impaired renal function. Urinalysis reveals proteinuria, glucosuria, ketonuria, low specific gravity, and abnormal urine appearance (cloudy, brown, ammoniacal), suggesting possible nephrotic syndrome or diabetic nephropathy, though HbA1c is low. No evidence of urinary infection. Recommend further renal evaluation and assessment for underlying metabolic or systemic disease.</td></tr></table></div>"
            },
            "code": {
              "coding": [
                {
                  "system": "http://loinc.org",
                  "code": "48767-8",
                  "display": "Annotation comment"
                }
              ]
            },
            "title": "Annotation comment"
          }
        ],
        "status": "final",
        "subject": {
          "reference": "urn:uuid:5710aabb-1941-4b4f-a868-b6a1a068df6e",
          "display": "Pelayo Casal"
        },
        "date": "2019-10-24T07:38:59Z",
        "title": "Laboratory Report",
        "confidentiality": "N"
      }
    },
    {
      "fullUrl": "urn:uuid:eca9298a-ff80-482a-b689-5cfb0a7fb87d",
      "resource": {
        "resourceType": "DiagnosticReport",
        "id": "eca9298a-ff80-482a-b689-5cfb0a7fb87d",
        "meta": {
          "profile": [
            "http://hl7.eu/fhir/laboratory/StructureDefinition/DiagnosticReport-eu-lab"
          ]
        },
        "identifier": [
          {
            "assigner": {
              "display": "HL7 Europe"
            },
            "system": "urn:oid:2.16.840.1.113883.2.51.999",
            "value": "04b62f02-107d-42e9-b50e-afb95b71c4a9"
          }
        ],
        "extension": [
          {
            "url": "http://hl7.org/fhir/5.0/StructureDefinition/extension-DiagnosticReport.composition",
            "valueReference": {
              "reference": "urn:uuid:fc3f245e-0d57-452b-b7d8-0fdb9103c445"
            }
          }
        ],
        "category": [
          {
            "coding": [
              {
                "code": "26436-6",
                "system": "http://loinc.org",
                "display": "Laboratory studies (set)"
              }
            ]
          }
        ],
        "specimen": [
          {
            "reference": "urn:uuid:aceb1905-e44d-471d-9942-d0f2adcfe1ab"
          },
          {
            "reference": "urn:uuid:107dfd67-fe0c-46be-a57c-c4dd8490bca4"
          },
          {
            "reference": "urn:uuid:6ca4ef19-600a-4ce2-a8fd-2339674dcfe4"
          }
        ],
        "result": [
          {
            "reference": "urn:uuid:bb219ab3-51d8-49c9-a36b-b43202a494c9"
          },
          {
            "reference": "urn:uuid:1bda5bfe-fad2-4c60-9205-f45ff5ee044b"
          },
          {
            "reference": "urn:uuid:24d9b68b-6a5b-4c96-851c-144445dd1183"
          },
          {
            "reference": "urn:uuid:facf41e6-4d43-45df-aee9-a30053ae25d2"
          },
          {
            "reference": "urn:uuid:509fb289-76f3-4502-9cff-762203f77c0a"
          },
          {
            "reference": "urn:uuid:5f7c9ab8-4251-4c71-a214-c9e4d78eea0f"
          },
          {
            "reference": "urn:uuid:d30b2b03-5a15-4cf3-b4ed-b9485a68b795"
          },
          {
            "reference": "urn:uuid:36dfeff6-3f75-4fc2-9d01-eed89f4fa99d"
          },
          {
            "reference": "urn:uuid:8a2973ea-2afa-493e-8fb1-fed1249920cf"
          },
          {
            "reference": "urn:uuid:d445c560-9f62-4730-88a0-99381ef1ca04"
          },
          {
            "reference": "urn:uuid:18eb3758-c67c-4802-9f54-4147130adce8"
          },
          {
            "reference": "urn:uuid:0ff77bd3-0896-458c-92d2-1f20a3ea469b"
          },
          {
            "reference": "urn:uuid:8dfe862b-af85-47ba-beec-5a0423f4c670"
          },
          {
            "reference": "urn:uuid:f840d8f1-a47e-4b77-85da-374a36fd7946"
          },
          {
            "reference": "urn:uuid:4b45a1ff-0ff9-4c80-bbae-2433bfbed158"
          },
          {
            "reference": "urn:uuid:d00034ba-730a-4912-b3a2-a8471bae793a"
          },
          {
            "reference": "urn:uuid:2d8459ca-d797-413f-b830-cd4c212d2bfe"
          },
          {
            "reference": "urn:uuid:fb2963a7-2c93-4596-82e9-1d950f7164dd"
          },
          {
            "reference": "urn:uuid:d151b152-1e53-4a99-ae8e-bfb4ca89ae72"
          },
          {
            "reference": "urn:uuid:764e37f5-5dab-4f58-a55d-14b6ad7c6d7c"
          },
          {
            "reference": "urn:uuid:68fdb517-5e90-43e6-baf2-e77a2acce732"
          },
          {
            "reference": "urn:uuid:1beeb8c4-93a6-4b07-873c-5f0bc482a6e6"
          },
          {
            "reference": "urn:uuid:3a1c5a3f-71a2-4d07-9733-be55b8dada3d"
          },
          {
            "reference": "urn:uuid:745699f5-f54d-4d65-88b4-1be209da7a57"
          },
          {
            "reference": "urn:uuid:6b759747-57bb-48a1-8f31-5f7d342f3bee"
          },
          {
            "reference": "urn:uuid:e80d7755-c239-4cc8-973f-9e1154b878d7"
          },
          {
            "reference": "urn:uuid:5ca9d8a2-e83c-4cc5-bc96-544c580016d7"
          },
          {
            "reference": "urn:uuid:8cdd7381-ec9d-43ed-98c6-fafcec700120"
          },
          {
            "reference": "urn:uuid:83b8ffa3-83c7-4a4f-8df3-b68bcdcb2c55"
          },
          {
            "reference": "urn:uuid:004b7769-fca0-446a-b6a7-44638c3d3f74"
          },
          {
            "reference": "urn:uuid:5ab18de3-f2a5-4628-90a7-16a1ca7723c5"
          },
          {
            "reference": "urn:uuid:e2f118a3-028f-46e5-90b0-d06bd1a2150d"
          },
          {
            "reference": "urn:uuid:1cadebd5-4992-4c61-bfef-5c80d291b725"
          },
          {
            "reference": "urn:uuid:bee4a077-a10b-40d0-87e4-40f755a657e1"
          }
        ],
        "status": "registered",
        "code": {
          "coding": [
            {
              "code": "11502-2",
              "system": "http://loinc.org",
              "display": "Laboratory report"
            }
          ]
        },
        "subject": {
          "reference": "urn:uuid:5710aabb-1941-4b4f-a868-b6a1a068df6e",
          "display": "Pelayo Casal"
        }
      }
    },
    {
      "fullUrl": "urn:uuid:5710aabb-1941-4b4f-a868-b6a1a068df6e",
      "resource": {
        "resourceType": "Patient",
        "id": "5710aabb-1941-4b4f-a868-b6a1a068df6e",
        "meta": {
          "security": [
            {
              "system": "http://terminology.hl7.org/CodeSystem/v3-ActReason",
              "code": "HTEST"
            },
            {
              "system": "http://terminology.hl7.org/CodeSystem/v3-ActReason",
              "code": "TRAIN"
            }
          ],
          "tag": [
            {
              "system": "https://synderai.net/fhir/CodeSystem/tags",
              "code": "synthetic",
              "display": "SYNDERAI Synthetic data"
            }
          ],
          "profile": [
            "http://hl7.eu/fhir/base/StructureDefinition/patient-eu-core"
          ]
        },
        "identifier": [
          {
            "type": {
              "coding": [
                {
                  "code": "PT",
                  "system": "http://terminology.hl7.org/CodeSystem/v2-0203"
                }
              ]
            },
            "system": "http://ec.europa.eu/identifier/eci",
            "value": "7707-510028-7"
          },
          {
            "type": {
              "coding": [
                {
                  "code": "MR",
                  "system": "http://terminology.hl7.org/CodeSystem/v2-0203"
                }
              ]
            },
            "system": "http://local.setting.eu/identifier",
            "value": "d88e82c6-df33-82d2-8538-f8b57da06491"
          }
        ],
        "name": [
          {
            "family": "Casal"
          },
          {
            "given": [
              "Pelayo"
            ]
          },
          {
            "text": "Pelayo Casal"
          }
        ],
        "address": [
          {
            "line": [
              "Callejón de Ignacio Pedrosa 67 Apt. 68 "
            ],
            "use": "home",
            "type": "physical",
            "postalCode": "35001",
            "city": "Las Palmas",
            "country": "Spain"
          }
        ],
        "telecom": [
          {
            "system": "phone",
            "value": "+34 875724898"
          }
        ],
        "extension": [
          {
            "url": "http://hl7.org/fhir/StructureDefinition/patient-nationality",
            "valueCodeableConcept": {
              "coding": [
                {
                  "code": "ES",
                  "system": "http://hl7.org/fhir/ValueSet/country"
                }
              ]
            }
          }
        ],
        "text": {
          "status": "generated",
          "div": "<div xmlns=\"http://www.w3.org/1999/xhtml\"><table class=\"hl7__ips\"><tr><td>Pelayo Casal</td><td>male</td><td>19-Apr-1940</td></tr></table></div>"
        },
        "gender": "male",
        "birthDate": "1940-04-19"
      }
    },
    {
      "fullUrl": "urn:uuid:578af3cb-6cf5-4d15-9a1e-bd5d83f80aea",
      "resource": {
        "resourceType": "ServiceRequest",
        "id": "578af3cb-6cf5-4d15-9a1e-bd5d83f80aea",
        "meta": {
          "profile": [
            "http://hl7.eu/fhir/laboratory/StructureDefinition/ServiceRequest-eu-lab"
          ]
        },
        "identifier": [
          {
            "system": "http://example.org",
            "value": "1672acb7-0149-4624-914a-ce96266dad92"
          }
        ],
        "specimen": [
          {
            "reference": "urn:uuid:aceb1905-e44d-471d-9942-d0f2adcfe1ab"
          },
          {
            "reference": "urn:uuid:107dfd67-fe0c-46be-a57c-c4dd8490bca4"
          },
          {
            "reference": "urn:uuid:6ca4ef19-600a-4ce2-a8fd-2339674dcfe4"
          }
        ],
        "reasonCode": [
          {
            "coding": [
              {
                "code": "431856006",
                "system": "http://snomed.info/sct",
                "display": "Chronic kidney disease stage 2"
              }
            ]
          },
          {
            "coding": [
              {
                "code": "90781000119102",
                "system": "http://snomed.info/sct",
                "display": "Microalbuminuria due to type 2 diabetes mellitus"
              }
            ]
          },
          {
            "coding": [
              {
                "code": "127013003",
                "system": "http://snomed.info/sct",
                "display": "Disorder of kidney due to diabetes mellitus"
              }
            ]
          },
          {
            "coding": [
              {
                "code": "431855005",
                "system": "http://snomed.info/sct",
                "display": "Chronic kidney disease stage 1"
              }
            ]
          },
          {
            "coding": [
              {
                "code": "64859006",
                "system": "http://snomed.info/sct",
                "display": "Osteoporosis"
              }
            ]
          },
          {
            "coding": [
              {
                "code": "414545008",
                "system": "http://snomed.info/sct",
                "display": "Ischemic heart disease"
              }
            ]
          },
          {
            "coding": [
              {
                "code": "237602007",
                "system": "http://snomed.info/sct",
                "display": "Metabolic syndrome X"
              }
            ]
          },
          {
            "coding": [
              {
                "code": "59621000",
                "system": "http://snomed.info/sct",
                "display": "Essential hypertension"
              }
            ]
          },
          {
            "coding": [
              {
                "code": "271737000",
                "system": "http://snomed.info/sct",
                "display": "Anemia"
              }
            ]
          },
          {
            "coding": [
              {
                "code": "15777000",
                "system": "http://snomed.info/sct",
                "display": "Prediabetes"
              }
            ]
          }
        ],
        "status": "active",
        "intent": "order",
        "code": {
          "coding": [
            {
              "code": "108252007",
              "system": "http://snomed.info/sct",
              "display": "Laboratory procedure"
            }
          ]
        },
        "subject": {
          "reference": "urn:uuid:5710aabb-1941-4b4f-a868-b6a1a068df6e",
          "display": "Pelayo Casal"
        },
        "requester": {
          "reference": "urn:uuid:6b6aeb67-4b80-49b7-9390-a5af8ec9f8d9"
        }
      }
    },
    {
      "fullUrl": "urn:uuid:6b6aeb67-4b80-49b7-9390-a5af8ec9f8d9",
      "resource": {
        "resourceType": "PractitionerRole",
        "id": "6b6aeb67-4b80-49b7-9390-a5af8ec9f8d9",
        "meta": {
          "profile": [
            "http://hl7.eu/fhir/base/StructureDefinition/practitionerRole-eu"
          ]
        },
        "text": {
          "status": "generated",
          "div": "<div xmlns=\"http://www.w3.org/1999/xhtml\">Provider Role Id: 6b6aeb67-4b80-49b7-9390-a5af8ec9f8d9</div>"
        },
        "organization": {
          "reference": "urn:uuid:dae9fbcf-63b9-4b3b-8d18-ace76199888e"
        }
      }
    },
    {
      "fullUrl": "urn:uuid:dae9fbcf-63b9-4b3b-8d18-ace76199888e",
      "resource": {
        "resourceType": "Organization",
        "id": "dae9fbcf-63b9-4b3b-8d18-ace76199888e",
        "meta": {
          "profile": [
            "http://hl7.eu/fhir/base/StructureDefinition/organization-eu"
          ]
        },
        "identifier": [
          {
            "assigner": {
              "display": "HL7 Europe"
            },
            "system": "urn:oid:2.16.840.1.113883.2.51.999",
            "value": "cef6d148-d9cb-4ad7-a201-ec11b6a924a3"
          }
        ],
        "address": [
          {
            "country": "Spain"
          }
        ],
        "text": {
          "status": "generated",
          "div": "<div xmlns=\"http://www.w3.org/1999/xhtml\">Provider Organization: Centro de Salud de Guanarteme</div>"
        },
        "name": "Centro de Salud de Guanarteme"
      }
    },
    {
      "fullUrl": "urn:uuid:aceb1905-e44d-471d-9942-d0f2adcfe1ab",
      "resource": {
        "resourceType": "Specimen",
        "id": "aceb1905-e44d-471d-9942-d0f2adcfe1ab",
        "meta": {
          "profile": [
            "http://hl7.eu/fhir/laboratory/StructureDefinition/Specimen-eu-lab"
          ]
        },
        "collection": {
          "collectedDateTime": "2019-10-24"
        },
        "text": {
          "status": "generated",
          "div": "<div xmlns=\"http://www.w3.org/1999/xhtml\"><table class=\"hl7__eu__lab__report\"><tr><th>Specimen</th><th>Collection Date</th></tr><tr><td>Acellular blood (serum or plasma) specimen</td><td><span class=\"nb\">24-Oct-2019</span></td></tr></table></div>"
        },
        "type": {
          "coding": [
            {
              "code": "122592007",
              "system": "http://snomed.info/sct",
              "display": "Acellular blood (serum or plasma) specimen"
            }
          ]
        }
      }
    },
    {
      "fullUrl": "urn:uuid:107dfd67-fe0c-46be-a57c-c4dd8490bca4",
      "resource": {
        "resourceType": "Specimen",
        "id": "107dfd67-fe0c-46be-a57c-c4dd8490bca4",
        "meta": {
          "profile": [
            "http://hl7.eu/fhir/laboratory/StructureDefinition/Specimen-eu-lab"
          ]
        },
        "collection": {
          "collectedDateTime": "2019-10-24"
        },
        "text": {
          "status": "generated",
          "div": "<div xmlns=\"http://www.w3.org/1999/xhtml\"><table class=\"hl7__eu__lab__report\"><tr><th>Specimen</th><th>Collection Date</th></tr><tr><td>Urine specimen</td><td><span class=\"nb\">24-Oct-2019</span></td></tr></table></div>"
        },
        "type": {
          "coding": [
            {
              "code": "122575003",
              "system": "http://snomed.info/sct",
              "display": "Urine specimen"
            }
          ]
        }
      }
    },
    {
      "fullUrl": "urn:uuid:6ca4ef19-600a-4ce2-a8fd-2339674dcfe4",
      "resource": {
        "resourceType": "Specimen",
        "id": "6ca4ef19-600a-4ce2-a8fd-2339674dcfe4",
        "meta": {
          "profile": [
            "http://hl7.eu/fhir/laboratory/StructureDefinition/Specimen-eu-lab"
          ]
        },
        "collection": {
          "collectedDateTime": "2019-10-24"
        },
        "text": {
          "status": "generated",
          "div": "<div xmlns=\"http://www.w3.org/1999/xhtml\"><table class=\"hl7__eu__lab__report\"><tr><th>Specimen</th><th>Collection Date</th></tr><tr><td>Whole blood specimen (specimen)</td><td><span class=\"nb\">24-Oct-2019</span></td></tr></table></div>"
        },
        "type": {
          "coding": [
            {
              "code": "258580003",
              "system": "http://snomed.info/sct",
              "display": "Whole blood specimen (specimen)"
            }
          ]
        }
      }
    },
    {
      "fullUrl": "urn:uuid:bb219ab3-51d8-49c9-a36b-b43202a494c9",
      "resource": {
        "resourceType": "Observation",
        "id": "bb219ab3-51d8-49c9-a36b-b43202a494c9",
        "meta": {
          "profile": [
            "http://hl7.eu/fhir/laboratory/StructureDefinition/Observation-resultslab-eu-lab"
          ]
        },
        "performer": [
          {
            "display": "The Central European Lab"
          }
        ],
        "category": [
          {
            "coding": [
              {
                "system": "http://terminology.hl7.org/CodeSystem/observation-category",
                "code": "laboratory"
              }
            ]
          }
        ],
        "code": {
          "coding": [
            {
              "code": "2345-7",
              "system": "http://loinc.org",
              "display": "Glucose [Mass/volume] in Serum or Plasma"
            }
          ],
          "text": "Glucose [Mass/volume] in Serum or Plasma"
        },
        "valueQuantity": {
          "system": "http://unitsofmeasure.org",
          "value": 95.9,
          "unit": "mg/dL",
          "code": "mg/dL"
        },
        "referenceRange": [
          {
            "low": {
              "value": 70,
              "code": "mg/dL",
              "system": "http://unitsofmeasure.org"
            }
          },
          {
            "high": {
              "value": 140,
              "code": "mg/dL",
              "system": "http://unitsofmeasure.org"
            }
          }
        ],
        "text": {
          "status": "generated",
          "div": "<div xmlns=\"http://www.w3.org/1999/xhtml\"><table class=\"hl7__eu__lab__report\"><tr><th>Test</th><th>24-Oct-2019</th><th>Reference&#xA0;Range</th><th>Unit</th></tr><tr><td>Glucose [Mass/volume] in Serum or Plasma</td><td>95.9</td><td>70 - 140</td><td></td><td>mg/dL</td></tr></table></div>"
        },
        "status": "final",
        "subject": {
          "reference": "urn:uuid:5710aabb-1941-4b4f-a868-b6a1a068df6e",
          "display": "Pelayo Casal"
        },
        "effectiveDateTime": "2019-10-24T05:38:59Z",
        "specimen": {
          "reference": "urn:uuid:aceb1905-e44d-471d-9942-d0f2adcfe1ab"
        }
      }
    },
    {
      "fullUrl": "urn:uuid:1bda5bfe-fad2-4c60-9205-f45ff5ee044b",
      "resource": {
        "resourceType": "Observation",
        "id": "1bda5bfe-fad2-4c60-9205-f45ff5ee044b",
        "meta": {
          "profile": [
            "http://hl7.eu/fhir/laboratory/StructureDefinition/Observation-resultslab-eu-lab"
          ]
        },
        "performer": [
          {
            "display": "The Central European Lab"
          }
        ],
        "category": [
          {
            "coding": [
              {
                "system": "http://terminology.hl7.org/CodeSystem/observation-category",
                "code": "laboratory"
              }
            ]
          }
        ],
        "code": {
          "coding": [
            {
              "code": "3094-0",
              "system": "http://loinc.org",
              "display": "Urea nitrogen [Mass/volume] in Serum or Plasma"
            }
          ],
          "text": "Urea nitrogen [Mass/volume] in Serum or Plasma"
        },
        "valueQuantity": {
          "system": "http://unitsofmeasure.org",
          "value": 11.6,
          "unit": "mg/dL",
          "code": "mg/dL"
        },
        "referenceRange": [
          {
            "low": {
              "value": 7,
              "code": "mg/dL",
              "system": "http://unitsofmeasure.org"
            }
          },
          {
            "high": {
              "value": 25,
              "code": "mg/dL",
              "system": "http://unitsofmeasure.org"
            }
          }
        ],
        "text": {
          "status": "generated",
          "div": "<div xmlns=\"http://www.w3.org/1999/xhtml\"><table class=\"hl7__eu__lab__report\"><tr><th>Test</th><th>24-Oct-2019</th><th>Reference&#xA0;Range</th><th>Unit</th></tr><tr><td>Urea nitrogen [Mass/volume] in Serum or Plasma</td><td>11.6</td><td>7 - 25</td><td></td><td>mg/dL</td></tr></table></div>"
        },
        "status": "final",
        "subject": {
          "reference": "urn:uuid:5710aabb-1941-4b4f-a868-b6a1a068df6e",
          "display": "Pelayo Casal"
        },
        "effectiveDateTime": "2019-10-24T05:38:59Z",
        "specimen": {
          "reference": "urn:uuid:aceb1905-e44d-471d-9942-d0f2adcfe1ab"
        }
      }
    },
    {
      "fullUrl": "urn:uuid:24d9b68b-6a5b-4c96-851c-144445dd1183",
      "resource": {
        "resourceType": "Observation",
        "id": "24d9b68b-6a5b-4c96-851c-144445dd1183",
        "meta": {
          "profile": [
            "http://hl7.eu/fhir/laboratory/StructureDefinition/Observation-resultslab-eu-lab"
          ]
        },
        "performer": [
          {
            "display": "The Central European Lab"
          }
        ],
        "category": [
          {
            "coding": [
              {
                "system": "http://terminology.hl7.org/CodeSystem/observation-category",
                "code": "laboratory"
              }
            ]
          }
        ],
        "code": {
          "coding": [
            {
              "code": "2160-0",
              "system": "http://loinc.org",
              "display": "Creatinine [Mass/volume] in Serum or Plasma"
            }
          ],
          "text": "Creatinine [Mass/volume] in Serum or Plasma"
        },
        "valueQuantity": {
          "system": "http://unitsofmeasure.org",
          "value": 2,
          "unit": "mg/dL",
          "code": "mg/dL"
        },
        "referenceRange": [
          {
            "low": {
              "value": 0.9,
              "code": "mg/dL",
              "system": "http://unitsofmeasure.org"
            }
          },
          {
            "high": {
              "value": 1.3,
              "code": "mg/dL",
              "system": "http://unitsofmeasure.org"
            }
          }
        ],
        "interpretation": [
          {
            "coding": [
              {
                "code": "H",
                "system": "http://terminology.hl7.org/CodeSystem/v3-ObservationInterpretation",
                "display": "High"
              }
            ]
          }
        ],
        "text": {
          "status": "generated",
          "div": "<div xmlns=\"http://www.w3.org/1999/xhtml\"><table class=\"hl7__eu__lab__report\"><tr><th>Test</th><th>24-Oct-2019</th><th>Reference&#xA0;Range</th><th>Unit</th></tr><tr><td>Creatinine [Mass/volume] in Serum or Plasma</td><td>2.0</td><td>0.9 - 1.3</td><td>H</td><td>mg/dL</td></tr></table></div>"
        },
        "status": "final",
        "subject": {
          "reference": "urn:uuid:5710aabb-1941-4b4f-a868-b6a1a068df6e",
          "display": "Pelayo Casal"
        },
        "effectiveDateTime": "2019-10-24T05:38:59Z",
        "specimen": {
          "reference": "urn:uuid:aceb1905-e44d-471d-9942-d0f2adcfe1ab"
        }
      }
    },
    {
      "fullUrl": "urn:uuid:facf41e6-4d43-45df-aee9-a30053ae25d2",
      "resource": {
        "resourceType": "Observation",
        "id": "facf41e6-4d43-45df-aee9-a30053ae25d2",
        "meta": {
          "profile": [
            "http://hl7.eu/fhir/laboratory/StructureDefinition/Observation-resultslab-eu-lab"
          ]
        },
        "performer": [
          {
            "display": "The Central European Lab"
          }
        ],
        "category": [
          {
            "coding": [
              {
                "system": "http://terminology.hl7.org/CodeSystem/observation-category",
                "code": "laboratory"
              }
            ]
          }
        ],
        "code": {
          "coding": [
            {
              "code": "17861-6",
              "system": "http://loinc.org",
              "display": "Calcium [Mass/volume] in Serum or Plasma"
            }
          ],
          "text": "Calcium [Mass/volume] in Serum or Plasma"
        },
        "valueQuantity": {
          "system": "http://unitsofmeasure.org",
          "value": 9.3,
          "unit": "mg/dL",
          "code": "mg/dL"
        },
        "referenceRange": [
          {
            "low": {
              "value": 8.5,
              "code": "mg/dL",
              "system": "http://unitsofmeasure.org"
            }
          },
          {
            "high": {
              "value": 10.5,
              "code": "mg/dL",
              "system": "http://unitsofmeasure.org"
            }
          }
        ],
        "text": {
          "status": "generated",
          "div": "<div xmlns=\"http://www.w3.org/1999/xhtml\"><table class=\"hl7__eu__lab__report\"><tr><th>Test</th><th>24-Oct-2019</th><th>Reference&#xA0;Range</th><th>Unit</th></tr><tr><td>Calcium [Mass/volume] in Serum or Plasma</td><td>9.3</td><td>8.5 - 10.5</td><td></td><td>mg/dL</td></tr></table></div>"
        },
        "status": "final",
        "subject": {
          "reference": "urn:uuid:5710aabb-1941-4b4f-a868-b6a1a068df6e",
          "display": "Pelayo Casal"
        },
        "effectiveDateTime": "2019-10-24T05:38:59Z",
        "specimen": {
          "reference": "urn:uuid:aceb1905-e44d-471d-9942-d0f2adcfe1ab"
        }
      }
    },
    {
      "fullUrl": "urn:uuid:509fb289-76f3-4502-9cff-762203f77c0a",
      "resource": {
        "resourceType": "Observation",
        "id": "509fb289-76f3-4502-9cff-762203f77c0a",
        "meta": {
          "profile": [
            "http://hl7.eu/fhir/laboratory/StructureDefinition/Observation-resultslab-eu-lab"
          ]
        },
        "performer": [
          {
            "display": "The Central European Lab"
          }
        ],
        "category": [
          {
            "coding": [
              {
                "system": "http://terminology.hl7.org/CodeSystem/observation-category",
                "code": "laboratory"
              }
            ]
          }
        ],
        "code": {
          "coding": [
            {
              "code": "2951-2",
              "system": "http://loinc.org",
              "display": "Sodium [Moles/volume] in Serum or Plasma"
            }
          ],
          "text": "Sodium [Moles/volume] in Serum or Plasma"
        },
        "valueQuantity": {
          "system": "http://unitsofmeasure.org",
          "value": 137.8,
          "unit": "mmol/L",
          "code": "mmol/L"
        },
        "referenceRange": [
          {
            "low": {
              "value": 135,
              "code": "mmol/L",
              "system": "http://unitsofmeasure.org"
            }
          },
          {
            "high": {
              "value": 145,
              "code": "mmol/L",
              "system": "http://unitsofmeasure.org"
            }
          }
        ],
        "text": {
          "status": "generated",
          "div": "<div xmlns=\"http://www.w3.org/1999/xhtml\"><table class=\"hl7__eu__lab__report\"><tr><th>Test</th><th>24-Oct-2019</th><th>Reference&#xA0;Range</th><th>Unit</th></tr><tr><td>Sodium [Moles/volume] in Serum or Plasma</td><td>137.8</td><td>135 - 145</td><td></td><td>mmol/L</td></tr></table></div>"
        },
        "status": "final",
        "subject": {
          "reference": "urn:uuid:5710aabb-1941-4b4f-a868-b6a1a068df6e",
          "display": "Pelayo Casal"
        },
        "effectiveDateTime": "2019-10-24T05:38:59Z",
        "specimen": {
          "reference": "urn:uuid:aceb1905-e44d-471d-9942-d0f2adcfe1ab"
        }
      }
    },
    {
      "fullUrl": "urn:uuid:5f7c9ab8-4251-4c71-a214-c9e4d78eea0f",
      "resource": {
        "resourceType": "Observation",
        "id": "5f7c9ab8-4251-4c71-a214-c9e4d78eea0f",
        "meta": {
          "profile": [
            "http://hl7.eu/fhir/laboratory/StructureDefinition/Observation-resultslab-eu-lab"
          ]
        },
        "performer": [
          {
            "display": "The Central European Lab"
          }
        ],
        "category": [
          {
            "coding": [
              {
                "system": "http://terminology.hl7.org/CodeSystem/observation-category",
                "code": "laboratory"
              }
            ]
          }
        ],
        "code": {
          "coding": [
            {
              "code": "2823-3",
              "system": "http://loinc.org",
              "display": "Potassium [Moles/volume] in Serum or Plasma"
            }
          ],
          "text": "Potassium [Moles/volume] in Serum or Plasma"
        },
        "valueQuantity": {
          "system": "http://unitsofmeasure.org",
          "value": 5,
          "unit": "mmol/L",
          "code": "mmol/L"
        },
        "referenceRange": [
          {
            "low": {
              "value": 3.5,
              "code": "mmol/L",
              "system": "http://unitsofmeasure.org"
            }
          },
          {
            "high": {
              "value": 5.3,
              "code": "mmol/L",
              "system": "http://unitsofmeasure.org"
            }
          }
        ],
        "text": {
          "status": "generated",
          "div": "<div xmlns=\"http://www.w3.org/1999/xhtml\"><table class=\"hl7__eu__lab__report\"><tr><th>Test</th><th>24-Oct-2019</th><th>Reference&#xA0;Range</th><th>Unit</th></tr><tr><td>Potassium [Moles/volume] in Serum or Plasma</td><td>5.0</td><td>3.5 - 5.3</td><td></td><td>mmol/L</td></tr></table></div>"
        },
        "status": "final",
        "subject": {
          "reference": "urn:uuid:5710aabb-1941-4b4f-a868-b6a1a068df6e",
          "display": "Pelayo Casal"
        },
        "effectiveDateTime": "2019-10-24T05:38:59Z",
        "specimen": {
          "reference": "urn:uuid:aceb1905-e44d-471d-9942-d0f2adcfe1ab"
        }
      }
    },
    {
      "fullUrl": "urn:uuid:d30b2b03-5a15-4cf3-b4ed-b9485a68b795",
      "resource": {
        "resourceType": "Observation",
        "id": "d30b2b03-5a15-4cf3-b4ed-b9485a68b795",
        "meta": {
          "profile": [
            "http://hl7.eu/fhir/laboratory/StructureDefinition/Observation-resultslab-eu-lab"
          ]
        },
        "performer": [
          {
            "display": "The Central European Lab"
          }
        ],
        "category": [
          {
            "coding": [
              {
                "system": "http://terminology.hl7.org/CodeSystem/observation-category",
                "code": "laboratory"
              }
            ]
          }
        ],
        "code": {
          "coding": [
            {
              "code": "2075-0",
              "system": "http://loinc.org",
              "display": "Chloride [Moles/volume] in Serum or Plasma"
            }
          ],
          "text": "Chloride [Moles/volume] in Serum or Plasma"
        },
        "valueQuantity": {
          "system": "http://unitsofmeasure.org",
          "value": 105.4,
          "unit": "mmol/L",
          "code": "mmol/L"
        },
        "referenceRange": [
          {
            "low": {
              "value": 98,
              "code": "mmol/L",
              "system": "http://unitsofmeasure.org"
            }
          },
          {
            "high": {
              "value": 107,
              "code": "mmol/L",
              "system": "http://unitsofmeasure.org"
            }
          }
        ],
        "text": {
          "status": "generated",
          "div": "<div xmlns=\"http://www.w3.org/1999/xhtml\"><table class=\"hl7__eu__lab__report\"><tr><th>Test</th><th>24-Oct-2019</th><th>Reference&#xA0;Range</th><th>Unit</th></tr><tr><td>Chloride [Moles/volume] in Serum or Plasma</td><td>105.4</td><td>98 - 107</td><td></td><td>mmol/L</td></tr></table></div>"
        },
        "status": "final",
        "subject": {
          "reference": "urn:uuid:5710aabb-1941-4b4f-a868-b6a1a068df6e",
          "display": "Pelayo Casal"
        },
        "effectiveDateTime": "2019-10-24T05:38:59Z",
        "specimen": {
          "reference": "urn:uuid:aceb1905-e44d-471d-9942-d0f2adcfe1ab"
        }
      }
    },
    {
      "fullUrl": "urn:uuid:36dfeff6-3f75-4fc2-9d01-eed89f4fa99d",
      "resource": {
        "resourceType": "Observation",
        "id": "36dfeff6-3f75-4fc2-9d01-eed89f4fa99d",
        "meta": {
          "profile": [
            "http://hl7.eu/fhir/laboratory/StructureDefinition/Observation-resultslab-eu-lab"
          ]
        },
        "performer": [
          {
            "display": "The Central European Lab"
          }
        ],
        "category": [
          {
            "coding": [
              {
                "system": "http://terminology.hl7.org/CodeSystem/observation-category",
                "code": "laboratory"
              }
            ]
          }
        ],
        "code": {
          "coding": [
            {
              "code": "2028-9",
              "system": "http://loinc.org",
              "display": "Carbon dioxide, total [Moles/volume] in Serum or Plasma"
            }
          ],
          "text": "Carbon dioxide, total [Moles/volume] in Serum or Plasma"
        },
        "valueQuantity": {
          "system": "http://unitsofmeasure.org",
          "value": 22,
          "unit": "mmol/L",
          "code": "mmol/L"
        },
        "referenceRange": [
          {
            "low": {
              "value": 22,
              "code": "mmol/L",
              "system": "http://unitsofmeasure.org"
            }
          },
          {
            "high": {
              "value": 29,
              "code": "mmol/L",
              "system": "http://unitsofmeasure.org"
            }
          }
        ],
        "text": {
          "status": "generated",
          "div": "<div xmlns=\"http://www.w3.org/1999/xhtml\"><table class=\"hl7__eu__lab__report\"><tr><th>Test</th><th>24-Oct-2019</th><th>Reference&#xA0;Range</th><th>Unit</th></tr><tr><td>Carbon dioxide, total [Moles/volume] in Serum or Plasma</td><td>22.0</td><td>22 - 29</td><td></td><td>mmol/L</td></tr></table></div>"
        },
        "status": "final",
        "subject": {
          "reference": "urn:uuid:5710aabb-1941-4b4f-a868-b6a1a068df6e",
          "display": "Pelayo Casal"
        },
        "effectiveDateTime": "2019-10-24T05:38:59Z",
        "specimen": {
          "reference": "urn:uuid:aceb1905-e44d-471d-9942-d0f2adcfe1ab"
        }
      }
    },
    {
      "fullUrl": "urn:uuid:8a2973ea-2afa-493e-8fb1-fed1249920cf",
      "resource": {
        "resourceType": "Observation",
        "id": "8a2973ea-2afa-493e-8fb1-fed1249920cf",
        "meta": {
          "profile": [
            "http://hl7.eu/fhir/laboratory/StructureDefinition/Observation-resultslab-eu-lab"
          ]
        },
        "performer": [
          {
            "display": "The Central European Lab"
          }
        ],
        "category": [
          {
            "coding": [
              {
                "system": "http://terminology.hl7.org/CodeSystem/observation-category",
                "code": "laboratory"
              }
            ]
          }
        ],
        "code": {
          "coding": [
            {
              "code": "5767-9",
              "system": "http://loinc.org",
              "display": "Appearance of Urine"
            }
          ],
          "text": "Appearance of Urine"
        },
        "text": {
          "status": "generated",
          "div": "<div xmlns=\"http://www.w3.org/1999/xhtml\"><table class=\"hl7__eu__lab__report\"><tr><th>Test</th><th>24-Oct-2019</th><th>Reference&#xA0;Range</th><th>Unit</th></tr><tr><td>Appearance of Urine</td></tr></table></div>"
        },
        "status": "final",
        "subject": {
          "reference": "urn:uuid:5710aabb-1941-4b4f-a868-b6a1a068df6e",
          "display": "Pelayo Casal"
        },
        "effectiveDateTime": "2019-10-24T05:38:59Z",
        "specimen": {
          "reference": "urn:uuid:107dfd67-fe0c-46be-a57c-c4dd8490bca4"
        }
      }
    },
    {
      "fullUrl": "urn:uuid:d445c560-9f62-4730-88a0-99381ef1ca04",
      "resource": {
        "resourceType": "Observation",
        "id": "d445c560-9f62-4730-88a0-99381ef1ca04",
        "meta": {
          "profile": [
            "http://hl7.eu/fhir/laboratory/StructureDefinition/Observation-resultslab-eu-lab"
          ]
        },
        "performer": [
          {
            "display": "The Central European Lab"
          }
        ],
        "category": [
          {
            "coding": [
              {
                "system": "http://terminology.hl7.org/CodeSystem/observation-category",
                "code": "laboratory"
              }
            ]
          }
        ],
        "code": {
          "coding": [
            {
              "code": "34533-0",
              "system": "http://loinc.org",
              "display": "Odor of Urine"
            }
          ],
          "text": "Odor of Urine"
        },
        "text": {
          "status": "generated",
          "div": "<div xmlns=\"http://www.w3.org/1999/xhtml\"><table class=\"hl7__eu__lab__report\"><tr><th>Test</th><th>24-Oct-2019</th><th>Reference&#xA0;Range</th><th>Unit</th></tr><tr><td>Odor of Urine</td></tr></table></div>"
        },
        "status": "final",
        "subject": {
          "reference": "urn:uuid:5710aabb-1941-4b4f-a868-b6a1a068df6e",
          "display": "Pelayo Casal"
        },
        "effectiveDateTime": "2019-10-24T05:38:59Z",
        "specimen": {
          "reference": "urn:uuid:107dfd67-fe0c-46be-a57c-c4dd8490bca4"
        }
      }
    },
    {
      "fullUrl": "urn:uuid:18eb3758-c67c-4802-9f54-4147130adce8",
      "resource": {
        "resourceType": "Observation",
        "id": "18eb3758-c67c-4802-9f54-4147130adce8",
        "meta": {
          "profile": [
            "http://hl7.eu/fhir/laboratory/StructureDefinition/Observation-resultslab-eu-lab"
          ]
        },
        "performer": [
          {
            "display": "The Central European Lab"
          }
        ],
        "category": [
          {
            "coding": [
              {
                "system": "http://terminology.hl7.org/CodeSystem/observation-category",
                "code": "laboratory"
              }
            ]
          }
        ],
        "code": {
          "coding": [
            {
              "code": "32167-9",
              "system": "http://loinc.org",
              "display": "Clarity of Urine"
            }
          ],
          "text": "Clarity of Urine"
        },
        "text": {
          "status": "generated",
          "div": "<div xmlns=\"http://www.w3.org/1999/xhtml\"><table class=\"hl7__eu__lab__report\"><tr><th>Test</th><th>24-Oct-2019</th><th>Reference&#xA0;Range</th><th>Unit</th></tr><tr><td>Clarity of Urine</td></tr></table></div>"
        },
        "status": "final",
        "subject": {
          "reference": "urn:uuid:5710aabb-1941-4b4f-a868-b6a1a068df6e",
          "display": "Pelayo Casal"
        },
        "effectiveDateTime": "2019-10-24T05:38:59Z",
        "specimen": {
          "reference": "urn:uuid:107dfd67-fe0c-46be-a57c-c4dd8490bca4"
        }
      }
    },
    {
      "fullUrl": "urn:uuid:0ff77bd3-0896-458c-92d2-1f20a3ea469b",
      "resource": {
        "resourceType": "Observation",
        "id": "0ff77bd3-0896-458c-92d2-1f20a3ea469b",
        "meta": {
          "profile": [
            "http://hl7.eu/fhir/laboratory/StructureDefinition/Observation-resultslab-eu-lab"
          ]
        },
        "performer": [
          {
            "display": "The Central European Lab"
          }
        ],
        "category": [
          {
            "coding": [
              {
                "system": "http://terminology.hl7.org/CodeSystem/observation-category",
                "code": "laboratory"
              }
            ]
          }
        ],
        "code": {
          "coding": [
            {
              "code": "5778-6",
              "system": "http://loinc.org",
              "display": "Color of Urine"
            }
          ],
          "text": "Color of Urine"
        },
        "text": {
          "status": "generated",
          "div": "<div xmlns=\"http://www.w3.org/1999/xhtml\"><table class=\"hl7__eu__lab__report\"><tr><th>Test</th><th>24-Oct-2019</th><th>Reference&#xA0;Range</th><th>Unit</th></tr><tr><td>Color of Urine</td></tr></table></div>"
        },
        "status": "final",
        "subject": {
          "reference": "urn:uuid:5710aabb-1941-4b4f-a868-b6a1a068df6e",
          "display": "Pelayo Casal"
        },
        "effectiveDateTime": "2019-10-24T05:38:59Z",
        "specimen": {
          "reference": "urn:uuid:107dfd67-fe0c-46be-a57c-c4dd8490bca4"
        }
      }
    },
    {
      "fullUrl": "urn:uuid:8dfe862b-af85-47ba-beec-5a0423f4c670",
      "resource": {
        "resourceType": "Observation",
        "id": "8dfe862b-af85-47ba-beec-5a0423f4c670",
        "meta": {
          "profile": [
            "http://hl7.eu/fhir/laboratory/StructureDefinition/Observation-resultslab-eu-lab"
          ]
        },
        "performer": [
          {
            "display": "The Central European Lab"
          }
        ],
        "category": [
          {
            "coding": [
              {
                "system": "http://terminology.hl7.org/CodeSystem/observation-category",
                "code": "laboratory"
              }
            ]
          }
        ],
        "code": {
          "coding": [
            {
              "code": "5792-7",
              "system": "http://loinc.org",
              "display": "Glucose [Mass/volume] in Urine by Test strip"
            }
          ],
          "text": "Glucose [Mass/volume] in Urine by Test strip"
        },
        "valueQuantity": {
          "system": "http://unitsofmeasure.org",
          "value": 1.2,
          "unit": "mg/dL",
          "code": "mg/dL"
        },
        "referenceRange": [
          {
            "low": {
              "value": 0.8,
              "code": "mg/dL",
              "system": "http://unitsofmeasure.org"
            }
          },
          {
            "high": {
              "value": 0,
              "code": "mg/dL",
              "system": "http://unitsofmeasure.org"
            }
          }
        ],
        "interpretation": [
          {
            "coding": [
              {
                "code": "H",
                "system": "http://terminology.hl7.org/CodeSystem/v3-ObservationInterpretation",
                "display": "High"
              }
            ]
          }
        ],
        "text": {
          "status": "generated",
          "div": "<div xmlns=\"http://www.w3.org/1999/xhtml\"><table class=\"hl7__eu__lab__report\"><tr><th>Test</th><th>24-Oct-2019</th><th>Reference&#xA0;Range</th><th>Unit</th></tr><tr><td>Glucose [Mass/volume] in Urine by Test strip</td><td>1.2</td><td>0.8 - 0</td><td>H</td><td>mg/dL</td></tr></table></div>"
        },
        "status": "final",
        "subject": {
          "reference": "urn:uuid:5710aabb-1941-4b4f-a868-b6a1a068df6e",
          "display": "Pelayo Casal"
        },
        "effectiveDateTime": "2019-10-24T05:38:59Z",
        "specimen": {
          "reference": "urn:uuid:107dfd67-fe0c-46be-a57c-c4dd8490bca4"
        }
      }
    },
    {
      "fullUrl": "urn:uuid:f840d8f1-a47e-4b77-85da-374a36fd7946",
      "resource": {
        "resourceType": "Observation",
        "id": "f840d8f1-a47e-4b77-85da-374a36fd7946",
        "meta": {
          "profile": [
            "http://hl7.eu/fhir/laboratory/StructureDefinition/Observation-resultslab-eu-lab"
          ]
        },
        "performer": [
          {
            "display": "The Central European Lab"
          }
        ],
        "category": [
          {
            "coding": [
              {
                "system": "http://terminology.hl7.org/CodeSystem/observation-category",
                "code": "laboratory"
              }
            ]
          }
        ],
        "code": {
          "coding": [
            {
              "code": "25428-4",
              "system": "http://loinc.org",
              "display": "Glucose [Presence] in Urine by Test strip"
            }
          ],
          "text": "Glucose [Presence] in Urine by Test strip"
        },
        "text": {
          "status": "generated",
          "div": "<div xmlns=\"http://www.w3.org/1999/xhtml\"><table class=\"hl7__eu__lab__report\"><tr><th>Test</th><th>24-Oct-2019</th><th>Reference&#xA0;Range</th><th>Unit</th></tr><tr><td>Glucose [Presence] in Urine by Test strip</td></tr></table></div>"
        },
        "status": "final",
        "subject": {
          "reference": "urn:uuid:5710aabb-1941-4b4f-a868-b6a1a068df6e",
          "display": "Pelayo Casal"
        },
        "effectiveDateTime": "2019-10-24T05:38:59Z",
        "specimen": {
          "reference": "urn:uuid:107dfd67-fe0c-46be-a57c-c4dd8490bca4"
        }
      }
    },
    {
      "fullUrl": "urn:uuid:4b45a1ff-0ff9-4c80-bbae-2433bfbed158",
      "resource": {
        "resourceType": "Observation",
        "id": "4b45a1ff-0ff9-4c80-bbae-2433bfbed158",
        "meta": {
          "profile": [
            "http://hl7.eu/fhir/laboratory/StructureDefinition/Observation-resultslab-eu-lab"
          ]
        },
        "performer": [
          {
            "display": "The Central European Lab"
          }
        ],
        "category": [
          {
            "coding": [
              {
                "system": "http://terminology.hl7.org/CodeSystem/observation-category",
                "code": "laboratory"
              }
            ]
          }
        ],
        "code": {
          "coding": [
            {
              "code": "20505-4",
              "system": "http://loinc.org",
              "display": "Bilirubin.total [Mass/volume] in Urine by Test strip"
            }
          ],
          "text": "Bilirubin.total [Mass/volume] in Urine by Test strip"
        },
        "valueQuantity": {
          "system": "http://unitsofmeasure.org",
          "value": 0.2,
          "unit": "mg/dL",
          "code": "mg/dL"
        },
        "referenceRange": [
          {
            "low": {
              "value": 0.2,
              "code": "mg/dL",
              "system": "http://unitsofmeasure.org"
            }
          },
          {
            "high": {
              "value": 1.5,
              "code": "mg/dL",
              "system": "http://unitsofmeasure.org"
            }
          }
        ],
        "text": {
          "status": "generated",
          "div": "<div xmlns=\"http://www.w3.org/1999/xhtml\"><table class=\"hl7__eu__lab__report\"><tr><th>Test</th><th>24-Oct-2019</th><th>Reference&#xA0;Range</th><th>Unit</th></tr><tr><td>Bilirubin.total [Mass/volume] in Urine by Test strip</td><td>0.2</td><td>0.2 - 1.5</td><td></td><td>mg/dL</td></tr></table></div>"
        },
        "status": "final",
        "subject": {
          "reference": "urn:uuid:5710aabb-1941-4b4f-a868-b6a1a068df6e",
          "display": "Pelayo Casal"
        },
        "effectiveDateTime": "2019-10-24T05:38:59Z",
        "specimen": {
          "reference": "urn:uuid:107dfd67-fe0c-46be-a57c-c4dd8490bca4"
        }
      }
    },
    {
      "fullUrl": "urn:uuid:d00034ba-730a-4912-b3a2-a8471bae793a",
      "resource": {
        "resourceType": "Observation",
        "id": "d00034ba-730a-4912-b3a2-a8471bae793a",
        "meta": {
          "profile": [
            "http://hl7.eu/fhir/laboratory/StructureDefinition/Observation-resultslab-eu-lab"
          ]
        },
        "performer": [
          {
            "display": "The Central European Lab"
          }
        ],
        "category": [
          {
            "coding": [
              {
                "system": "http://terminology.hl7.org/CodeSystem/observation-category",
                "code": "laboratory"
              }
            ]
          }
        ],
        "code": {
          "coding": [
            {
              "code": "5770-3",
              "system": "http://loinc.org",
              "display": "Bilirubin.total [Presence] in Urine by Test strip"
            }
          ],
          "text": "Bilirubin.total [Presence] in Urine by Test strip"
        },
        "text": {
          "status": "generated",
          "div": "<div xmlns=\"http://www.w3.org/1999/xhtml\"><table class=\"hl7__eu__lab__report\"><tr><th>Test</th><th>24-Oct-2019</th><th>Reference&#xA0;Range</th><th>Unit</th></tr><tr><td>Bilirubin.total [Presence] in Urine by Test strip</td></tr></table></div>"
        },
        "status": "final",
        "subject": {
          "reference": "urn:uuid:5710aabb-1941-4b4f-a868-b6a1a068df6e",
          "display": "Pelayo Casal"
        },
        "effectiveDateTime": "2019-10-24T05:38:59Z",
        "specimen": {
          "reference": "urn:uuid:107dfd67-fe0c-46be-a57c-c4dd8490bca4"
        }
      }
    },
    {
      "fullUrl": "urn:uuid:2d8459ca-d797-413f-b830-cd4c212d2bfe",
      "resource": {
        "resourceType": "Observation",
        "id": "2d8459ca-d797-413f-b830-cd4c212d2bfe",
        "meta": {
          "profile": [
            "http://hl7.eu/fhir/laboratory/StructureDefinition/Observation-resultslab-eu-lab"
          ]
        },
        "performer": [
          {
            "display": "The Central European Lab"
          }
        ],
        "category": [
          {
            "coding": [
              {
                "system": "http://terminology.hl7.org/CodeSystem/observation-category",
                "code": "laboratory"
              }
            ]
          }
        ],
        "code": {
          "coding": [
            {
              "code": "5797-6",
              "system": "http://loinc.org",
              "display": "Ketones [Mass/volume] in Urine by Test strip"
            }
          ],
          "text": "Ketones [Mass/volume] in Urine by Test strip"
        },
        "valueQuantity": {
          "system": "http://unitsofmeasure.org",
          "value": 11.4,
          "unit": "mg/dL",
          "code": "mg/dL"
        },
        "referenceRange": [
          {
            "low": {
              "value": 0,
              "code": "mg/dL",
              "system": "http://unitsofmeasure.org"
            }
          },
          {
            "high": {
              "value": 4,
              "code": "mg/dL",
              "system": "http://unitsofmeasure.org"
            }
          }
        ],
        "interpretation": [
          {
            "coding": [
              {
                "code": "H",
                "system": "http://terminology.hl7.org/CodeSystem/v3-ObservationInterpretation",
                "display": "High"
              }
            ]
          }
        ],
        "text": {
          "status": "generated",
          "div": "<div xmlns=\"http://www.w3.org/1999/xhtml\"><table class=\"hl7__eu__lab__report\"><tr><th>Test</th><th>24-Oct-2019</th><th>Reference&#xA0;Range</th><th>Unit</th></tr><tr><td>Ketones [Mass/volume] in Urine by Test strip</td><td>11.4</td><td>0 - 4</td><td>H</td><td>mg/dL</td></tr></table></div>"
        },
        "status": "final",
        "subject": {
          "reference": "urn:uuid:5710aabb-1941-4b4f-a868-b6a1a068df6e",
          "display": "Pelayo Casal"
        },
        "effectiveDateTime": "2019-10-24T05:38:59Z",
        "specimen": {
          "reference": "urn:uuid:107dfd67-fe0c-46be-a57c-c4dd8490bca4"
        }
      }
    },
    {
      "fullUrl": "urn:uuid:fb2963a7-2c93-4596-82e9-1d950f7164dd",
      "resource": {
        "resourceType": "Observation",
        "id": "fb2963a7-2c93-4596-82e9-1d950f7164dd",
        "meta": {
          "profile": [
            "http://hl7.eu/fhir/laboratory/StructureDefinition/Observation-resultslab-eu-lab"
          ]
        },
        "performer": [
          {
            "display": "The Central European Lab"
          }
        ],
        "category": [
          {
            "coding": [
              {
                "system": "http://terminology.hl7.org/CodeSystem/observation-category",
                "code": "laboratory"
              }
            ]
          }
        ],
        "code": {
          "coding": [
            {
              "code": "2514-8",
              "system": "http://loinc.org",
              "display": "Ketones [Presence] in Urine by Test strip"
            }
          ],
          "text": "Ketones [Presence] in Urine by Test strip"
        },
        "text": {
          "status": "generated",
          "div": "<div xmlns=\"http://www.w3.org/1999/xhtml\"><table class=\"hl7__eu__lab__report\"><tr><th>Test</th><th>24-Oct-2019</th><th>Reference&#xA0;Range</th><th>Unit</th></tr><tr><td>Ketones [Presence] in Urine by Test strip</td></tr></table></div>"
        },
        "status": "final",
        "subject": {
          "reference": "urn:uuid:5710aabb-1941-4b4f-a868-b6a1a068df6e",
          "display": "Pelayo Casal"
        },
        "effectiveDateTime": "2019-10-24T05:38:59Z",
        "specimen": {
          "reference": "urn:uuid:107dfd67-fe0c-46be-a57c-c4dd8490bca4"
        }
      }
    },
    {
      "fullUrl": "urn:uuid:d151b152-1e53-4a99-ae8e-bfb4ca89ae72",
      "resource": {
        "resourceType": "Observation",
        "id": "d151b152-1e53-4a99-ae8e-bfb4ca89ae72",
        "meta": {
          "profile": [
            "http://hl7.eu/fhir/laboratory/StructureDefinition/Observation-resultslab-eu-lab"
          ]
        },
        "performer": [
          {
            "display": "The Central European Lab"
          }
        ],
        "category": [
          {
            "coding": [
              {
                "system": "http://terminology.hl7.org/CodeSystem/observation-category",
                "code": "laboratory"
              }
            ]
          }
        ],
        "code": {
          "coding": [
            {
              "code": "5811-5",
              "system": "http://loinc.org",
              "display": "Specific gravity of Urine by Test strip"
            }
          ],
          "text": "Specific gravity of Urine by Test strip"
        },
        "valueQuantity": {
          "system": "http://unitsofmeasure.org",
          "value": 1,
          "unit": "{nominal}",
          "code": "{nominal}"
        },
        "referenceRange": [
          {
            "low": {
              "value": 1.01,
              "code": "g/mL",
              "system": "http://unitsofmeasure.org"
            }
          },
          {
            "high": {
              "value": 1.03,
              "code": "g/mL",
              "system": "http://unitsofmeasure.org"
            }
          }
        ],
        "interpretation": [
          {
            "coding": [
              {
                "code": "L",
                "system": "http://terminology.hl7.org/CodeSystem/v3-ObservationInterpretation",
                "display": "Low"
              }
            ]
          }
        ],
        "text": {
          "status": "generated",
          "div": "<div xmlns=\"http://www.w3.org/1999/xhtml\"><table class=\"hl7__eu__lab__report\"><tr><th>Test</th><th>24-Oct-2019</th><th>Reference&#xA0;Range</th><th>Unit</th></tr><tr><td>Specific gravity of Urine by Test strip</td><td>1.0</td><td>1.01 - 1.03</td><td>L</td><td>{nominal}</td></tr></table></div>"
        },
        "status": "final",
        "subject": {
          "reference": "urn:uuid:5710aabb-1941-4b4f-a868-b6a1a068df6e",
          "display": "Pelayo Casal"
        },
        "effectiveDateTime": "2019-10-24T05:38:59Z",
        "specimen": {
          "reference": "urn:uuid:107dfd67-fe0c-46be-a57c-c4dd8490bca4"
        }
      }
    },
    {
      "fullUrl": "urn:uuid:764e37f5-5dab-4f58-a55d-14b6ad7c6d7c",
      "resource": {
        "resourceType": "Observation",
        "id": "764e37f5-5dab-4f58-a55d-14b6ad7c6d7c",
        "meta": {
          "profile": [
            "http://hl7.eu/fhir/laboratory/StructureDefinition/Observation-resultslab-eu-lab"
          ]
        },
        "performer": [
          {
            "display": "The Central European Lab"
          }
        ],
        "category": [
          {
            "coding": [
              {
                "system": "http://terminology.hl7.org/CodeSystem/observation-category",
                "code": "laboratory"
              }
            ]
          }
        ],
        "code": {
          "coding": [
            {
              "code": "5803-2",
              "system": "http://loinc.org",
              "display": "pH of Urine by Test strip"
            }
          ],
          "text": "pH of Urine by Test strip"
        },
        "valueQuantity": {
          "system": "http://unitsofmeasure.org",
          "value": 6.7,
          "unit": "pH",
          "code": "pH"
        },
        "referenceRange": [
          {
            "low": {
              "value": 4.5,
              "code": "pH",
              "system": "http://unitsofmeasure.org"
            }
          },
          {
            "high": {
              "value": 7.5,
              "code": "pH",
              "system": "http://unitsofmeasure.org"
            }
          }
        ],
        "text": {
          "status": "generated",
          "div": "<div xmlns=\"http://www.w3.org/1999/xhtml\"><table class=\"hl7__eu__lab__report\"><tr><th>Test</th><th>24-Oct-2019</th><th>Reference&#xA0;Range</th><th>Unit</th></tr><tr><td>pH of Urine by Test strip</td><td>6.7</td><td>4.5 - 7.5</td><td></td><td>pH</td></tr></table></div>"
        },
        "status": "final",
        "subject": {
          "reference": "urn:uuid:5710aabb-1941-4b4f-a868-b6a1a068df6e",
          "display": "Pelayo Casal"
        },
        "effectiveDateTime": "2019-10-24T05:38:59Z",
        "specimen": {
          "reference": "urn:uuid:107dfd67-fe0c-46be-a57c-c4dd8490bca4"
        }
      }
    },
    {
      "fullUrl": "urn:uuid:68fdb517-5e90-43e6-baf2-e77a2acce732",
      "resource": {
        "resourceType": "Observation",
        "id": "68fdb517-5e90-43e6-baf2-e77a2acce732",
        "meta": {
          "profile": [
            "http://hl7.eu/fhir/laboratory/StructureDefinition/Observation-resultslab-eu-lab"
          ]
        },
        "performer": [
          {
            "display": "The Central European Lab"
          }
        ],
        "category": [
          {
            "coding": [
              {
                "system": "http://terminology.hl7.org/CodeSystem/observation-category",
                "code": "laboratory"
              }
            ]
          }
        ],
        "code": {
          "coding": [
            {
              "code": "5804-0",
              "system": "http://loinc.org",
              "display": "Protein [Mass/volume] in Urine by Test strip"
            }
          ],
          "text": "Protein [Mass/volume] in Urine by Test strip"
        },
        "valueQuantity": {
          "system": "http://unitsofmeasure.org",
          "value": 294.5,
          "unit": "mg/dL",
          "code": "mg/dL"
        },
        "referenceRange": [
          {
            "low": {
              "value": 0,
              "code": "mg/dL",
              "system": "http://unitsofmeasure.org"
            }
          },
          {
            "high": {
              "value": 150,
              "code": "mg/dL",
              "system": "http://unitsofmeasure.org"
            }
          }
        ],
        "interpretation": [
          {
            "coding": [
              {
                "code": "H",
                "system": "http://terminology.hl7.org/CodeSystem/v3-ObservationInterpretation",
                "display": "High"
              }
            ]
          }
        ],
        "text": {
          "status": "generated",
          "div": "<div xmlns=\"http://www.w3.org/1999/xhtml\"><table class=\"hl7__eu__lab__report\"><tr><th>Test</th><th>24-Oct-2019</th><th>Reference&#xA0;Range</th><th>Unit</th></tr><tr><td>Protein [Mass/volume] in Urine by Test strip</td><td>294.5</td><td>0 - 150</td><td>H</td><td>mg/dL</td></tr></table></div>"
        },
        "status": "final",
        "subject": {
          "reference": "urn:uuid:5710aabb-1941-4b4f-a868-b6a1a068df6e",
          "display": "Pelayo Casal"
        },
        "effectiveDateTime": "2019-10-24T05:38:59Z",
        "specimen": {
          "reference": "urn:uuid:107dfd67-fe0c-46be-a57c-c4dd8490bca4"
        }
      }
    },
    {
      "fullUrl": "urn:uuid:1beeb8c4-93a6-4b07-873c-5f0bc482a6e6",
      "resource": {
        "resourceType": "Observation",
        "id": "1beeb8c4-93a6-4b07-873c-5f0bc482a6e6",
        "meta": {
          "profile": [
            "http://hl7.eu/fhir/laboratory/StructureDefinition/Observation-resultslab-eu-lab"
          ]
        },
        "performer": [
          {
            "display": "The Central European Lab"
          }
        ],
        "category": [
          {
            "coding": [
              {
                "system": "http://terminology.hl7.org/CodeSystem/observation-category",
                "code": "laboratory"
              }
            ]
          }
        ],
        "code": {
          "coding": [
            {
              "code": "20454-5",
              "system": "http://loinc.org",
              "display": "Protein [Presence] in Urine by Test strip"
            }
          ],
          "text": "Protein [Presence] in Urine by Test strip"
        },
        "text": {
          "status": "generated",
          "div": "<div xmlns=\"http://www.w3.org/1999/xhtml\"><table class=\"hl7__eu__lab__report\"><tr><th>Test</th><th>24-Oct-2019</th><th>Reference&#xA0;Range</th><th>Unit</th></tr><tr><td>Protein [Presence] in Urine by Test strip</td></tr></table></div>"
        },
        "status": "final",
        "subject": {
          "reference": "urn:uuid:5710aabb-1941-4b4f-a868-b6a1a068df6e",
          "display": "Pelayo Casal"
        },
        "effectiveDateTime": "2019-10-24T05:38:59Z",
        "specimen": {
          "reference": "urn:uuid:107dfd67-fe0c-46be-a57c-c4dd8490bca4"
        }
      }
    },
    {
      "fullUrl": "urn:uuid:3a1c5a3f-71a2-4d07-9733-be55b8dada3d",
      "resource": {
        "resourceType": "Observation",
        "id": "3a1c5a3f-71a2-4d07-9733-be55b8dada3d",
        "meta": {
          "profile": [
            "http://hl7.eu/fhir/laboratory/StructureDefinition/Observation-resultslab-eu-lab"
          ]
        },
        "performer": [
          {
            "display": "The Central European Lab"
          }
        ],
        "category": [
          {
            "coding": [
              {
                "system": "http://terminology.hl7.org/CodeSystem/observation-category",
                "code": "laboratory"
              }
            ]
          }
        ],
        "code": {
          "coding": [
            {
              "code": "5802-4",
              "system": "http://loinc.org",
              "display": "Nitrite [Presence] in Urine by Test strip"
            }
          ],
          "text": "Nitrite [Presence] in Urine by Test strip"
        },
        "text": {
          "status": "generated",
          "div": "<div xmlns=\"http://www.w3.org/1999/xhtml\"><table class=\"hl7__eu__lab__report\"><tr><th>Test</th><th>24-Oct-2019</th><th>Reference&#xA0;Range</th><th>Unit</th></tr><tr><td>Nitrite [Presence] in Urine by Test strip</td></tr></table></div>"
        },
        "status": "final",
        "subject": {
          "reference": "urn:uuid:5710aabb-1941-4b4f-a868-b6a1a068df6e",
          "display": "Pelayo Casal"
        },
        "effectiveDateTime": "2019-10-24T05:38:59Z",
        "specimen": {
          "reference": "urn:uuid:107dfd67-fe0c-46be-a57c-c4dd8490bca4"
        }
      }
    },
    {
      "fullUrl": "urn:uuid:745699f5-f54d-4d65-88b4-1be209da7a57",
      "resource": {
        "resourceType": "Observation",
        "id": "745699f5-f54d-4d65-88b4-1be209da7a57",
        "meta": {
          "profile": [
            "http://hl7.eu/fhir/laboratory/StructureDefinition/Observation-resultslab-eu-lab"
          ]
        },
        "performer": [
          {
            "display": "The Central European Lab"
          }
        ],
        "category": [
          {
            "coding": [
              {
                "system": "http://terminology.hl7.org/CodeSystem/observation-category",
                "code": "laboratory"
              }
            ]
          }
        ],
        "code": {
          "coding": [
            {
              "code": "5794-3",
              "system": "http://loinc.org",
              "display": "Hemoglobin [Presence] in Urine by Test strip"
            }
          ],
          "text": "Hemoglobin [Presence] in Urine by Test strip"
        },
        "text": {
          "status": "generated",
          "div": "<div xmlns=\"http://www.w3.org/1999/xhtml\"><table class=\"hl7__eu__lab__report\"><tr><th>Test</th><th>24-Oct-2019</th><th>Reference&#xA0;Range</th><th>Unit</th></tr><tr><td>Hemoglobin [Presence] in Urine by Test strip</td></tr></table></div>"
        },
        "status": "final",
        "subject": {
          "reference": "urn:uuid:5710aabb-1941-4b4f-a868-b6a1a068df6e",
          "display": "Pelayo Casal"
        },
        "effectiveDateTime": "2019-10-24T05:38:59Z",
        "specimen": {
          "reference": "urn:uuid:107dfd67-fe0c-46be-a57c-c4dd8490bca4"
        }
      }
    },
    {
      "fullUrl": "urn:uuid:6b759747-57bb-48a1-8f31-5f7d342f3bee",
      "resource": {
        "resourceType": "Observation",
        "id": "6b759747-57bb-48a1-8f31-5f7d342f3bee",
        "meta": {
          "profile": [
            "http://hl7.eu/fhir/laboratory/StructureDefinition/Observation-resultslab-eu-lab"
          ]
        },
        "performer": [
          {
            "display": "The Central European Lab"
          }
        ],
        "category": [
          {
            "coding": [
              {
                "system": "http://terminology.hl7.org/CodeSystem/observation-category",
                "code": "laboratory"
              }
            ]
          }
        ],
        "code": {
          "coding": [
            {
              "code": "5799-2",
              "system": "http://loinc.org",
              "display": "Leukocyte esterase [Presence] in Urine by Test strip"
            }
          ],
          "text": "Leukocyte esterase [Presence] in Urine by Test strip"
        },
        "text": {
          "status": "generated",
          "div": "<div xmlns=\"http://www.w3.org/1999/xhtml\"><table class=\"hl7__eu__lab__report\"><tr><th>Test</th><th>24-Oct-2019</th><th>Reference&#xA0;Range</th><th>Unit</th></tr><tr><td>Leukocyte esterase [Presence] in Urine by Test strip</td></tr></table></div>"
        },
        "status": "final",
        "subject": {
          "reference": "urn:uuid:5710aabb-1941-4b4f-a868-b6a1a068df6e",
          "display": "Pelayo Casal"
        },
        "effectiveDateTime": "2019-10-24T05:38:59Z",
        "specimen": {
          "reference": "urn:uuid:107dfd67-fe0c-46be-a57c-c4dd8490bca4"
        }
      }
    },
    {
      "fullUrl": "urn:uuid:e80d7755-c239-4cc8-973f-9e1154b878d7",
      "resource": {
        "resourceType": "Observation",
        "id": "e80d7755-c239-4cc8-973f-9e1154b878d7",
        "meta": {
          "profile": [
            "http://hl7.eu/fhir/laboratory/StructureDefinition/Observation-resultslab-eu-lab"
          ]
        },
        "performer": [
          {
            "display": "The Central European Lab"
          }
        ],
        "category": [
          {
            "coding": [
              {
                "system": "http://terminology.hl7.org/CodeSystem/observation-category",
                "code": "laboratory"
              }
            ]
          }
        ],
        "code": {
          "coding": [
            {
              "code": "4548-4",
              "system": "http://loinc.org",
              "display": "Hemoglobin A1c/Hemoglobin.total in Blood"
            }
          ],
          "text": "Hemoglobin A1c/Hemoglobin.total in Blood"
        },
        "valueQuantity": {
          "system": "http://unitsofmeasure.org",
          "value": 3.2,
          "unit": "%",
          "code": "%"
        },
        "referenceRange": [
          {
            "low": {
              "value": 4.5,
              "code": "%",
              "system": "http://unitsofmeasure.org"
            }
          },
          {
            "high": {
              "value": 6.4,
              "code": "%",
              "system": "http://unitsofmeasure.org"
            }
          }
        ],
        "interpretation": [
          {
            "coding": [
              {
                "code": "L",
                "system": "http://terminology.hl7.org/CodeSystem/v3-ObservationInterpretation",
                "display": "Low"
              }
            ]
          }
        ],
        "text": {
          "status": "generated",
          "div": "<div xmlns=\"http://www.w3.org/1999/xhtml\"><table class=\"hl7__eu__lab__report\"><tr><th>Test</th><th>24-Oct-2019</th><th>Reference&#xA0;Range</th><th>Unit</th></tr><tr><td>Hemoglobin A1c/Hemoglobin.total in Blood</td><td>3.2</td><td>4.5 - 6.4</td><td>L</td><td>%</td></tr></table></div>"
        },
        "status": "final",
        "subject": {
          "reference": "urn:uuid:5710aabb-1941-4b4f-a868-b6a1a068df6e",
          "display": "Pelayo Casal"
        },
        "effectiveDateTime": "2019-10-24T05:38:59Z",
        "specimen": {
          "reference": "urn:uuid:6ca4ef19-600a-4ce2-a8fd-2339674dcfe4"
        }
      }
    },
    {
      "fullUrl": "urn:uuid:5ca9d8a2-e83c-4cc5-bc96-544c580016d7",
      "resource": {
        "resourceType": "Observation",
        "id": "5ca9d8a2-e83c-4cc5-bc96-544c580016d7",
        "meta": {
          "profile": [
            "http://hl7.eu/fhir/laboratory/StructureDefinition/Observation-resultslab-eu-lab"
          ]
        },
        "performer": [
          {
            "display": "The Central European Lab"
          }
        ],
        "category": [
          {
            "coding": [
              {
                "system": "http://terminology.hl7.org/CodeSystem/observation-category",
                "code": "laboratory"
              }
            ]
          }
        ],
        "code": {
          "coding": [
            {
              "code": "2339-0",
              "system": "http://loinc.org",
              "display": "Glucose [Mass/volume] in Blood"
            }
          ],
          "text": "Glucose [Mass/volume] in Blood"
        },
        "valueQuantity": {
          "system": "http://unitsofmeasure.org",
          "value": 95.9,
          "unit": "mg/dL",
          "code": "mg/dL"
        },
        "referenceRange": [
          {
            "low": {
              "value": 70,
              "code": "mg/dL",
              "system": "http://unitsofmeasure.org"
            }
          },
          {
            "high": {
              "value": 140,
              "code": "mg/dL",
              "system": "http://unitsofmeasure.org"
            }
          }
        ],
        "text": {
          "status": "generated",
          "div": "<div xmlns=\"http://www.w3.org/1999/xhtml\"><table class=\"hl7__eu__lab__report\"><tr><th>Test</th><th>24-Oct-2019</th><th>Reference&#xA0;Range</th><th>Unit</th></tr><tr><td>Glucose [Mass/volume] in Blood</td><td>95.9</td><td>70 - 140</td><td></td><td>mg/dL</td></tr></table></div>"
        },
        "status": "final",
        "subject": {
          "reference": "urn:uuid:5710aabb-1941-4b4f-a868-b6a1a068df6e",
          "display": "Pelayo Casal"
        },
        "effectiveDateTime": "2019-10-24T05:38:59Z",
        "specimen": {
          "reference": "urn:uuid:6ca4ef19-600a-4ce2-a8fd-2339674dcfe4"
        }
      }
    },
    {
      "fullUrl": "urn:uuid:8cdd7381-ec9d-43ed-98c6-fafcec700120",
      "resource": {
        "resourceType": "Observation",
        "id": "8cdd7381-ec9d-43ed-98c6-fafcec700120",
        "meta": {
          "profile": [
            "http://hl7.eu/fhir/laboratory/StructureDefinition/Observation-resultslab-eu-lab"
          ]
        },
        "performer": [
          {
            "display": "The Central European Lab"
          }
        ],
        "category": [
          {
            "coding": [
              {
                "system": "http://terminology.hl7.org/CodeSystem/observation-category",
                "code": "laboratory"
              }
            ]
          }
        ],
        "code": {
          "coding": [
            {
              "code": "6299-2",
              "system": "http://loinc.org",
              "display": "Urea nitrogen [Mass/volume] in Blood"
            }
          ],
          "text": "Urea nitrogen [Mass/volume] in Blood"
        },
        "valueQuantity": {
          "system": "http://unitsofmeasure.org",
          "value": 11.6,
          "unit": "mg/dL",
          "code": "mg/dL"
        },
        "referenceRange": [
          {
            "low": {
              "value": 7,
              "code": "mg/dL",
              "system": "http://unitsofmeasure.org"
            }
          },
          {
            "high": {
              "value": 25,
              "code": "mg/dL",
              "system": "http://unitsofmeasure.org"
            }
          }
        ],
        "text": {
          "status": "generated",
          "div": "<div xmlns=\"http://www.w3.org/1999/xhtml\"><table class=\"hl7__eu__lab__report\"><tr><th>Test</th><th>24-Oct-2019</th><th>Reference&#xA0;Range</th><th>Unit</th></tr><tr><td>Urea nitrogen [Mass/volume] in Blood</td><td>11.6</td><td>7 - 25</td><td></td><td>mg/dL</td></tr></table></div>"
        },
        "status": "final",
        "subject": {
          "reference": "urn:uuid:5710aabb-1941-4b4f-a868-b6a1a068df6e",
          "display": "Pelayo Casal"
        },
        "effectiveDateTime": "2019-10-24T05:38:59Z",
        "specimen": {
          "reference": "urn:uuid:6ca4ef19-600a-4ce2-a8fd-2339674dcfe4"
        }
      }
    },
    {
      "fullUrl": "urn:uuid:83b8ffa3-83c7-4a4f-8df3-b68bcdcb2c55",
      "resource": {
        "resourceType": "Observation",
        "id": "83b8ffa3-83c7-4a4f-8df3-b68bcdcb2c55",
        "meta": {
          "profile": [
            "http://hl7.eu/fhir/laboratory/StructureDefinition/Observation-resultslab-eu-lab"
          ]
        },
        "performer": [
          {
            "display": "The Central European Lab"
          }
        ],
        "category": [
          {
            "coding": [
              {
                "system": "http://terminology.hl7.org/CodeSystem/observation-category",
                "code": "laboratory"
              }
            ]
          }
        ],
        "code": {
          "coding": [
            {
              "code": "38483-4",
              "system": "http://loinc.org",
              "display": "Creatinine [Mass/volume] in Blood"
            }
          ],
          "text": "Creatinine [Mass/volume] in Blood"
        },
        "valueQuantity": {
          "system": "http://unitsofmeasure.org",
          "value": 2,
          "unit": "mg/dL",
          "code": "mg/dL"
        },
        "referenceRange": [
          {
            "low": {
              "value": 0.9,
              "code": "mg/dL",
              "system": "http://unitsofmeasure.org"
            }
          },
          {
            "high": {
              "value": 1.3,
              "code": "mg/dL",
              "system": "http://unitsofmeasure.org"
            }
          }
        ],
        "interpretation": [
          {
            "coding": [
              {
                "code": "H",
                "system": "http://terminology.hl7.org/CodeSystem/v3-ObservationInterpretation",
                "display": "High"
              }
            ]
          }
        ],
        "text": {
          "status": "generated",
          "div": "<div xmlns=\"http://www.w3.org/1999/xhtml\"><table class=\"hl7__eu__lab__report\"><tr><th>Test</th><th>24-Oct-2019</th><th>Reference&#xA0;Range</th><th>Unit</th></tr><tr><td>Creatinine [Mass/volume] in Blood</td><td>2.0</td><td>0.9 - 1.3</td><td>H</td><td>mg/dL</td></tr></table></div>"
        },
        "status": "final",
        "subject": {
          "reference": "urn:uuid:5710aabb-1941-4b4f-a868-b6a1a068df6e",
          "display": "Pelayo Casal"
        },
        "effectiveDateTime": "2019-10-24T05:38:59Z",
        "specimen": {
          "reference": "urn:uuid:6ca4ef19-600a-4ce2-a8fd-2339674dcfe4"
        }
      }
    },
    {
      "fullUrl": "urn:uuid:004b7769-fca0-446a-b6a7-44638c3d3f74",
      "resource": {
        "resourceType": "Observation",
        "id": "004b7769-fca0-446a-b6a7-44638c3d3f74",
        "meta": {
          "profile": [
            "http://hl7.eu/fhir/laboratory/StructureDefinition/Observation-resultslab-eu-lab"
          ]
        },
        "performer": [
          {
            "display": "The Central European Lab"
          }
        ],
        "category": [
          {
            "coding": [
              {
                "system": "http://terminology.hl7.org/CodeSystem/observation-category",
                "code": "laboratory"
              }
            ]
          }
        ],
        "code": {
          "coding": [
            {
              "code": "49765-1",
              "system": "http://loinc.org",
              "display": "Calcium [Mass/volume] in Blood"
            }
          ],
          "text": "Calcium [Mass/volume] in Blood"
        },
        "valueQuantity": {
          "system": "http://unitsofmeasure.org",
          "value": 9.3,
          "unit": "mg/dL",
          "code": "mg/dL"
        },
        "referenceRange": [
          {
            "low": {
              "value": 8.6,
              "code": "mg/dL",
              "system": "http://unitsofmeasure.org"
            }
          },
          {
            "high": {
              "value": 10.2,
              "code": "mg/dL",
              "system": "http://unitsofmeasure.org"
            }
          }
        ],
        "text": {
          "status": "generated",
          "div": "<div xmlns=\"http://www.w3.org/1999/xhtml\"><table class=\"hl7__eu__lab__report\"><tr><th>Test</th><th>24-Oct-2019</th><th>Reference&#xA0;Range</th><th>Unit</th></tr><tr><td>Calcium [Mass/volume] in Blood</td><td>9.3</td><td>8.6 - 10.2</td><td></td><td>mg/dL</td></tr></table></div>"
        },
        "status": "final",
        "subject": {
          "reference": "urn:uuid:5710aabb-1941-4b4f-a868-b6a1a068df6e",
          "display": "Pelayo Casal"
        },
        "effectiveDateTime": "2019-10-24T05:38:59Z",
        "specimen": {
          "reference": "urn:uuid:6ca4ef19-600a-4ce2-a8fd-2339674dcfe4"
        }
      }
    },
    {
      "fullUrl": "urn:uuid:5ab18de3-f2a5-4628-90a7-16a1ca7723c5",
      "resource": {
        "resourceType": "Observation",
        "id": "5ab18de3-f2a5-4628-90a7-16a1ca7723c5",
        "meta": {
          "profile": [
            "http://hl7.eu/fhir/laboratory/StructureDefinition/Observation-resultslab-eu-lab"
          ]
        },
        "performer": [
          {
            "display": "The Central European Lab"
          }
        ],
        "category": [
          {
            "coding": [
              {
                "system": "http://terminology.hl7.org/CodeSystem/observation-category",
                "code": "laboratory"
              }
            ]
          }
        ],
        "code": {
          "coding": [
            {
              "code": "2947-0",
              "system": "http://loinc.org",
              "display": "Sodium [Moles/volume] in Blood"
            }
          ],
          "text": "Sodium [Moles/volume] in Blood"
        },
        "valueQuantity": {
          "system": "http://unitsofmeasure.org",
          "value": 137.8,
          "unit": "mmol/L",
          "code": "mmol/L"
        },
        "referenceRange": [
          {
            "low": {
              "value": 135,
              "code": "mmol/L",
              "system": "http://unitsofmeasure.org"
            }
          },
          {
            "high": {
              "value": 145,
              "code": "mmol/L",
              "system": "http://unitsofmeasure.org"
            }
          }
        ],
        "text": {
          "status": "generated",
          "div": "<div xmlns=\"http://www.w3.org/1999/xhtml\"><table class=\"hl7__eu__lab__report\"><tr><th>Test</th><th>24-Oct-2019</th><th>Reference&#xA0;Range</th><th>Unit</th></tr><tr><td>Sodium [Moles/volume] in Blood</td><td>137.8</td><td>135 - 145</td><td></td><td>mmol/L</td></tr></table></div>"
        },
        "status": "final",
        "subject": {
          "reference": "urn:uuid:5710aabb-1941-4b4f-a868-b6a1a068df6e",
          "display": "Pelayo Casal"
        },
        "effectiveDateTime": "2019-10-24T05:38:59Z",
        "specimen": {
          "reference": "urn:uuid:6ca4ef19-600a-4ce2-a8fd-2339674dcfe4"
        }
      }
    },
    {
      "fullUrl": "urn:uuid:e2f118a3-028f-46e5-90b0-d06bd1a2150d",
      "resource": {
        "resourceType": "Observation",
        "id": "e2f118a3-028f-46e5-90b0-d06bd1a2150d",
        "meta": {
          "profile": [
            "http://hl7.eu/fhir/laboratory/StructureDefinition/Observation-resultslab-eu-lab"
          ]
        },
        "performer": [
          {
            "display": "The Central European Lab"
          }
        ],
        "category": [
          {
            "coding": [
              {
                "system": "http://terminology.hl7.org/CodeSystem/observation-category",
                "code": "laboratory"
              }
            ]
          }
        ],
        "code": {
          "coding": [
            {
              "code": "6298-4",
              "system": "http://loinc.org",
              "display": "Potassium [Moles/volume] in Blood"
            }
          ],
          "text": "Potassium [Moles/volume] in Blood"
        },
        "valueQuantity": {
          "system": "http://unitsofmeasure.org",
          "value": 5,
          "unit": "mmol/L",
          "code": "mmol/L"
        },
        "referenceRange": [
          {
            "low": {
              "value": 3.5,
              "code": "mmol/L",
              "system": "http://unitsofmeasure.org"
            }
          },
          {
            "high": {
              "value": 5.1,
              "code": "mmol/L",
              "system": "http://unitsofmeasure.org"
            }
          }
        ],
        "text": {
          "status": "generated",
          "div": "<div xmlns=\"http://www.w3.org/1999/xhtml\"><table class=\"hl7__eu__lab__report\"><tr><th>Test</th><th>24-Oct-2019</th><th>Reference&#xA0;Range</th><th>Unit</th></tr><tr><td>Potassium [Moles/volume] in Blood</td><td>5.0</td><td>3.5 - 5.1</td><td></td><td>mmol/L</td></tr></table></div>"
        },
        "status": "final",
        "subject": {
          "reference": "urn:uuid:5710aabb-1941-4b4f-a868-b6a1a068df6e",
          "display": "Pelayo Casal"
        },
        "effectiveDateTime": "2019-10-24T05:38:59Z",
        "specimen": {
          "reference": "urn:uuid:6ca4ef19-600a-4ce2-a8fd-2339674dcfe4"
        }
      }
    },
    {
      "fullUrl": "urn:uuid:1cadebd5-4992-4c61-bfef-5c80d291b725",
      "resource": {
        "resourceType": "Observation",
        "id": "1cadebd5-4992-4c61-bfef-5c80d291b725",
        "meta": {
          "profile": [
            "http://hl7.eu/fhir/laboratory/StructureDefinition/Observation-resultslab-eu-lab"
          ]
        },
        "performer": [
          {
            "display": "The Central European Lab"
          }
        ],
        "category": [
          {
            "coding": [
              {
                "system": "http://terminology.hl7.org/CodeSystem/observation-category",
                "code": "laboratory"
              }
            ]
          }
        ],
        "code": {
          "coding": [
            {
              "code": "2069-3",
              "system": "http://loinc.org",
              "display": "Chloride [Moles/volume] in Blood"
            }
          ],
          "text": "Chloride [Moles/volume] in Blood"
        },
        "valueQuantity": {
          "system": "http://unitsofmeasure.org",
          "value": 105.4,
          "unit": "mmol/L",
          "code": "mmol/L"
        },
        "referenceRange": [
          {
            "low": {
              "value": 98,
              "code": "mmol/L",
              "system": "http://unitsofmeasure.org"
            }
          },
          {
            "high": {
              "value": 108,
              "code": "mmol/L",
              "system": "http://unitsofmeasure.org"
            }
          }
        ],
        "text": {
          "status": "generated",
          "div": "<div xmlns=\"http://www.w3.org/1999/xhtml\"><table class=\"hl7__eu__lab__report\"><tr><th>Test</th><th>24-Oct-2019</th><th>Reference&#xA0;Range</th><th>Unit</th></tr><tr><td>Chloride [Moles/volume] in Blood</td><td>105.4</td><td>98 - 108</td><td></td><td>mmol/L</td></tr></table></div>"
        },
        "status": "final",
        "subject": {
          "reference": "urn:uuid:5710aabb-1941-4b4f-a868-b6a1a068df6e",
          "display": "Pelayo Casal"
        },
        "effectiveDateTime": "2019-10-24T05:38:59Z",
        "specimen": {
          "reference": "urn:uuid:6ca4ef19-600a-4ce2-a8fd-2339674dcfe4"
        }
      }
    },
    {
      "fullUrl": "urn:uuid:bee4a077-a10b-40d0-87e4-40f755a657e1",
      "resource": {
        "resourceType": "Observation",
        "id": "bee4a077-a10b-40d0-87e4-40f755a657e1",
        "meta": {
          "profile": [
            "http://hl7.eu/fhir/laboratory/StructureDefinition/Observation-resultslab-eu-lab"
          ]
        },
        "performer": [
          {
            "display": "The Central European Lab"
          }
        ],
        "category": [
          {
            "coding": [
              {
                "system": "http://terminology.hl7.org/CodeSystem/observation-category",
                "code": "laboratory"
              }
            ]
          }
        ],
        "code": {
          "coding": [
            {
              "code": "20565-8",
              "system": "http://loinc.org",
              "display": "Carbon dioxide, total [Moles/volume] in Blood"
            }
          ],
          "text": "Carbon dioxide, total [Moles/volume] in Blood"
        },
        "valueQuantity": {
          "system": "http://unitsofmeasure.org",
          "value": 22,
          "unit": "mmol/L",
          "code": "mmol/L"
        },
        "referenceRange": [
          {
            "low": {
              "value": 22,
              "code": "mmol/L",
              "system": "http://unitsofmeasure.org"
            }
          },
          {
            "high": {
              "value": 32,
              "code": "mmol/L",
              "system": "http://unitsofmeasure.org"
            }
          }
        ],
        "text": {
          "status": "generated",
          "div": "<div xmlns=\"http://www.w3.org/1999/xhtml\"><table class=\"hl7__eu__lab__report\"><tr><th>Test</th><th>24-Oct-2019</th><th>Reference&#xA0;Range</th><th>Unit</th></tr><tr><td>Carbon dioxide, total [Moles/volume] in Blood</td><td>22.0</td><td>22 - 32</td><td></td><td>mmol/L</td></tr></table></div>"
        },
        "status": "final",
        "subject": {
          "reference": "urn:uuid:5710aabb-1941-4b4f-a868-b6a1a068df6e",
          "display": "Pelayo Casal"
        },
        "effectiveDateTime": "2019-10-24T05:38:59Z",
        "specimen": {
          "reference": "urn:uuid:6ca4ef19-600a-4ce2-a8fd-2339674dcfe4"
        }
      }
    },
    {
      "fullUrl": "urn:uuid:cf2210e0-66c6-4d80-aed5-64f289387784",
      "resource": {
        "resourceType": "Device",
        "id": "cf2210e0-66c6-4d80-aed5-64f289387784",
        "deviceName": [
          {
            "name": "SYNDERAI Synthetic Generator",
            "type": "manufacturer-name"
          }
        ],
        "version": [
          {
            "value": "5.0"
          }
        ],
        "text": {
          "status": "generated",
          "div": "<div xmlns=\"http://www.w3.org/1999/xhtml\">SYNDERAI Synthetic Generator v5.0</div>"
        },
        "status": "active\"",
        "distinctIdentifier": "synderai-generator-50",
        "manufacturer": "SYNDERAI Project"
      }
    },
    {
      "fullUrl": "urn:uuid:4f4d486f-b530-4274-b91a-9f5ec36f8b85",
      "resource": {
        "resourceType": "Provenance",
        "id": "4f4d486f-b530-4274-b91a-9f5ec36f8b85",
        "target": [
          {
            "reference": "Patient/5710aabb-1941-4b4f-a868-b6a1a068df6e"
          },
          {
            "reference": "Bundle/db69974d-6f58-4a15-9480-169b1d0ad469"
          },
          {
            "reference": "Composition/7d951cc1-a602-4eee-8b9e-ad8f14379350"
          },
          {
            "reference": "PractitionerRole/5a9936c4-fd81-47e7-b0a7-ea37c8af10e8"
          },
          {
            "reference": "Practitioner/37108dd0-1623-4e65-97c3-02266afc9941"
          },
          {
            "reference": "PractitionerRole/6b6aeb67-4b80-49b7-9390-a5af8ec9f8d9"
          },
          {
            "reference": "Organization/dae9fbcf-63b9-4b3b-8d18-ace76199888e"
          }
        ],
        "activity": {
          "text": "Synthetic Example Data Generation"
        },
        "policy": [
          "https://synderai.net/synderai-synthetic-data-policy"
        ],
        "agent": [
          {
            "type": {
              "text": "author"
            },
            "who": {
              "reference": "Device/cf2210e0-66c6-4d80-aed5-64f289387784"
            }
          }
        ],
        "reason": [
          {
            "text": "Interoperability Testing and Training (non-clinical use)"
          }
        ],
        "text": {
          "status": "generated",
          "div": "<div xmlns=\"http://www.w3.org/1999/xhtml\">Provenance for SYNDERAI Synthetic Example Data Resource</div>"
        },
        "recorded": "2019-10-24T07:38:59Z"
      }
    },
    {
      "fullUrl": "urn:uuid:5a9936c4-fd81-47e7-b0a7-ea37c8af10e8",
      "resource": {
        "resourceType": "PractitionerRole",
        "id": "5a9936c4-fd81-47e7-b0a7-ea37c8af10e8",
        "meta": {
          "profile": [
            "http://hl7.eu/fhir/base/StructureDefinition/practitionerRole-eu"
          ]
        },
        "text": {
          "status": "generated",
          "div": "<div xmlns=\"http://www.w3.org/1999/xhtml\">Laboratory Role Id: 5a9936c4-fd81-47e7-b0a7-ea37c8af10e8</div>"
        },
        "practitioner": {
          "reference": "urn:uuid:37108dd0-1623-4e65-97c3-02266afc9941"
        }
      }
    },
    {
      "fullUrl": "urn:uuid:37108dd0-1623-4e65-97c3-02266afc9941",
      "resource": {
        "resourceType": "Practitioner",
        "id": "37108dd0-1623-4e65-97c3-02266afc9941",
        "meta": {
          "profile": [
            "http://hl7.eu/fhir/base/StructureDefinition/practitioner-eu"
          ]
        },
        "identifier": [
          {
            "assigner": {
              "display": "HL7 Europe"
            },
            "system": "urn:oid:2.16.840.1.113883.2.51.999",
            "value": "2bbc675b-06ae-4594-87d8-741ae1fd4846"
          }
        ],
        "name": [
          {
            "prefix": [
              "dr"
            ],
            "given": [
              "Ex"
            ],
            "family": "Ample"
          }
        ],
        "address": [
          {
            "line": [
              "Laboratoire Central Européenne",
              "Boulevard du Jardin Botanique 32"
            ],
            "postalCode": "1000",
            "city": "Brussels",
            "country": "Belgium"
          }
        ],
        "text": {
          "status": "generated",
          "div": "<div xmlns=\"http://www.w3.org/1999/xhtml\">Laboratory: Laboratoire Central Européenne, 1000 Brussels, Belgium</div>"
        }
      }
    }
  ],
  "type": "document",
  "timestamp": "2019-10-24T07:38:59Z"
}
