{
  "resourceType": "Bundle",
  "id": "bf38eb17-3810-4dbd-a713-40c9e0b7bd83",
  "meta": {
    "profile": [
      "http://hl7.eu/fhir/laboratory/StructureDefinition/Bundle-eu-lab"
    ]
  },
  "identifier": {
    "assigner": {
      "display": "HL7 Europe"
    },
    "system": "urn:oid:2.16.840.1.113883.2.51.999",
    "value": "de3e4969-2f06-4c92-bdfe-f9a6bb2d575e"
  },
  "entry": [
    {
      "fullUrl": "urn:uuid:b4cd90e2-6275-4abf-bdde-ede85a799493",
      "resource": {
        "resourceType": "Composition",
        "id": "b4cd90e2-6275-4abf-bdde-ede85a799493",
        "meta": {
          "profile": [
            "http://hl7.eu/fhir/laboratory/StructureDefinition/Composition-eu-lab"
          ]
        },
        "identifier": {
          "assigner": {
            "display": "HL7 Europe"
          },
          "system": "urn:oid:2.16.840.1.113883.2.51.999",
          "value": "4b7ff56c-7022-4da9-87d4-764f4789d835"
        },
        "author": [
          {
            "reference": "urn:uuid:9d95be2b-f128-4efa-981b-2da2a70b1c14"
          }
        ],
        "category": [
          {
            "coding": [
              {
                "code": "26436-6",
                "system": "http://loinc.org",
                "display": "Laboratory studies (set)"
              }
            ]
          }
        ],
        "type": {
          "coding": [
            {
              "code": "11502-2",
              "system": "http://loinc.org",
              "display": "Laboratory report"
            }
          ],
          "text": "Laboratory Report"
        },
        "section": [
          {
            "code": {
              "coding": [
                {
                  "code": "26436-6",
                  "system": "http://loinc.org",
                  "display": "Laboratory studies (set)"
                }
              ],
              "text": "Laboratory studies"
            },
            "section": [
              {
                "code": {
                  "coding": [
                    {
                      "code": "$18719-5",
                      "system": "http://loinc.org",
                      "display": "Chemistry studies (set)"
                    }
                  ],
                  "text": "Chemistry"
                },
                "entry": [
                  {
                    "reference": "urn:uuid:22c83eaa-8b85-4b55-a9b4-f090046bf5ed"
                  },
                  {
                    "reference": "urn:uuid:19e5adab-4b65-4f0d-b64e-b5eb5da297ed"
                  },
                  {
                    "reference": "urn:uuid:406848dd-7be0-4b44-8464-8b24dd77540e"
                  },
                  {
                    "reference": "urn:uuid:8d571b9c-c55f-4df5-a1ce-ae323772797b"
                  },
                  {
                    "reference": "urn:uuid:719ce8c6-ebe0-495f-bce6-fa0b271a0871"
                  },
                  {
                    "reference": "urn:uuid:0928ab2a-7fcc-4613-967e-7747db37e340"
                  },
                  {
                    "reference": "urn:uuid:ad29237d-5196-4e50-9ccc-b04210279b5d"
                  },
                  {
                    "reference": "urn:uuid:1cce799d-fe82-43d9-bf73-11e8a194800e"
                  },
                  {
                    "reference": "urn:uuid:5ba5ec34-8e45-464d-953b-74f95ed35fae"
                  },
                  {
                    "reference": "urn:uuid:ec431a01-a452-4794-86e1-26eb6a68ce35"
                  },
                  {
                    "reference": "urn:uuid:ebc33873-c268-4587-ab03-956896c88de9"
                  },
                  {
                    "reference": "urn:uuid:f401bae6-219d-46d2-b0e7-8daf433df9a2"
                  },
                  {
                    "reference": "urn:uuid:030d31c9-d41b-41d2-b690-1378491aeeb0"
                  },
                  {
                    "reference": "urn:uuid:0f3d5cf4-ba41-4992-be54-cd33c917557f"
                  },
                  {
                    "reference": "urn:uuid:536d1ff3-e752-4f08-80f2-d200c1412d3c"
                  },
                  {
                    "reference": "urn:uuid:a24a037f-5fbc-424c-b16f-de29dd713a53"
                  },
                  {
                    "reference": "urn:uuid:f831000b-3aab-4465-82ef-a3e7baf37d03"
                  },
                  {
                    "reference": "urn:uuid:11e2419c-b128-45e7-afb8-3b12bd29493d"
                  }
                ],
                "text": {
                  "status": "generated",
                  "div": "<div xmlns=\"http://www.w3.org/1999/xhtml\"><h3>Chemistry</h3><table class=\"hl7__eu__lab__report\"><thead><tr><th>Test</th><th>22-SEP-2017</th><th>Reference&#xA0;Range</th><th>Unit</th></tr></thead><tbody><tr><td>Glucose [Mass/volume] in Serum or Plasma</td><td>81.4</td><td>70 - 140</td><td>mg/dL</td></tr><tr><td>Urea nitrogen [Mass/volume] in Serum or Plasma</td><td>7.8</td><td>7 - 20</td><td>mg/dL</td></tr><tr><td>Creatinine [Mass/volume] in Serum or Plasma</td><td><strong>2.0 H</strong></td><td>0.9 - 1.3</td><td>mg/dL</td></tr><tr><td>Calcium [Mass/volume] in Serum or Plasma</td><td>10.1</td><td>8.5 - 10.5</td><td>mg/dL</td></tr><tr><td>Sodium [Moles/volume] in Serum or Plasma</td><td>136.9</td><td>135 - 145</td><td>mmol/L</td></tr><tr><td>Potassium [Moles/volume] in Serum or Plasma</td><td>4.5</td><td>3.5 - 5.3</td><td>mmol/L</td></tr><tr><td>Chloride [Moles/volume] in Serum or Plasma</td><td>103.9</td><td>98 - 107</td><td>mmol/L</td></tr><tr><td>Carbon dioxide, total [Moles/volume] in Serum or Plasma</td><td><strong>20.0 L</strong></td><td>22 - 33</td><td>mmol/L</td></tr><tr><td>Ketones [Presence] in Urine by Test strip</td><td>Urine ketone test = +</td><td></td><td></td></tr><tr><td>Hemoglobin A1c/Hemoglobin.total in Blood</td><td><strong>2.8 L</strong></td><td>4.3 - 6</td><td>%</td></tr><tr><td>Glucose [Mass/volume] in Blood</td><td>81.4</td><td>70 - 140</td><td>mg/dL</td></tr><tr><td>Urea nitrogen [Mass/volume] in Blood</td><td>7.8</td><td>7 - 20</td><td>mg/dL</td></tr><tr><td>Creatinine [Mass/volume] in Blood</td><td><strong>2.1 H</strong></td><td>0.9 - 1.3</td><td>mg/dL</td></tr><tr><td>Calcium [Mass/volume] in Blood</td><td>10.1</td><td>8.5 - 10.5</td><td>mg/dL</td></tr><tr><td>Sodium [Moles/volume] in Blood</td><td>136.9</td><td>135 - 145</td><td>mmol/L</td></tr><tr><td>Potassium [Moles/volume] in Blood</td><td>4.5</td><td>3.5 - 5.1</td><td>mmol/L</td></tr><tr><td>Chloride [Moles/volume] in Blood</td><td>103.9</td><td>98 - 108</td><td>mmol/L</td></tr><tr><td>Carbon dioxide, total [Moles/volume] in Blood</td><td><strong>20.0 L</strong></td><td>22 - 29</td><td>mmol/L</td></tr></tbody></table></div>"
                },
                "title": "Chemistry"
              },
              {
                "code": {
                  "coding": [
                    {
                      "code": "$18729-4",
                      "system": "http://loinc.org",
                      "display": "Urinalysis studies (set)"
                    }
                  ],
                  "text": "Urinalysis"
                },
                "entry": [
                  {
                    "reference": "urn:uuid:50bc665f-d1d0-446b-8257-b975495b19b1"
                  },
                  {
                    "reference": "urn:uuid:1305c0c5-0a1e-418c-b939-319fa6ec4311"
                  },
                  {
                    "reference": "urn:uuid:2f31e2f0-5e08-4ae4-b9dc-09b566eed96c"
                  },
                  {
                    "reference": "urn:uuid:b8d05e1f-ccff-453c-86b9-5ea6db803a1b"
                  },
                  {
                    "reference": "urn:uuid:0b3e6d7d-6e74-4c8a-a583-d7d16413497c"
                  },
                  {
                    "reference": "urn:uuid:8249aa16-c8bb-418a-aeb1-42341a62bc5f"
                  },
                  {
                    "reference": "urn:uuid:06d2b05c-a799-4566-8d13-ddb6e5bff910"
                  },
                  {
                    "reference": "urn:uuid:ed16f024-2910-4bb3-873b-85a81f25af52"
                  },
                  {
                    "reference": "urn:uuid:baf1ef0a-4048-4693-b0b5-95d8b8876569"
                  },
                  {
                    "reference": "urn:uuid:4ccf9eb5-31ab-4b18-8364-71eecd85b891"
                  },
                  {
                    "reference": "urn:uuid:7356fb25-87ee-4787-9d4f-a815c37e6611"
                  },
                  {
                    "reference": "urn:uuid:9fc079e2-a71e-48e4-81e1-1096ea09c7ec"
                  }
                ],
                "text": {
                  "status": "generated",
                  "div": "<div xmlns=\"http://www.w3.org/1999/xhtml\"><h3>Urinalysis</h3><table class=\"hl7__eu__lab__report\"><thead><tr><th>Test</th><th>22-SEP-2017</th><th>Reference&#xA0;Range</th><th>Unit</th></tr></thead><tbody><tr><td>Glucose [Mass/volume] in Urine by Test strip</td><td><strong>1.4 H</strong></td><td>0 - 0.8</td><td>mg/dL</td></tr><tr><td>Glucose [Presence] in Urine by Test strip</td><td>++</td><td></td><td></td></tr><tr><td>Bilirubin.total [Mass/volume] in Urine by Test strip</td><td>0.6</td><td>0 - 1.9</td><td>mg/dL</td></tr><tr><td>Bilirubin.total [Presence] in Urine by Test strip</td><td>Finding of bilirubin in urine</td><td></td><td></td></tr><tr><td>Ketones [Mass/volume] in Urine by Test strip</td><td>0.8</td><td>0 - 3</td><td>mg/dL</td></tr><tr><td>Specific gravity of Urine by Test strip</td><td><strong>1.0 L</strong></td><td>1.01 - 1.03</td><td>{nominal}</td></tr><tr><td>pH of Urine by Test strip</td><td>5.9</td><td>4.5 - 7.5</td><td>pH</td></tr><tr><td>Protein [Mass/volume] in Urine by Test strip</td><td><strong>201.9 H</strong></td><td>0 - 149</td><td>mg/dL</td></tr><tr><td>Protein [Presence] in Urine by Test strip</td><td>Urine protein test = ++</td><td></td><td></td></tr><tr><td>Nitrite [Presence] in Urine by Test strip</td><td>Urine nitrite negative</td><td></td><td></td></tr><tr><td>Hemoglobin [Presence] in Urine by Test strip</td><td>Urine blood test = negative</td><td></td><td></td></tr><tr><td>Leukocyte esterase [Presence] in Urine by Test strip</td><td>Urine leukocyte test negative</td><td></td><td></td></tr></tbody></table></div>"
                },
                "title": "Urinalysis"
              },
              {
                "code": {
                  "coding": [
                    {
                      "code": "$LP7846-1",
                      "system": "http://loinc.org",
                      "display": "Specimen information"
                    }
                  ],
                  "text": "Specimen information"
                },
                "entry": [
                  {
                    "reference": "urn:uuid:ebfae0a2-d841-4234-93d2-82bc2246a041"
                  },
                  {
                    "reference": "urn:uuid:ba3fec14-1ecb-47cb-b0e5-2d466f88e2a3"
                  },
                  {
                    "reference": "urn:uuid:43da680e-3c5c-490d-b1df-c64a979a1336"
                  },
                  {
                    "reference": "urn:uuid:a56de4be-508d-419d-9fad-51f352e943ec"
                  }
                ],
                "text": {
                  "status": "generated",
                  "div": "<div xmlns=\"http://www.w3.org/1999/xhtml\"><h3>Specimen information</h3><table class=\"hl7__eu__lab__report\"><thead><tr><th>Test</th><th>22-SEP-2017</th><th>Specimen</th><th></th></tr></thead><tbody><tr><td>Appearance of Urine</td><td>Cloudy urine</td><td>Urine</td><td></td></tr><tr><td>Odor of Urine</td><td>Urine smell ammoniacal</td><td>Urine</td><td></td></tr><tr><td>Clarity of Urine</td><td>Translucent</td><td>Urine</td><td></td></tr><tr><td>Color of Urine</td><td>Brown color</td><td>Urine</td><td></td></tr></tbody></table></div>"
                },
                "title": "Specimen information"
              }
            ],
            "title": "Laboratory Report"
          },
          {
            "text": {
              "status": "generated",
              "div": "<div xmlns=\"http://www.w3.org/1999/xhtml\"><h3>Annotation</h3><table class=\"hl7__eu__lab__report\"><tr><th>Conclusion and Recommendations based on this report and previous findings known to us</th></tr><tr><td>The patient shows elevated creatinine, suggesting impaired renal function, and low total CO₂, indicating possible metabolic acidosis. Urinalysis reveals proteinuria, glucosuria, low specific gravity, and abnormal appearance (cloudy, brown, ammoniacal), which may indicate renal tubular dysfunction or possible urinary tract pathology. HbA1c is low, not consistent with diabetes. Recommend further evaluation of renal function and possible nephrology referral.</td></tr></table></div>"
            },
            "code": {
              "coding": [
                {
                  "system": "http://loinc.org",
                  "code": "48767-8",
                  "display": "Annotation comment"
                }
              ]
            },
            "title": "Annotation comment"
          }
        ],
        "status": "final",
        "subject": {
          "reference": "urn:uuid:e9fcebf0-e4b3-4b69-a260-2a40b15934fb",
          "display": "Victor Lagarde"
        },
        "date": "2017-09-22T06:48:18Z",
        "title": "Laboratory Report",
        "confidentiality": "N"
      }
    },
    {
      "fullUrl": "urn:uuid:9271d63b-b4b1-456f-b281-c2289c48e05e",
      "resource": {
        "resourceType": "DiagnosticReport",
        "id": "9271d63b-b4b1-456f-b281-c2289c48e05e",
        "meta": {
          "profile": [
            "http://hl7.eu/fhir/laboratory/StructureDefinition/DiagnosticReport-eu-lab"
          ]
        },
        "identifier": [
          {
            "assigner": {
              "display": "HL7 Europe"
            },
            "system": "urn:oid:2.16.840.1.113883.2.51.999",
            "value": "11488ae4-6fbb-4b39-9a8f-b84b407ff13a"
          }
        ],
        "extension": [
          {
            "url": "http://hl7.org/fhir/5.0/StructureDefinition/extension-DiagnosticReport.composition",
            "valueReference": {
              "reference": "urn:uuid:4b7ff56c-7022-4da9-87d4-764f4789d835"
            }
          }
        ],
        "category": [
          {
            "coding": [
              {
                "code": "26436-6",
                "system": "http://loinc.org",
                "display": "Laboratory studies (set)"
              }
            ]
          }
        ],
        "specimen": [
          {
            "reference": "urn:uuid:85958b34-7545-4e6d-9cf0-059c9a10a994"
          },
          {
            "reference": "urn:uuid:1798d615-351b-4ce9-80b7-b397891ee659"
          },
          {
            "reference": "urn:uuid:36e67531-651d-4445-ae39-6dc03b76ef50"
          }
        ],
        "result": [
          {
            "reference": "urn:uuid:22c83eaa-8b85-4b55-a9b4-f090046bf5ed"
          },
          {
            "reference": "urn:uuid:19e5adab-4b65-4f0d-b64e-b5eb5da297ed"
          },
          {
            "reference": "urn:uuid:406848dd-7be0-4b44-8464-8b24dd77540e"
          },
          {
            "reference": "urn:uuid:8d571b9c-c55f-4df5-a1ce-ae323772797b"
          },
          {
            "reference": "urn:uuid:719ce8c6-ebe0-495f-bce6-fa0b271a0871"
          },
          {
            "reference": "urn:uuid:0928ab2a-7fcc-4613-967e-7747db37e340"
          },
          {
            "reference": "urn:uuid:ad29237d-5196-4e50-9ccc-b04210279b5d"
          },
          {
            "reference": "urn:uuid:1cce799d-fe82-43d9-bf73-11e8a194800e"
          },
          {
            "reference": "urn:uuid:ebfae0a2-d841-4234-93d2-82bc2246a041"
          },
          {
            "reference": "urn:uuid:ba3fec14-1ecb-47cb-b0e5-2d466f88e2a3"
          },
          {
            "reference": "urn:uuid:43da680e-3c5c-490d-b1df-c64a979a1336"
          },
          {
            "reference": "urn:uuid:a56de4be-508d-419d-9fad-51f352e943ec"
          },
          {
            "reference": "urn:uuid:50bc665f-d1d0-446b-8257-b975495b19b1"
          },
          {
            "reference": "urn:uuid:1305c0c5-0a1e-418c-b939-319fa6ec4311"
          },
          {
            "reference": "urn:uuid:2f31e2f0-5e08-4ae4-b9dc-09b566eed96c"
          },
          {
            "reference": "urn:uuid:b8d05e1f-ccff-453c-86b9-5ea6db803a1b"
          },
          {
            "reference": "urn:uuid:0b3e6d7d-6e74-4c8a-a583-d7d16413497c"
          },
          {
            "reference": "urn:uuid:5ba5ec34-8e45-464d-953b-74f95ed35fae"
          },
          {
            "reference": "urn:uuid:8249aa16-c8bb-418a-aeb1-42341a62bc5f"
          },
          {
            "reference": "urn:uuid:06d2b05c-a799-4566-8d13-ddb6e5bff910"
          },
          {
            "reference": "urn:uuid:ed16f024-2910-4bb3-873b-85a81f25af52"
          },
          {
            "reference": "urn:uuid:baf1ef0a-4048-4693-b0b5-95d8b8876569"
          },
          {
            "reference": "urn:uuid:4ccf9eb5-31ab-4b18-8364-71eecd85b891"
          },
          {
            "reference": "urn:uuid:7356fb25-87ee-4787-9d4f-a815c37e6611"
          },
          {
            "reference": "urn:uuid:9fc079e2-a71e-48e4-81e1-1096ea09c7ec"
          },
          {
            "reference": "urn:uuid:ec431a01-a452-4794-86e1-26eb6a68ce35"
          },
          {
            "reference": "urn:uuid:ebc33873-c268-4587-ab03-956896c88de9"
          },
          {
            "reference": "urn:uuid:f401bae6-219d-46d2-b0e7-8daf433df9a2"
          },
          {
            "reference": "urn:uuid:030d31c9-d41b-41d2-b690-1378491aeeb0"
          },
          {
            "reference": "urn:uuid:0f3d5cf4-ba41-4992-be54-cd33c917557f"
          },
          {
            "reference": "urn:uuid:536d1ff3-e752-4f08-80f2-d200c1412d3c"
          },
          {
            "reference": "urn:uuid:a24a037f-5fbc-424c-b16f-de29dd713a53"
          },
          {
            "reference": "urn:uuid:f831000b-3aab-4465-82ef-a3e7baf37d03"
          },
          {
            "reference": "urn:uuid:11e2419c-b128-45e7-afb8-3b12bd29493d"
          }
        ],
        "status": "registered",
        "code": {
          "coding": [
            {
              "code": "11502-2",
              "system": "http://loinc.org",
              "display": "Laboratory report"
            }
          ]
        },
        "subject": {
          "reference": "urn:uuid:e9fcebf0-e4b3-4b69-a260-2a40b15934fb",
          "display": "Victor Lagarde"
        }
      }
    },
    {
      "fullUrl": "urn:uuid:e9fcebf0-e4b3-4b69-a260-2a40b15934fb",
      "resource": {
        "resourceType": "Patient",
        "id": "e9fcebf0-e4b3-4b69-a260-2a40b15934fb",
        "meta": {
          "security": [
            {
              "system": "http://terminology.hl7.org/CodeSystem/v3-ActReason",
              "code": "HTEST"
            },
            {
              "system": "http://terminology.hl7.org/CodeSystem/v3-ActReason",
              "code": "TRAIN"
            }
          ],
          "tag": [
            {
              "system": "https://synderai.net/fhir/CodeSystem/tags",
              "code": "synthetic",
              "display": "SYNDERAI Synthetic data"
            }
          ],
          "profile": [
            "http://hl7.eu/fhir/base/StructureDefinition/patient-eu-core"
          ]
        },
        "identifier": [
          {
            "type": {
              "coding": [
                {
                  "code": "PT",
                  "system": "http://terminology.hl7.org/CodeSystem/v2-0203"
                }
              ]
            },
            "system": "http://ec.europa.eu/identifier/eci",
            "value": "9925-001801-9"
          },
          {
            "type": {
              "coding": [
                {
                  "code": "MR",
                  "system": "http://terminology.hl7.org/CodeSystem/v2-0203"
                }
              ]
            },
            "system": "http://local.setting.eu/identifier",
            "value": "22c2dfd0-ac57-8833-2532-848f180896a4"
          }
        ],
        "name": [
          {
            "family": "Lagarde"
          },
          {
            "given": [
              "Victor"
            ]
          },
          {
            "text": "Victor Lagarde"
          }
        ],
        "address": [
          {
            "line": [
              "avenue Robert"
            ],
            "use": "home",
            "type": "physical",
            "postalCode": "80300",
            "city": "Albert",
            "country": "France"
          }
        ],
        "telecom": [
          {
            "system": "phone",
            "value": "0177941801"
          }
        ],
        "extension": [
          {
            "url": "http://hl7.org/fhir/StructureDefinition/patient-nationality",
            "valueCodeableConcept": {
              "coding": [
                {
                  "code": "FR",
                  "system": "http://hl7.org/fhir/ValueSet/country"
                }
              ]
            }
          }
        ],
        "text": {
          "status": "generated",
          "div": "<div xmlns=\"http://www.w3.org/1999/xhtml\"><table class=\"hl7__ips\"><tr><td>Victor Lagarde</td><td>male</td><td>31-Aug-1939</td></tr></table></div>"
        },
        "gender": "male",
        "birthDate": "1939-08-31"
      }
    },
    {
      "fullUrl": "urn:uuid:9f6fd9e2-ec7c-44f5-99c0-9b4697e5c591",
      "resource": {
        "resourceType": "ServiceRequest",
        "id": "9f6fd9e2-ec7c-44f5-99c0-9b4697e5c591",
        "meta": {
          "profile": [
            "http://hl7.eu/fhir/laboratory/StructureDefinition/ServiceRequest-eu-lab"
          ]
        },
        "identifier": [
          {
            "system": "http://example.org",
            "value": "03471680-68e9-45c9-9ed4-735728f29bdd"
          }
        ],
        "specimen": [
          {
            "reference": "urn:uuid:85958b34-7545-4e6d-9cf0-059c9a10a994"
          },
          {
            "reference": "urn:uuid:1798d615-351b-4ce9-80b7-b397891ee659"
          },
          {
            "reference": "urn:uuid:36e67531-651d-4445-ae39-6dc03b76ef50"
          }
        ],
        "reasonCode": [
          {
            "coding": [
              {
                "code": "433144002",
                "system": "http://snomed.info/sct",
                "display": "Chronic kidney disease stage 3"
              }
            ]
          },
          {
            "coding": [
              {
                "code": "157141000119108",
                "system": "http://snomed.info/sct",
                "display": "Proteinuria due to type 2 diabetes mellitus"
              }
            ]
          },
          {
            "coding": [
              {
                "code": "431856006",
                "system": "http://snomed.info/sct",
                "display": "Chronic kidney disease stage 2"
              }
            ]
          },
          {
            "coding": [
              {
                "code": "90781000119102",
                "system": "http://snomed.info/sct",
                "display": "Microalbuminuria due to type 2 diabetes mellitus"
              }
            ]
          },
          {
            "coding": [
              {
                "code": "127013003",
                "system": "http://snomed.info/sct",
                "display": "Disorder of kidney due to diabetes mellitus"
              }
            ]
          },
          {
            "coding": [
              {
                "code": "431855005",
                "system": "http://snomed.info/sct",
                "display": "Chronic kidney disease stage 1"
              }
            ]
          },
          {
            "coding": [
              {
                "code": "55822004",
                "system": "http://snomed.info/sct",
                "display": "Hyperlipidemia"
              }
            ]
          },
          {
            "coding": [
              {
                "code": "59621000",
                "system": "http://snomed.info/sct",
                "display": "Essential hypertension"
              }
            ]
          },
          {
            "coding": [
              {
                "code": "237602007",
                "system": "http://snomed.info/sct",
                "display": "Metabolic syndrome X"
              }
            ]
          },
          {
            "coding": [
              {
                "code": "414545008",
                "system": "http://snomed.info/sct",
                "display": "Ischemic heart disease"
              }
            ]
          },
          {
            "coding": [
              {
                "code": "40055000",
                "system": "http://snomed.info/sct",
                "display": "Chronic sinusitis"
              }
            ]
          },
          {
            "coding": [
              {
                "code": "15777000",
                "system": "http://snomed.info/sct",
                "display": "Prediabetes"
              }
            ]
          },
          {
            "coding": [
              {
                "code": "271737000",
                "system": "http://snomed.info/sct",
                "display": "Anemia"
              }
            ]
          }
        ],
        "status": "active",
        "intent": "order",
        "code": {
          "coding": [
            {
              "code": "108252007",
              "system": "http://snomed.info/sct",
              "display": "Laboratory procedure"
            }
          ]
        },
        "subject": {
          "reference": "urn:uuid:e9fcebf0-e4b3-4b69-a260-2a40b15934fb",
          "display": "Victor Lagarde"
        },
        "requester": {
          "reference": "urn:uuid:e1a3d6c4-0840-4e1e-9334-b0edbc2c6f20"
        }
      }
    },
    {
      "fullUrl": "urn:uuid:e1a3d6c4-0840-4e1e-9334-b0edbc2c6f20",
      "resource": {
        "resourceType": "PractitionerRole",
        "id": "e1a3d6c4-0840-4e1e-9334-b0edbc2c6f20",
        "meta": {
          "profile": [
            "http://hl7.eu/fhir/base/StructureDefinition/practitionerRole-eu"
          ]
        },
        "text": {
          "status": "generated",
          "div": "<div xmlns=\"http://www.w3.org/1999/xhtml\">Provider Role Id: e1a3d6c4-0840-4e1e-9334-b0edbc2c6f20</div>"
        },
        "organization": {
          "reference": "urn:uuid:00624637-303a-4ea9-bfd8-7fc255a58f8a"
        }
      }
    },
    {
      "fullUrl": "urn:uuid:00624637-303a-4ea9-bfd8-7fc255a58f8a",
      "resource": {
        "resourceType": "Organization",
        "id": "00624637-303a-4ea9-bfd8-7fc255a58f8a",
        "meta": {
          "profile": [
            "http://hl7.eu/fhir/base/StructureDefinition/organization-eu"
          ]
        },
        "identifier": [
          {
            "assigner": {
              "display": "HL7 Europe"
            },
            "system": "urn:oid:2.16.840.1.113883.2.51.999",
            "value": "bc4f6afb-1905-4dac-bca8-a062d263368f"
          }
        ],
        "address": [
          {
            "city": "Auxerre",
            "postalCode": "89000",
            "country": "France"
          }
        ],
        "text": {
          "status": "generated",
          "div": "<div xmlns=\"http://www.w3.org/1999/xhtml\">Provider Organization: Thiriot Didier (Cardiologie)</div>"
        },
        "name": "Thiriot Didier (Cardiologie)"
      }
    },
    {
      "fullUrl": "urn:uuid:85958b34-7545-4e6d-9cf0-059c9a10a994",
      "resource": {
        "resourceType": "Specimen",
        "id": "85958b34-7545-4e6d-9cf0-059c9a10a994",
        "meta": {
          "profile": [
            "http://hl7.eu/fhir/laboratory/StructureDefinition/Specimen-eu-lab"
          ]
        },
        "collection": {
          "collectedDateTime": "2017-09-22"
        },
        "text": {
          "status": "generated",
          "div": "<div xmlns=\"http://www.w3.org/1999/xhtml\"><table class=\"hl7__eu__lab__report\"><tr><th>Specimen</th><th>Collection Date</th></tr><tr><td>Acellular blood (serum or plasma) specimen</td><td><span class=\"nb\">22-Sep-2017</span></td></tr></table></div>"
        },
        "type": {
          "coding": [
            {
              "code": "122592007",
              "system": "http://snomed.info/sct",
              "display": "Acellular blood (serum or plasma) specimen"
            }
          ]
        }
      }
    },
    {
      "fullUrl": "urn:uuid:1798d615-351b-4ce9-80b7-b397891ee659",
      "resource": {
        "resourceType": "Specimen",
        "id": "1798d615-351b-4ce9-80b7-b397891ee659",
        "meta": {
          "profile": [
            "http://hl7.eu/fhir/laboratory/StructureDefinition/Specimen-eu-lab"
          ]
        },
        "collection": {
          "collectedDateTime": "2017-09-22"
        },
        "text": {
          "status": "generated",
          "div": "<div xmlns=\"http://www.w3.org/1999/xhtml\"><table class=\"hl7__eu__lab__report\"><tr><th>Specimen</th><th>Collection Date</th></tr><tr><td>Urine specimen</td><td><span class=\"nb\">22-Sep-2017</span></td></tr></table></div>"
        },
        "type": {
          "coding": [
            {
              "code": "122575003",
              "system": "http://snomed.info/sct",
              "display": "Urine specimen"
            }
          ]
        }
      }
    },
    {
      "fullUrl": "urn:uuid:36e67531-651d-4445-ae39-6dc03b76ef50",
      "resource": {
        "resourceType": "Specimen",
        "id": "36e67531-651d-4445-ae39-6dc03b76ef50",
        "meta": {
          "profile": [
            "http://hl7.eu/fhir/laboratory/StructureDefinition/Specimen-eu-lab"
          ]
        },
        "collection": {
          "collectedDateTime": "2017-09-22"
        },
        "text": {
          "status": "generated",
          "div": "<div xmlns=\"http://www.w3.org/1999/xhtml\"><table class=\"hl7__eu__lab__report\"><tr><th>Specimen</th><th>Collection Date</th></tr><tr><td>Whole blood specimen (specimen)</td><td><span class=\"nb\">22-Sep-2017</span></td></tr></table></div>"
        },
        "type": {
          "coding": [
            {
              "code": "258580003",
              "system": "http://snomed.info/sct",
              "display": "Whole blood specimen (specimen)"
            }
          ]
        }
      }
    },
    {
      "fullUrl": "urn:uuid:22c83eaa-8b85-4b55-a9b4-f090046bf5ed",
      "resource": {
        "resourceType": "Observation",
        "id": "22c83eaa-8b85-4b55-a9b4-f090046bf5ed",
        "meta": {
          "profile": [
            "http://hl7.eu/fhir/laboratory/StructureDefinition/Observation-resultslab-eu-lab"
          ]
        },
        "performer": [
          {
            "display": "The Central European Lab"
          }
        ],
        "category": [
          {
            "coding": [
              {
                "system": "http://terminology.hl7.org/CodeSystem/observation-category",
                "code": "laboratory"
              }
            ]
          }
        ],
        "code": {
          "coding": [
            {
              "code": "2345-7",
              "system": "http://loinc.org",
              "display": "Glucose [Mass/volume] in Serum or Plasma"
            }
          ],
          "text": "Glucose [Mass/volume] in Serum or Plasma"
        },
        "valueQuantity": {
          "system": "http://unitsofmeasure.org",
          "value": 81.4,
          "unit": "mg/dL",
          "code": "mg/dL"
        },
        "referenceRange": [
          {
            "low": {
              "value": 70,
              "code": "mg/dL",
              "system": "http://unitsofmeasure.org"
            }
          },
          {
            "high": {
              "value": 140,
              "code": "mg/dL",
              "system": "http://unitsofmeasure.org"
            }
          }
        ],
        "text": {
          "status": "generated",
          "div": "<div xmlns=\"http://www.w3.org/1999/xhtml\"><table class=\"hl7__eu__lab__report\"><tr><th>Test</th><th>22-Sep-2017</th><th>Reference&#xA0;Range</th><th>Unit</th></tr><tr><td>Glucose [Mass/volume] in Serum or Plasma</td><td>81.4</td><td>70 - 140</td><td></td><td>mg/dL</td></tr></table></div>"
        },
        "status": "final",
        "subject": {
          "reference": "urn:uuid:e9fcebf0-e4b3-4b69-a260-2a40b15934fb",
          "display": "Victor Lagarde"
        },
        "effectiveDateTime": "2017-09-22T04:48:18Z",
        "specimen": {
          "reference": "urn:uuid:85958b34-7545-4e6d-9cf0-059c9a10a994"
        }
      }
    },
    {
      "fullUrl": "urn:uuid:19e5adab-4b65-4f0d-b64e-b5eb5da297ed",
      "resource": {
        "resourceType": "Observation",
        "id": "19e5adab-4b65-4f0d-b64e-b5eb5da297ed",
        "meta": {
          "profile": [
            "http://hl7.eu/fhir/laboratory/StructureDefinition/Observation-resultslab-eu-lab"
          ]
        },
        "performer": [
          {
            "display": "The Central European Lab"
          }
        ],
        "category": [
          {
            "coding": [
              {
                "system": "http://terminology.hl7.org/CodeSystem/observation-category",
                "code": "laboratory"
              }
            ]
          }
        ],
        "code": {
          "coding": [
            {
              "code": "3094-0",
              "system": "http://loinc.org",
              "display": "Urea nitrogen [Mass/volume] in Serum or Plasma"
            }
          ],
          "text": "Urea nitrogen [Mass/volume] in Serum or Plasma"
        },
        "valueQuantity": {
          "system": "http://unitsofmeasure.org",
          "value": 7.8,
          "unit": "mg/dL",
          "code": "mg/dL"
        },
        "referenceRange": [
          {
            "low": {
              "value": 7,
              "code": "mg/dL",
              "system": "http://unitsofmeasure.org"
            }
          },
          {
            "high": {
              "value": 20,
              "code": "mg/dL",
              "system": "http://unitsofmeasure.org"
            }
          }
        ],
        "text": {
          "status": "generated",
          "div": "<div xmlns=\"http://www.w3.org/1999/xhtml\"><table class=\"hl7__eu__lab__report\"><tr><th>Test</th><th>22-Sep-2017</th><th>Reference&#xA0;Range</th><th>Unit</th></tr><tr><td>Urea nitrogen [Mass/volume] in Serum or Plasma</td><td>7.8</td><td>7 - 20</td><td></td><td>mg/dL</td></tr></table></div>"
        },
        "status": "final",
        "subject": {
          "reference": "urn:uuid:e9fcebf0-e4b3-4b69-a260-2a40b15934fb",
          "display": "Victor Lagarde"
        },
        "effectiveDateTime": "2017-09-22T04:48:18Z",
        "specimen": {
          "reference": "urn:uuid:85958b34-7545-4e6d-9cf0-059c9a10a994"
        }
      }
    },
    {
      "fullUrl": "urn:uuid:406848dd-7be0-4b44-8464-8b24dd77540e",
      "resource": {
        "resourceType": "Observation",
        "id": "406848dd-7be0-4b44-8464-8b24dd77540e",
        "meta": {
          "profile": [
            "http://hl7.eu/fhir/laboratory/StructureDefinition/Observation-resultslab-eu-lab"
          ]
        },
        "performer": [
          {
            "display": "The Central European Lab"
          }
        ],
        "category": [
          {
            "coding": [
              {
                "system": "http://terminology.hl7.org/CodeSystem/observation-category",
                "code": "laboratory"
              }
            ]
          }
        ],
        "code": {
          "coding": [
            {
              "code": "2160-0",
              "system": "http://loinc.org",
              "display": "Creatinine [Mass/volume] in Serum or Plasma"
            }
          ],
          "text": "Creatinine [Mass/volume] in Serum or Plasma"
        },
        "valueQuantity": {
          "system": "http://unitsofmeasure.org",
          "value": 2,
          "unit": "mg/dL",
          "code": "mg/dL"
        },
        "referenceRange": [
          {
            "low": {
              "value": 0.9,
              "code": "mg/dL",
              "system": "http://unitsofmeasure.org"
            }
          },
          {
            "high": {
              "value": 1.3,
              "code": "mg/dL",
              "system": "http://unitsofmeasure.org"
            }
          }
        ],
        "interpretation": [
          {
            "coding": [
              {
                "code": "H",
                "system": "http://terminology.hl7.org/CodeSystem/v3-ObservationInterpretation",
                "display": "High"
              }
            ]
          }
        ],
        "text": {
          "status": "generated",
          "div": "<div xmlns=\"http://www.w3.org/1999/xhtml\"><table class=\"hl7__eu__lab__report\"><tr><th>Test</th><th>22-Sep-2017</th><th>Reference&#xA0;Range</th><th>Unit</th></tr><tr><td>Creatinine [Mass/volume] in Serum or Plasma</td><td>2.0</td><td>0.9 - 1.3</td><td>H</td><td>mg/dL</td></tr></table></div>"
        },
        "status": "final",
        "subject": {
          "reference": "urn:uuid:e9fcebf0-e4b3-4b69-a260-2a40b15934fb",
          "display": "Victor Lagarde"
        },
        "effectiveDateTime": "2017-09-22T04:48:18Z",
        "specimen": {
          "reference": "urn:uuid:85958b34-7545-4e6d-9cf0-059c9a10a994"
        }
      }
    },
    {
      "fullUrl": "urn:uuid:8d571b9c-c55f-4df5-a1ce-ae323772797b",
      "resource": {
        "resourceType": "Observation",
        "id": "8d571b9c-c55f-4df5-a1ce-ae323772797b",
        "meta": {
          "profile": [
            "http://hl7.eu/fhir/laboratory/StructureDefinition/Observation-resultslab-eu-lab"
          ]
        },
        "performer": [
          {
            "display": "The Central European Lab"
          }
        ],
        "category": [
          {
            "coding": [
              {
                "system": "http://terminology.hl7.org/CodeSystem/observation-category",
                "code": "laboratory"
              }
            ]
          }
        ],
        "code": {
          "coding": [
            {
              "code": "17861-6",
              "system": "http://loinc.org",
              "display": "Calcium [Mass/volume] in Serum or Plasma"
            }
          ],
          "text": "Calcium [Mass/volume] in Serum or Plasma"
        },
        "valueQuantity": {
          "system": "http://unitsofmeasure.org",
          "value": 10.1,
          "unit": "mg/dL",
          "code": "mg/dL"
        },
        "referenceRange": [
          {
            "low": {
              "value": 8.5,
              "code": "mg/dL",
              "system": "http://unitsofmeasure.org"
            }
          },
          {
            "high": {
              "value": 10.5,
              "code": "mg/dL",
              "system": "http://unitsofmeasure.org"
            }
          }
        ],
        "text": {
          "status": "generated",
          "div": "<div xmlns=\"http://www.w3.org/1999/xhtml\"><table class=\"hl7__eu__lab__report\"><tr><th>Test</th><th>22-Sep-2017</th><th>Reference&#xA0;Range</th><th>Unit</th></tr><tr><td>Calcium [Mass/volume] in Serum or Plasma</td><td>10.1</td><td>8.5 - 10.5</td><td></td><td>mg/dL</td></tr></table></div>"
        },
        "status": "final",
        "subject": {
          "reference": "urn:uuid:e9fcebf0-e4b3-4b69-a260-2a40b15934fb",
          "display": "Victor Lagarde"
        },
        "effectiveDateTime": "2017-09-22T04:48:18Z",
        "specimen": {
          "reference": "urn:uuid:85958b34-7545-4e6d-9cf0-059c9a10a994"
        }
      }
    },
    {
      "fullUrl": "urn:uuid:719ce8c6-ebe0-495f-bce6-fa0b271a0871",
      "resource": {
        "resourceType": "Observation",
        "id": "719ce8c6-ebe0-495f-bce6-fa0b271a0871",
        "meta": {
          "profile": [
            "http://hl7.eu/fhir/laboratory/StructureDefinition/Observation-resultslab-eu-lab"
          ]
        },
        "performer": [
          {
            "display": "The Central European Lab"
          }
        ],
        "category": [
          {
            "coding": [
              {
                "system": "http://terminology.hl7.org/CodeSystem/observation-category",
                "code": "laboratory"
              }
            ]
          }
        ],
        "code": {
          "coding": [
            {
              "code": "2951-2",
              "system": "http://loinc.org",
              "display": "Sodium [Moles/volume] in Serum or Plasma"
            }
          ],
          "text": "Sodium [Moles/volume] in Serum or Plasma"
        },
        "valueQuantity": {
          "system": "http://unitsofmeasure.org",
          "value": 136.9,
          "unit": "mmol/L",
          "code": "mmol/L"
        },
        "referenceRange": [
          {
            "low": {
              "value": 135,
              "code": "mmol/L",
              "system": "http://unitsofmeasure.org"
            }
          },
          {
            "high": {
              "value": 145,
              "code": "mmol/L",
              "system": "http://unitsofmeasure.org"
            }
          }
        ],
        "text": {
          "status": "generated",
          "div": "<div xmlns=\"http://www.w3.org/1999/xhtml\"><table class=\"hl7__eu__lab__report\"><tr><th>Test</th><th>22-Sep-2017</th><th>Reference&#xA0;Range</th><th>Unit</th></tr><tr><td>Sodium [Moles/volume] in Serum or Plasma</td><td>136.9</td><td>135 - 145</td><td></td><td>mmol/L</td></tr></table></div>"
        },
        "status": "final",
        "subject": {
          "reference": "urn:uuid:e9fcebf0-e4b3-4b69-a260-2a40b15934fb",
          "display": "Victor Lagarde"
        },
        "effectiveDateTime": "2017-09-22T04:48:18Z",
        "specimen": {
          "reference": "urn:uuid:85958b34-7545-4e6d-9cf0-059c9a10a994"
        }
      }
    },
    {
      "fullUrl": "urn:uuid:0928ab2a-7fcc-4613-967e-7747db37e340",
      "resource": {
        "resourceType": "Observation",
        "id": "0928ab2a-7fcc-4613-967e-7747db37e340",
        "meta": {
          "profile": [
            "http://hl7.eu/fhir/laboratory/StructureDefinition/Observation-resultslab-eu-lab"
          ]
        },
        "performer": [
          {
            "display": "The Central European Lab"
          }
        ],
        "category": [
          {
            "coding": [
              {
                "system": "http://terminology.hl7.org/CodeSystem/observation-category",
                "code": "laboratory"
              }
            ]
          }
        ],
        "code": {
          "coding": [
            {
              "code": "2823-3",
              "system": "http://loinc.org",
              "display": "Potassium [Moles/volume] in Serum or Plasma"
            }
          ],
          "text": "Potassium [Moles/volume] in Serum or Plasma"
        },
        "valueQuantity": {
          "system": "http://unitsofmeasure.org",
          "value": 4.5,
          "unit": "mmol/L",
          "code": "mmol/L"
        },
        "referenceRange": [
          {
            "low": {
              "value": 3.5,
              "code": "mmol/L",
              "system": "http://unitsofmeasure.org"
            }
          },
          {
            "high": {
              "value": 5.3,
              "code": "mmol/L",
              "system": "http://unitsofmeasure.org"
            }
          }
        ],
        "text": {
          "status": "generated",
          "div": "<div xmlns=\"http://www.w3.org/1999/xhtml\"><table class=\"hl7__eu__lab__report\"><tr><th>Test</th><th>22-Sep-2017</th><th>Reference&#xA0;Range</th><th>Unit</th></tr><tr><td>Potassium [Moles/volume] in Serum or Plasma</td><td>4.5</td><td>3.5 - 5.3</td><td></td><td>mmol/L</td></tr></table></div>"
        },
        "status": "final",
        "subject": {
          "reference": "urn:uuid:e9fcebf0-e4b3-4b69-a260-2a40b15934fb",
          "display": "Victor Lagarde"
        },
        "effectiveDateTime": "2017-09-22T04:48:18Z",
        "specimen": {
          "reference": "urn:uuid:85958b34-7545-4e6d-9cf0-059c9a10a994"
        }
      }
    },
    {
      "fullUrl": "urn:uuid:ad29237d-5196-4e50-9ccc-b04210279b5d",
      "resource": {
        "resourceType": "Observation",
        "id": "ad29237d-5196-4e50-9ccc-b04210279b5d",
        "meta": {
          "profile": [
            "http://hl7.eu/fhir/laboratory/StructureDefinition/Observation-resultslab-eu-lab"
          ]
        },
        "performer": [
          {
            "display": "The Central European Lab"
          }
        ],
        "category": [
          {
            "coding": [
              {
                "system": "http://terminology.hl7.org/CodeSystem/observation-category",
                "code": "laboratory"
              }
            ]
          }
        ],
        "code": {
          "coding": [
            {
              "code": "2075-0",
              "system": "http://loinc.org",
              "display": "Chloride [Moles/volume] in Serum or Plasma"
            }
          ],
          "text": "Chloride [Moles/volume] in Serum or Plasma"
        },
        "valueQuantity": {
          "system": "http://unitsofmeasure.org",
          "value": 103.9,
          "unit": "mmol/L",
          "code": "mmol/L"
        },
        "referenceRange": [
          {
            "low": {
              "value": 98,
              "code": "mmol/L",
              "system": "http://unitsofmeasure.org"
            }
          },
          {
            "high": {
              "value": 107,
              "code": "mmol/L",
              "system": "http://unitsofmeasure.org"
            }
          }
        ],
        "text": {
          "status": "generated",
          "div": "<div xmlns=\"http://www.w3.org/1999/xhtml\"><table class=\"hl7__eu__lab__report\"><tr><th>Test</th><th>22-Sep-2017</th><th>Reference&#xA0;Range</th><th>Unit</th></tr><tr><td>Chloride [Moles/volume] in Serum or Plasma</td><td>103.9</td><td>98 - 107</td><td></td><td>mmol/L</td></tr></table></div>"
        },
        "status": "final",
        "subject": {
          "reference": "urn:uuid:e9fcebf0-e4b3-4b69-a260-2a40b15934fb",
          "display": "Victor Lagarde"
        },
        "effectiveDateTime": "2017-09-22T04:48:18Z",
        "specimen": {
          "reference": "urn:uuid:85958b34-7545-4e6d-9cf0-059c9a10a994"
        }
      }
    },
    {
      "fullUrl": "urn:uuid:1cce799d-fe82-43d9-bf73-11e8a194800e",
      "resource": {
        "resourceType": "Observation",
        "id": "1cce799d-fe82-43d9-bf73-11e8a194800e",
        "meta": {
          "profile": [
            "http://hl7.eu/fhir/laboratory/StructureDefinition/Observation-resultslab-eu-lab"
          ]
        },
        "performer": [
          {
            "display": "The Central European Lab"
          }
        ],
        "category": [
          {
            "coding": [
              {
                "system": "http://terminology.hl7.org/CodeSystem/observation-category",
                "code": "laboratory"
              }
            ]
          }
        ],
        "code": {
          "coding": [
            {
              "code": "2028-9",
              "system": "http://loinc.org",
              "display": "Carbon dioxide, total [Moles/volume] in Serum or Plasma"
            }
          ],
          "text": "Carbon dioxide, total [Moles/volume] in Serum or Plasma"
        },
        "valueQuantity": {
          "system": "http://unitsofmeasure.org",
          "value": 20,
          "unit": "mmol/L",
          "code": "mmol/L"
        },
        "referenceRange": [
          {
            "low": {
              "value": 22,
              "code": "mmol/L",
              "system": "http://unitsofmeasure.org"
            }
          },
          {
            "high": {
              "value": 33,
              "code": "mmol/L",
              "system": "http://unitsofmeasure.org"
            }
          }
        ],
        "interpretation": [
          {
            "coding": [
              {
                "code": "L",
                "system": "http://terminology.hl7.org/CodeSystem/v3-ObservationInterpretation",
                "display": "Low"
              }
            ]
          }
        ],
        "text": {
          "status": "generated",
          "div": "<div xmlns=\"http://www.w3.org/1999/xhtml\"><table class=\"hl7__eu__lab__report\"><tr><th>Test</th><th>22-Sep-2017</th><th>Reference&#xA0;Range</th><th>Unit</th></tr><tr><td>Carbon dioxide, total [Moles/volume] in Serum or Plasma</td><td>20.0</td><td>22 - 33</td><td>L</td><td>mmol/L</td></tr></table></div>"
        },
        "status": "final",
        "subject": {
          "reference": "urn:uuid:e9fcebf0-e4b3-4b69-a260-2a40b15934fb",
          "display": "Victor Lagarde"
        },
        "effectiveDateTime": "2017-09-22T04:48:18Z",
        "specimen": {
          "reference": "urn:uuid:85958b34-7545-4e6d-9cf0-059c9a10a994"
        }
      }
    },
    {
      "fullUrl": "urn:uuid:ebfae0a2-d841-4234-93d2-82bc2246a041",
      "resource": {
        "resourceType": "Observation",
        "id": "ebfae0a2-d841-4234-93d2-82bc2246a041",
        "meta": {
          "profile": [
            "http://hl7.eu/fhir/laboratory/StructureDefinition/Observation-resultslab-eu-lab"
          ]
        },
        "performer": [
          {
            "display": "The Central European Lab"
          }
        ],
        "category": [
          {
            "coding": [
              {
                "system": "http://terminology.hl7.org/CodeSystem/observation-category",
                "code": "laboratory"
              }
            ]
          }
        ],
        "code": {
          "coding": [
            {
              "code": "5767-9",
              "system": "http://loinc.org",
              "display": "Appearance of Urine"
            }
          ],
          "text": "Appearance of Urine"
        },
        "text": {
          "status": "generated",
          "div": "<div xmlns=\"http://www.w3.org/1999/xhtml\"><table class=\"hl7__eu__lab__report\"><tr><th>Test</th><th>22-Sep-2017</th><th>Reference&#xA0;Range</th><th>Unit</th></tr><tr><td>Appearance of Urine</td></tr></table></div>"
        },
        "status": "final",
        "subject": {
          "reference": "urn:uuid:e9fcebf0-e4b3-4b69-a260-2a40b15934fb",
          "display": "Victor Lagarde"
        },
        "effectiveDateTime": "2017-09-22T04:48:18Z",
        "specimen": {
          "reference": "urn:uuid:1798d615-351b-4ce9-80b7-b397891ee659"
        }
      }
    },
    {
      "fullUrl": "urn:uuid:ba3fec14-1ecb-47cb-b0e5-2d466f88e2a3",
      "resource": {
        "resourceType": "Observation",
        "id": "ba3fec14-1ecb-47cb-b0e5-2d466f88e2a3",
        "meta": {
          "profile": [
            "http://hl7.eu/fhir/laboratory/StructureDefinition/Observation-resultslab-eu-lab"
          ]
        },
        "performer": [
          {
            "display": "The Central European Lab"
          }
        ],
        "category": [
          {
            "coding": [
              {
                "system": "http://terminology.hl7.org/CodeSystem/observation-category",
                "code": "laboratory"
              }
            ]
          }
        ],
        "code": {
          "coding": [
            {
              "code": "34533-0",
              "system": "http://loinc.org",
              "display": "Odor of Urine"
            }
          ],
          "text": "Odor of Urine"
        },
        "text": {
          "status": "generated",
          "div": "<div xmlns=\"http://www.w3.org/1999/xhtml\"><table class=\"hl7__eu__lab__report\"><tr><th>Test</th><th>22-Sep-2017</th><th>Reference&#xA0;Range</th><th>Unit</th></tr><tr><td>Odor of Urine</td></tr></table></div>"
        },
        "status": "final",
        "subject": {
          "reference": "urn:uuid:e9fcebf0-e4b3-4b69-a260-2a40b15934fb",
          "display": "Victor Lagarde"
        },
        "effectiveDateTime": "2017-09-22T04:48:18Z",
        "specimen": {
          "reference": "urn:uuid:1798d615-351b-4ce9-80b7-b397891ee659"
        }
      }
    },
    {
      "fullUrl": "urn:uuid:43da680e-3c5c-490d-b1df-c64a979a1336",
      "resource": {
        "resourceType": "Observation",
        "id": "43da680e-3c5c-490d-b1df-c64a979a1336",
        "meta": {
          "profile": [
            "http://hl7.eu/fhir/laboratory/StructureDefinition/Observation-resultslab-eu-lab"
          ]
        },
        "performer": [
          {
            "display": "The Central European Lab"
          }
        ],
        "category": [
          {
            "coding": [
              {
                "system": "http://terminology.hl7.org/CodeSystem/observation-category",
                "code": "laboratory"
              }
            ]
          }
        ],
        "code": {
          "coding": [
            {
              "code": "32167-9",
              "system": "http://loinc.org",
              "display": "Clarity of Urine"
            }
          ],
          "text": "Clarity of Urine"
        },
        "text": {
          "status": "generated",
          "div": "<div xmlns=\"http://www.w3.org/1999/xhtml\"><table class=\"hl7__eu__lab__report\"><tr><th>Test</th><th>22-Sep-2017</th><th>Reference&#xA0;Range</th><th>Unit</th></tr><tr><td>Clarity of Urine</td></tr></table></div>"
        },
        "status": "final",
        "subject": {
          "reference": "urn:uuid:e9fcebf0-e4b3-4b69-a260-2a40b15934fb",
          "display": "Victor Lagarde"
        },
        "effectiveDateTime": "2017-09-22T04:48:18Z",
        "specimen": {
          "reference": "urn:uuid:1798d615-351b-4ce9-80b7-b397891ee659"
        }
      }
    },
    {
      "fullUrl": "urn:uuid:a56de4be-508d-419d-9fad-51f352e943ec",
      "resource": {
        "resourceType": "Observation",
        "id": "a56de4be-508d-419d-9fad-51f352e943ec",
        "meta": {
          "profile": [
            "http://hl7.eu/fhir/laboratory/StructureDefinition/Observation-resultslab-eu-lab"
          ]
        },
        "performer": [
          {
            "display": "The Central European Lab"
          }
        ],
        "category": [
          {
            "coding": [
              {
                "system": "http://terminology.hl7.org/CodeSystem/observation-category",
                "code": "laboratory"
              }
            ]
          }
        ],
        "code": {
          "coding": [
            {
              "code": "5778-6",
              "system": "http://loinc.org",
              "display": "Color of Urine"
            }
          ],
          "text": "Color of Urine"
        },
        "text": {
          "status": "generated",
          "div": "<div xmlns=\"http://www.w3.org/1999/xhtml\"><table class=\"hl7__eu__lab__report\"><tr><th>Test</th><th>22-Sep-2017</th><th>Reference&#xA0;Range</th><th>Unit</th></tr><tr><td>Color of Urine</td></tr></table></div>"
        },
        "status": "final",
        "subject": {
          "reference": "urn:uuid:e9fcebf0-e4b3-4b69-a260-2a40b15934fb",
          "display": "Victor Lagarde"
        },
        "effectiveDateTime": "2017-09-22T04:48:18Z",
        "specimen": {
          "reference": "urn:uuid:1798d615-351b-4ce9-80b7-b397891ee659"
        }
      }
    },
    {
      "fullUrl": "urn:uuid:50bc665f-d1d0-446b-8257-b975495b19b1",
      "resource": {
        "resourceType": "Observation",
        "id": "50bc665f-d1d0-446b-8257-b975495b19b1",
        "meta": {
          "profile": [
            "http://hl7.eu/fhir/laboratory/StructureDefinition/Observation-resultslab-eu-lab"
          ]
        },
        "performer": [
          {
            "display": "The Central European Lab"
          }
        ],
        "category": [
          {
            "coding": [
              {
                "system": "http://terminology.hl7.org/CodeSystem/observation-category",
                "code": "laboratory"
              }
            ]
          }
        ],
        "code": {
          "coding": [
            {
              "code": "5792-7",
              "system": "http://loinc.org",
              "display": "Glucose [Mass/volume] in Urine by Test strip"
            }
          ],
          "text": "Glucose [Mass/volume] in Urine by Test strip"
        },
        "valueQuantity": {
          "system": "http://unitsofmeasure.org",
          "value": 1.4,
          "unit": "mg/dL",
          "code": "mg/dL"
        },
        "referenceRange": [
          {
            "low": {
              "value": 0,
              "code": "mg/dL",
              "system": "http://unitsofmeasure.org"
            }
          },
          {
            "high": {
              "value": 0.8,
              "code": "mg/dL",
              "system": "http://unitsofmeasure.org"
            }
          }
        ],
        "interpretation": [
          {
            "coding": [
              {
                "code": "H",
                "system": "http://terminology.hl7.org/CodeSystem/v3-ObservationInterpretation",
                "display": "High"
              }
            ]
          }
        ],
        "text": {
          "status": "generated",
          "div": "<div xmlns=\"http://www.w3.org/1999/xhtml\"><table class=\"hl7__eu__lab__report\"><tr><th>Test</th><th>22-Sep-2017</th><th>Reference&#xA0;Range</th><th>Unit</th></tr><tr><td>Glucose [Mass/volume] in Urine by Test strip</td><td>1.4</td><td>0 - 0.8</td><td>H</td><td>mg/dL</td></tr></table></div>"
        },
        "status": "final",
        "subject": {
          "reference": "urn:uuid:e9fcebf0-e4b3-4b69-a260-2a40b15934fb",
          "display": "Victor Lagarde"
        },
        "effectiveDateTime": "2017-09-22T04:48:18Z",
        "specimen": {
          "reference": "urn:uuid:1798d615-351b-4ce9-80b7-b397891ee659"
        }
      }
    },
    {
      "fullUrl": "urn:uuid:1305c0c5-0a1e-418c-b939-319fa6ec4311",
      "resource": {
        "resourceType": "Observation",
        "id": "1305c0c5-0a1e-418c-b939-319fa6ec4311",
        "meta": {
          "profile": [
            "http://hl7.eu/fhir/laboratory/StructureDefinition/Observation-resultslab-eu-lab"
          ]
        },
        "performer": [
          {
            "display": "The Central European Lab"
          }
        ],
        "category": [
          {
            "coding": [
              {
                "system": "http://terminology.hl7.org/CodeSystem/observation-category",
                "code": "laboratory"
              }
            ]
          }
        ],
        "code": {
          "coding": [
            {
              "code": "25428-4",
              "system": "http://loinc.org",
              "display": "Glucose [Presence] in Urine by Test strip"
            }
          ],
          "text": "Glucose [Presence] in Urine by Test strip"
        },
        "text": {
          "status": "generated",
          "div": "<div xmlns=\"http://www.w3.org/1999/xhtml\"><table class=\"hl7__eu__lab__report\"><tr><th>Test</th><th>22-Sep-2017</th><th>Reference&#xA0;Range</th><th>Unit</th></tr><tr><td>Glucose [Presence] in Urine by Test strip</td></tr></table></div>"
        },
        "status": "final",
        "subject": {
          "reference": "urn:uuid:e9fcebf0-e4b3-4b69-a260-2a40b15934fb",
          "display": "Victor Lagarde"
        },
        "effectiveDateTime": "2017-09-22T04:48:18Z",
        "specimen": {
          "reference": "urn:uuid:1798d615-351b-4ce9-80b7-b397891ee659"
        }
      }
    },
    {
      "fullUrl": "urn:uuid:2f31e2f0-5e08-4ae4-b9dc-09b566eed96c",
      "resource": {
        "resourceType": "Observation",
        "id": "2f31e2f0-5e08-4ae4-b9dc-09b566eed96c",
        "meta": {
          "profile": [
            "http://hl7.eu/fhir/laboratory/StructureDefinition/Observation-resultslab-eu-lab"
          ]
        },
        "performer": [
          {
            "display": "The Central European Lab"
          }
        ],
        "category": [
          {
            "coding": [
              {
                "system": "http://terminology.hl7.org/CodeSystem/observation-category",
                "code": "laboratory"
              }
            ]
          }
        ],
        "code": {
          "coding": [
            {
              "code": "20505-4",
              "system": "http://loinc.org",
              "display": "Bilirubin.total [Mass/volume] in Urine by Test strip"
            }
          ],
          "text": "Bilirubin.total [Mass/volume] in Urine by Test strip"
        },
        "valueQuantity": {
          "system": "http://unitsofmeasure.org",
          "value": 0.6,
          "unit": "mg/dL",
          "code": "mg/dL"
        },
        "referenceRange": [
          {
            "low": {
              "value": 0,
              "code": "mg/dL",
              "system": "http://unitsofmeasure.org"
            }
          },
          {
            "high": {
              "value": 1.9,
              "code": "mg/dL",
              "system": "http://unitsofmeasure.org"
            }
          }
        ],
        "text": {
          "status": "generated",
          "div": "<div xmlns=\"http://www.w3.org/1999/xhtml\"><table class=\"hl7__eu__lab__report\"><tr><th>Test</th><th>22-Sep-2017</th><th>Reference&#xA0;Range</th><th>Unit</th></tr><tr><td>Bilirubin.total [Mass/volume] in Urine by Test strip</td><td>0.6</td><td>0 - 1.9</td><td></td><td>mg/dL</td></tr></table></div>"
        },
        "status": "final",
        "subject": {
          "reference": "urn:uuid:e9fcebf0-e4b3-4b69-a260-2a40b15934fb",
          "display": "Victor Lagarde"
        },
        "effectiveDateTime": "2017-09-22T04:48:18Z",
        "specimen": {
          "reference": "urn:uuid:1798d615-351b-4ce9-80b7-b397891ee659"
        }
      }
    },
    {
      "fullUrl": "urn:uuid:b8d05e1f-ccff-453c-86b9-5ea6db803a1b",
      "resource": {
        "resourceType": "Observation",
        "id": "b8d05e1f-ccff-453c-86b9-5ea6db803a1b",
        "meta": {
          "profile": [
            "http://hl7.eu/fhir/laboratory/StructureDefinition/Observation-resultslab-eu-lab"
          ]
        },
        "performer": [
          {
            "display": "The Central European Lab"
          }
        ],
        "category": [
          {
            "coding": [
              {
                "system": "http://terminology.hl7.org/CodeSystem/observation-category",
                "code": "laboratory"
              }
            ]
          }
        ],
        "code": {
          "coding": [
            {
              "code": "5770-3",
              "system": "http://loinc.org",
              "display": "Bilirubin.total [Presence] in Urine by Test strip"
            }
          ],
          "text": "Bilirubin.total [Presence] in Urine by Test strip"
        },
        "text": {
          "status": "generated",
          "div": "<div xmlns=\"http://www.w3.org/1999/xhtml\"><table class=\"hl7__eu__lab__report\"><tr><th>Test</th><th>22-Sep-2017</th><th>Reference&#xA0;Range</th><th>Unit</th></tr><tr><td>Bilirubin.total [Presence] in Urine by Test strip</td></tr></table></div>"
        },
        "status": "final",
        "subject": {
          "reference": "urn:uuid:e9fcebf0-e4b3-4b69-a260-2a40b15934fb",
          "display": "Victor Lagarde"
        },
        "effectiveDateTime": "2017-09-22T04:48:18Z",
        "specimen": {
          "reference": "urn:uuid:1798d615-351b-4ce9-80b7-b397891ee659"
        }
      }
    },
    {
      "fullUrl": "urn:uuid:0b3e6d7d-6e74-4c8a-a583-d7d16413497c",
      "resource": {
        "resourceType": "Observation",
        "id": "0b3e6d7d-6e74-4c8a-a583-d7d16413497c",
        "meta": {
          "profile": [
            "http://hl7.eu/fhir/laboratory/StructureDefinition/Observation-resultslab-eu-lab"
          ]
        },
        "performer": [
          {
            "display": "The Central European Lab"
          }
        ],
        "category": [
          {
            "coding": [
              {
                "system": "http://terminology.hl7.org/CodeSystem/observation-category",
                "code": "laboratory"
              }
            ]
          }
        ],
        "code": {
          "coding": [
            {
              "code": "5797-6",
              "system": "http://loinc.org",
              "display": "Ketones [Mass/volume] in Urine by Test strip"
            }
          ],
          "text": "Ketones [Mass/volume] in Urine by Test strip"
        },
        "valueQuantity": {
          "system": "http://unitsofmeasure.org",
          "value": 0.8,
          "unit": "mg/dL",
          "code": "mg/dL"
        },
        "referenceRange": [
          {
            "low": {
              "value": 0,
              "code": "mg/dL",
              "system": "http://unitsofmeasure.org"
            }
          },
          {
            "high": {
              "value": 3,
              "code": "mg/dL",
              "system": "http://unitsofmeasure.org"
            }
          }
        ],
        "text": {
          "status": "generated",
          "div": "<div xmlns=\"http://www.w3.org/1999/xhtml\"><table class=\"hl7__eu__lab__report\"><tr><th>Test</th><th>22-Sep-2017</th><th>Reference&#xA0;Range</th><th>Unit</th></tr><tr><td>Ketones [Mass/volume] in Urine by Test strip</td><td>0.8</td><td>0 - 3</td><td></td><td>mg/dL</td></tr></table></div>"
        },
        "status": "final",
        "subject": {
          "reference": "urn:uuid:e9fcebf0-e4b3-4b69-a260-2a40b15934fb",
          "display": "Victor Lagarde"
        },
        "effectiveDateTime": "2017-09-22T04:48:18Z",
        "specimen": {
          "reference": "urn:uuid:1798d615-351b-4ce9-80b7-b397891ee659"
        }
      }
    },
    {
      "fullUrl": "urn:uuid:5ba5ec34-8e45-464d-953b-74f95ed35fae",
      "resource": {
        "resourceType": "Observation",
        "id": "5ba5ec34-8e45-464d-953b-74f95ed35fae",
        "meta": {
          "profile": [
            "http://hl7.eu/fhir/laboratory/StructureDefinition/Observation-resultslab-eu-lab"
          ]
        },
        "performer": [
          {
            "display": "The Central European Lab"
          }
        ],
        "category": [
          {
            "coding": [
              {
                "system": "http://terminology.hl7.org/CodeSystem/observation-category",
                "code": "laboratory"
              }
            ]
          }
        ],
        "code": {
          "coding": [
            {
              "code": "2514-8",
              "system": "http://loinc.org",
              "display": "Ketones [Presence] in Urine by Test strip"
            }
          ],
          "text": "Ketones [Presence] in Urine by Test strip"
        },
        "text": {
          "status": "generated",
          "div": "<div xmlns=\"http://www.w3.org/1999/xhtml\"><table class=\"hl7__eu__lab__report\"><tr><th>Test</th><th>22-Sep-2017</th><th>Reference&#xA0;Range</th><th>Unit</th></tr><tr><td>Ketones [Presence] in Urine by Test strip</td></tr></table></div>"
        },
        "status": "final",
        "subject": {
          "reference": "urn:uuid:e9fcebf0-e4b3-4b69-a260-2a40b15934fb",
          "display": "Victor Lagarde"
        },
        "effectiveDateTime": "2017-09-22T04:48:18Z",
        "specimen": {
          "reference": "urn:uuid:1798d615-351b-4ce9-80b7-b397891ee659"
        }
      }
    },
    {
      "fullUrl": "urn:uuid:8249aa16-c8bb-418a-aeb1-42341a62bc5f",
      "resource": {
        "resourceType": "Observation",
        "id": "8249aa16-c8bb-418a-aeb1-42341a62bc5f",
        "meta": {
          "profile": [
            "http://hl7.eu/fhir/laboratory/StructureDefinition/Observation-resultslab-eu-lab"
          ]
        },
        "performer": [
          {
            "display": "The Central European Lab"
          }
        ],
        "category": [
          {
            "coding": [
              {
                "system": "http://terminology.hl7.org/CodeSystem/observation-category",
                "code": "laboratory"
              }
            ]
          }
        ],
        "code": {
          "coding": [
            {
              "code": "5811-5",
              "system": "http://loinc.org",
              "display": "Specific gravity of Urine by Test strip"
            }
          ],
          "text": "Specific gravity of Urine by Test strip"
        },
        "valueQuantity": {
          "system": "http://unitsofmeasure.org",
          "value": 1,
          "unit": "{nominal}",
          "code": "{nominal}"
        },
        "referenceRange": [
          {
            "low": {
              "value": 1.01,
              "code": "g/mL",
              "system": "http://unitsofmeasure.org"
            }
          },
          {
            "high": {
              "value": 1.03,
              "code": "g/mL",
              "system": "http://unitsofmeasure.org"
            }
          }
        ],
        "interpretation": [
          {
            "coding": [
              {
                "code": "L",
                "system": "http://terminology.hl7.org/CodeSystem/v3-ObservationInterpretation",
                "display": "Low"
              }
            ]
          }
        ],
        "text": {
          "status": "generated",
          "div": "<div xmlns=\"http://www.w3.org/1999/xhtml\"><table class=\"hl7__eu__lab__report\"><tr><th>Test</th><th>22-Sep-2017</th><th>Reference&#xA0;Range</th><th>Unit</th></tr><tr><td>Specific gravity of Urine by Test strip</td><td>1.0</td><td>1.01 - 1.03</td><td>L</td><td>{nominal}</td></tr></table></div>"
        },
        "status": "final",
        "subject": {
          "reference": "urn:uuid:e9fcebf0-e4b3-4b69-a260-2a40b15934fb",
          "display": "Victor Lagarde"
        },
        "effectiveDateTime": "2017-09-22T04:48:18Z",
        "specimen": {
          "reference": "urn:uuid:1798d615-351b-4ce9-80b7-b397891ee659"
        }
      }
    },
    {
      "fullUrl": "urn:uuid:06d2b05c-a799-4566-8d13-ddb6e5bff910",
      "resource": {
        "resourceType": "Observation",
        "id": "06d2b05c-a799-4566-8d13-ddb6e5bff910",
        "meta": {
          "profile": [
            "http://hl7.eu/fhir/laboratory/StructureDefinition/Observation-resultslab-eu-lab"
          ]
        },
        "performer": [
          {
            "display": "The Central European Lab"
          }
        ],
        "category": [
          {
            "coding": [
              {
                "system": "http://terminology.hl7.org/CodeSystem/observation-category",
                "code": "laboratory"
              }
            ]
          }
        ],
        "code": {
          "coding": [
            {
              "code": "5803-2",
              "system": "http://loinc.org",
              "display": "pH of Urine by Test strip"
            }
          ],
          "text": "pH of Urine by Test strip"
        },
        "valueQuantity": {
          "system": "http://unitsofmeasure.org",
          "value": 5.9,
          "unit": "pH",
          "code": "pH"
        },
        "referenceRange": [
          {
            "low": {
              "value": 4.5,
              "code": "pH",
              "system": "http://unitsofmeasure.org"
            }
          },
          {
            "high": {
              "value": 7.5,
              "code": "pH",
              "system": "http://unitsofmeasure.org"
            }
          }
        ],
        "text": {
          "status": "generated",
          "div": "<div xmlns=\"http://www.w3.org/1999/xhtml\"><table class=\"hl7__eu__lab__report\"><tr><th>Test</th><th>22-Sep-2017</th><th>Reference&#xA0;Range</th><th>Unit</th></tr><tr><td>pH of Urine by Test strip</td><td>5.9</td><td>4.5 - 7.5</td><td></td><td>pH</td></tr></table></div>"
        },
        "status": "final",
        "subject": {
          "reference": "urn:uuid:e9fcebf0-e4b3-4b69-a260-2a40b15934fb",
          "display": "Victor Lagarde"
        },
        "effectiveDateTime": "2017-09-22T04:48:18Z",
        "specimen": {
          "reference": "urn:uuid:1798d615-351b-4ce9-80b7-b397891ee659"
        }
      }
    },
    {
      "fullUrl": "urn:uuid:ed16f024-2910-4bb3-873b-85a81f25af52",
      "resource": {
        "resourceType": "Observation",
        "id": "ed16f024-2910-4bb3-873b-85a81f25af52",
        "meta": {
          "profile": [
            "http://hl7.eu/fhir/laboratory/StructureDefinition/Observation-resultslab-eu-lab"
          ]
        },
        "performer": [
          {
            "display": "The Central European Lab"
          }
        ],
        "category": [
          {
            "coding": [
              {
                "system": "http://terminology.hl7.org/CodeSystem/observation-category",
                "code": "laboratory"
              }
            ]
          }
        ],
        "code": {
          "coding": [
            {
              "code": "5804-0",
              "system": "http://loinc.org",
              "display": "Protein [Mass/volume] in Urine by Test strip"
            }
          ],
          "text": "Protein [Mass/volume] in Urine by Test strip"
        },
        "valueQuantity": {
          "system": "http://unitsofmeasure.org",
          "value": 201.9,
          "unit": "mg/dL",
          "code": "mg/dL"
        },
        "referenceRange": [
          {
            "low": {
              "value": 0,
              "code": "mg/dL",
              "system": "http://unitsofmeasure.org"
            }
          },
          {
            "high": {
              "value": 149,
              "code": "mg/dL",
              "system": "http://unitsofmeasure.org"
            }
          }
        ],
        "interpretation": [
          {
            "coding": [
              {
                "code": "H",
                "system": "http://terminology.hl7.org/CodeSystem/v3-ObservationInterpretation",
                "display": "High"
              }
            ]
          }
        ],
        "text": {
          "status": "generated",
          "div": "<div xmlns=\"http://www.w3.org/1999/xhtml\"><table class=\"hl7__eu__lab__report\"><tr><th>Test</th><th>22-Sep-2017</th><th>Reference&#xA0;Range</th><th>Unit</th></tr><tr><td>Protein [Mass/volume] in Urine by Test strip</td><td>201.9</td><td>0 - 149</td><td>H</td><td>mg/dL</td></tr></table></div>"
        },
        "status": "final",
        "subject": {
          "reference": "urn:uuid:e9fcebf0-e4b3-4b69-a260-2a40b15934fb",
          "display": "Victor Lagarde"
        },
        "effectiveDateTime": "2017-09-22T04:48:18Z",
        "specimen": {
          "reference": "urn:uuid:1798d615-351b-4ce9-80b7-b397891ee659"
        }
      }
    },
    {
      "fullUrl": "urn:uuid:baf1ef0a-4048-4693-b0b5-95d8b8876569",
      "resource": {
        "resourceType": "Observation",
        "id": "baf1ef0a-4048-4693-b0b5-95d8b8876569",
        "meta": {
          "profile": [
            "http://hl7.eu/fhir/laboratory/StructureDefinition/Observation-resultslab-eu-lab"
          ]
        },
        "performer": [
          {
            "display": "The Central European Lab"
          }
        ],
        "category": [
          {
            "coding": [
              {
                "system": "http://terminology.hl7.org/CodeSystem/observation-category",
                "code": "laboratory"
              }
            ]
          }
        ],
        "code": {
          "coding": [
            {
              "code": "20454-5",
              "system": "http://loinc.org",
              "display": "Protein [Presence] in Urine by Test strip"
            }
          ],
          "text": "Protein [Presence] in Urine by Test strip"
        },
        "text": {
          "status": "generated",
          "div": "<div xmlns=\"http://www.w3.org/1999/xhtml\"><table class=\"hl7__eu__lab__report\"><tr><th>Test</th><th>22-Sep-2017</th><th>Reference&#xA0;Range</th><th>Unit</th></tr><tr><td>Protein [Presence] in Urine by Test strip</td></tr></table></div>"
        },
        "status": "final",
        "subject": {
          "reference": "urn:uuid:e9fcebf0-e4b3-4b69-a260-2a40b15934fb",
          "display": "Victor Lagarde"
        },
        "effectiveDateTime": "2017-09-22T04:48:18Z",
        "specimen": {
          "reference": "urn:uuid:1798d615-351b-4ce9-80b7-b397891ee659"
        }
      }
    },
    {
      "fullUrl": "urn:uuid:4ccf9eb5-31ab-4b18-8364-71eecd85b891",
      "resource": {
        "resourceType": "Observation",
        "id": "4ccf9eb5-31ab-4b18-8364-71eecd85b891",
        "meta": {
          "profile": [
            "http://hl7.eu/fhir/laboratory/StructureDefinition/Observation-resultslab-eu-lab"
          ]
        },
        "performer": [
          {
            "display": "The Central European Lab"
          }
        ],
        "category": [
          {
            "coding": [
              {
                "system": "http://terminology.hl7.org/CodeSystem/observation-category",
                "code": "laboratory"
              }
            ]
          }
        ],
        "code": {
          "coding": [
            {
              "code": "5802-4",
              "system": "http://loinc.org",
              "display": "Nitrite [Presence] in Urine by Test strip"
            }
          ],
          "text": "Nitrite [Presence] in Urine by Test strip"
        },
        "text": {
          "status": "generated",
          "div": "<div xmlns=\"http://www.w3.org/1999/xhtml\"><table class=\"hl7__eu__lab__report\"><tr><th>Test</th><th>22-Sep-2017</th><th>Reference&#xA0;Range</th><th>Unit</th></tr><tr><td>Nitrite [Presence] in Urine by Test strip</td></tr></table></div>"
        },
        "status": "final",
        "subject": {
          "reference": "urn:uuid:e9fcebf0-e4b3-4b69-a260-2a40b15934fb",
          "display": "Victor Lagarde"
        },
        "effectiveDateTime": "2017-09-22T04:48:18Z",
        "specimen": {
          "reference": "urn:uuid:1798d615-351b-4ce9-80b7-b397891ee659"
        }
      }
    },
    {
      "fullUrl": "urn:uuid:7356fb25-87ee-4787-9d4f-a815c37e6611",
      "resource": {
        "resourceType": "Observation",
        "id": "7356fb25-87ee-4787-9d4f-a815c37e6611",
        "meta": {
          "profile": [
            "http://hl7.eu/fhir/laboratory/StructureDefinition/Observation-resultslab-eu-lab"
          ]
        },
        "performer": [
          {
            "display": "The Central European Lab"
          }
        ],
        "category": [
          {
            "coding": [
              {
                "system": "http://terminology.hl7.org/CodeSystem/observation-category",
                "code": "laboratory"
              }
            ]
          }
        ],
        "code": {
          "coding": [
            {
              "code": "5794-3",
              "system": "http://loinc.org",
              "display": "Hemoglobin [Presence] in Urine by Test strip"
            }
          ],
          "text": "Hemoglobin [Presence] in Urine by Test strip"
        },
        "text": {
          "status": "generated",
          "div": "<div xmlns=\"http://www.w3.org/1999/xhtml\"><table class=\"hl7__eu__lab__report\"><tr><th>Test</th><th>22-Sep-2017</th><th>Reference&#xA0;Range</th><th>Unit</th></tr><tr><td>Hemoglobin [Presence] in Urine by Test strip</td></tr></table></div>"
        },
        "status": "final",
        "subject": {
          "reference": "urn:uuid:e9fcebf0-e4b3-4b69-a260-2a40b15934fb",
          "display": "Victor Lagarde"
        },
        "effectiveDateTime": "2017-09-22T04:48:18Z",
        "specimen": {
          "reference": "urn:uuid:1798d615-351b-4ce9-80b7-b397891ee659"
        }
      }
    },
    {
      "fullUrl": "urn:uuid:9fc079e2-a71e-48e4-81e1-1096ea09c7ec",
      "resource": {
        "resourceType": "Observation",
        "id": "9fc079e2-a71e-48e4-81e1-1096ea09c7ec",
        "meta": {
          "profile": [
            "http://hl7.eu/fhir/laboratory/StructureDefinition/Observation-resultslab-eu-lab"
          ]
        },
        "performer": [
          {
            "display": "The Central European Lab"
          }
        ],
        "category": [
          {
            "coding": [
              {
                "system": "http://terminology.hl7.org/CodeSystem/observation-category",
                "code": "laboratory"
              }
            ]
          }
        ],
        "code": {
          "coding": [
            {
              "code": "5799-2",
              "system": "http://loinc.org",
              "display": "Leukocyte esterase [Presence] in Urine by Test strip"
            }
          ],
          "text": "Leukocyte esterase [Presence] in Urine by Test strip"
        },
        "text": {
          "status": "generated",
          "div": "<div xmlns=\"http://www.w3.org/1999/xhtml\"><table class=\"hl7__eu__lab__report\"><tr><th>Test</th><th>22-Sep-2017</th><th>Reference&#xA0;Range</th><th>Unit</th></tr><tr><td>Leukocyte esterase [Presence] in Urine by Test strip</td></tr></table></div>"
        },
        "status": "final",
        "subject": {
          "reference": "urn:uuid:e9fcebf0-e4b3-4b69-a260-2a40b15934fb",
          "display": "Victor Lagarde"
        },
        "effectiveDateTime": "2017-09-22T04:48:18Z",
        "specimen": {
          "reference": "urn:uuid:1798d615-351b-4ce9-80b7-b397891ee659"
        }
      }
    },
    {
      "fullUrl": "urn:uuid:ec431a01-a452-4794-86e1-26eb6a68ce35",
      "resource": {
        "resourceType": "Observation",
        "id": "ec431a01-a452-4794-86e1-26eb6a68ce35",
        "meta": {
          "profile": [
            "http://hl7.eu/fhir/laboratory/StructureDefinition/Observation-resultslab-eu-lab"
          ]
        },
        "performer": [
          {
            "display": "The Central European Lab"
          }
        ],
        "category": [
          {
            "coding": [
              {
                "system": "http://terminology.hl7.org/CodeSystem/observation-category",
                "code": "laboratory"
              }
            ]
          }
        ],
        "code": {
          "coding": [
            {
              "code": "4548-4",
              "system": "http://loinc.org",
              "display": "Hemoglobin A1c/Hemoglobin.total in Blood"
            }
          ],
          "text": "Hemoglobin A1c/Hemoglobin.total in Blood"
        },
        "valueQuantity": {
          "system": "http://unitsofmeasure.org",
          "value": 2.8,
          "unit": "%",
          "code": "%"
        },
        "referenceRange": [
          {
            "low": {
              "value": 4.3,
              "code": "%",
              "system": "http://unitsofmeasure.org"
            }
          },
          {
            "high": {
              "value": 6,
              "code": "%",
              "system": "http://unitsofmeasure.org"
            }
          }
        ],
        "interpretation": [
          {
            "coding": [
              {
                "code": "L",
                "system": "http://terminology.hl7.org/CodeSystem/v3-ObservationInterpretation",
                "display": "Low"
              }
            ]
          }
        ],
        "text": {
          "status": "generated",
          "div": "<div xmlns=\"http://www.w3.org/1999/xhtml\"><table class=\"hl7__eu__lab__report\"><tr><th>Test</th><th>22-Sep-2017</th><th>Reference&#xA0;Range</th><th>Unit</th></tr><tr><td>Hemoglobin A1c/Hemoglobin.total in Blood</td><td>2.8</td><td>4.3 - 6</td><td>L</td><td>%</td></tr></table></div>"
        },
        "status": "final",
        "subject": {
          "reference": "urn:uuid:e9fcebf0-e4b3-4b69-a260-2a40b15934fb",
          "display": "Victor Lagarde"
        },
        "effectiveDateTime": "2017-09-22T04:48:18Z",
        "specimen": {
          "reference": "urn:uuid:36e67531-651d-4445-ae39-6dc03b76ef50"
        }
      }
    },
    {
      "fullUrl": "urn:uuid:ebc33873-c268-4587-ab03-956896c88de9",
      "resource": {
        "resourceType": "Observation",
        "id": "ebc33873-c268-4587-ab03-956896c88de9",
        "meta": {
          "profile": [
            "http://hl7.eu/fhir/laboratory/StructureDefinition/Observation-resultslab-eu-lab"
          ]
        },
        "performer": [
          {
            "display": "The Central European Lab"
          }
        ],
        "category": [
          {
            "coding": [
              {
                "system": "http://terminology.hl7.org/CodeSystem/observation-category",
                "code": "laboratory"
              }
            ]
          }
        ],
        "code": {
          "coding": [
            {
              "code": "2339-0",
              "system": "http://loinc.org",
              "display": "Glucose [Mass/volume] in Blood"
            }
          ],
          "text": "Glucose [Mass/volume] in Blood"
        },
        "valueQuantity": {
          "system": "http://unitsofmeasure.org",
          "value": 81.4,
          "unit": "mg/dL",
          "code": "mg/dL"
        },
        "referenceRange": [
          {
            "low": {
              "value": 70,
              "code": "mg/dL",
              "system": "http://unitsofmeasure.org"
            }
          },
          {
            "high": {
              "value": 140,
              "code": "mg/dL",
              "system": "http://unitsofmeasure.org"
            }
          }
        ],
        "text": {
          "status": "generated",
          "div": "<div xmlns=\"http://www.w3.org/1999/xhtml\"><table class=\"hl7__eu__lab__report\"><tr><th>Test</th><th>22-Sep-2017</th><th>Reference&#xA0;Range</th><th>Unit</th></tr><tr><td>Glucose [Mass/volume] in Blood</td><td>81.4</td><td>70 - 140</td><td></td><td>mg/dL</td></tr></table></div>"
        },
        "status": "final",
        "subject": {
          "reference": "urn:uuid:e9fcebf0-e4b3-4b69-a260-2a40b15934fb",
          "display": "Victor Lagarde"
        },
        "effectiveDateTime": "2017-09-22T04:48:18Z",
        "specimen": {
          "reference": "urn:uuid:36e67531-651d-4445-ae39-6dc03b76ef50"
        }
      }
    },
    {
      "fullUrl": "urn:uuid:f401bae6-219d-46d2-b0e7-8daf433df9a2",
      "resource": {
        "resourceType": "Observation",
        "id": "f401bae6-219d-46d2-b0e7-8daf433df9a2",
        "meta": {
          "profile": [
            "http://hl7.eu/fhir/laboratory/StructureDefinition/Observation-resultslab-eu-lab"
          ]
        },
        "performer": [
          {
            "display": "The Central European Lab"
          }
        ],
        "category": [
          {
            "coding": [
              {
                "system": "http://terminology.hl7.org/CodeSystem/observation-category",
                "code": "laboratory"
              }
            ]
          }
        ],
        "code": {
          "coding": [
            {
              "code": "6299-2",
              "system": "http://loinc.org",
              "display": "Urea nitrogen [Mass/volume] in Blood"
            }
          ],
          "text": "Urea nitrogen [Mass/volume] in Blood"
        },
        "valueQuantity": {
          "system": "http://unitsofmeasure.org",
          "value": 7.8,
          "unit": "mg/dL",
          "code": "mg/dL"
        },
        "referenceRange": [
          {
            "low": {
              "value": 7,
              "code": "mg/dL",
              "system": "http://unitsofmeasure.org"
            }
          },
          {
            "high": {
              "value": 20,
              "code": "mg/dL",
              "system": "http://unitsofmeasure.org"
            }
          }
        ],
        "text": {
          "status": "generated",
          "div": "<div xmlns=\"http://www.w3.org/1999/xhtml\"><table class=\"hl7__eu__lab__report\"><tr><th>Test</th><th>22-Sep-2017</th><th>Reference&#xA0;Range</th><th>Unit</th></tr><tr><td>Urea nitrogen [Mass/volume] in Blood</td><td>7.8</td><td>7 - 20</td><td></td><td>mg/dL</td></tr></table></div>"
        },
        "status": "final",
        "subject": {
          "reference": "urn:uuid:e9fcebf0-e4b3-4b69-a260-2a40b15934fb",
          "display": "Victor Lagarde"
        },
        "effectiveDateTime": "2017-09-22T04:48:18Z",
        "specimen": {
          "reference": "urn:uuid:36e67531-651d-4445-ae39-6dc03b76ef50"
        }
      }
    },
    {
      "fullUrl": "urn:uuid:030d31c9-d41b-41d2-b690-1378491aeeb0",
      "resource": {
        "resourceType": "Observation",
        "id": "030d31c9-d41b-41d2-b690-1378491aeeb0",
        "meta": {
          "profile": [
            "http://hl7.eu/fhir/laboratory/StructureDefinition/Observation-resultslab-eu-lab"
          ]
        },
        "performer": [
          {
            "display": "The Central European Lab"
          }
        ],
        "category": [
          {
            "coding": [
              {
                "system": "http://terminology.hl7.org/CodeSystem/observation-category",
                "code": "laboratory"
              }
            ]
          }
        ],
        "code": {
          "coding": [
            {
              "code": "38483-4",
              "system": "http://loinc.org",
              "display": "Creatinine [Mass/volume] in Blood"
            }
          ],
          "text": "Creatinine [Mass/volume] in Blood"
        },
        "valueQuantity": {
          "system": "http://unitsofmeasure.org",
          "value": 2.1,
          "unit": "mg/dL",
          "code": "mg/dL"
        },
        "referenceRange": [
          {
            "low": {
              "value": 0.9,
              "code": "mg/dL",
              "system": "http://unitsofmeasure.org"
            }
          },
          {
            "high": {
              "value": 1.3,
              "code": "mg/dL",
              "system": "http://unitsofmeasure.org"
            }
          }
        ],
        "interpretation": [
          {
            "coding": [
              {
                "code": "H",
                "system": "http://terminology.hl7.org/CodeSystem/v3-ObservationInterpretation",
                "display": "High"
              }
            ]
          }
        ],
        "text": {
          "status": "generated",
          "div": "<div xmlns=\"http://www.w3.org/1999/xhtml\"><table class=\"hl7__eu__lab__report\"><tr><th>Test</th><th>22-Sep-2017</th><th>Reference&#xA0;Range</th><th>Unit</th></tr><tr><td>Creatinine [Mass/volume] in Blood</td><td>2.1</td><td>0.9 - 1.3</td><td>H</td><td>mg/dL</td></tr></table></div>"
        },
        "status": "final",
        "subject": {
          "reference": "urn:uuid:e9fcebf0-e4b3-4b69-a260-2a40b15934fb",
          "display": "Victor Lagarde"
        },
        "effectiveDateTime": "2017-09-22T04:48:18Z",
        "specimen": {
          "reference": "urn:uuid:36e67531-651d-4445-ae39-6dc03b76ef50"
        }
      }
    },
    {
      "fullUrl": "urn:uuid:0f3d5cf4-ba41-4992-be54-cd33c917557f",
      "resource": {
        "resourceType": "Observation",
        "id": "0f3d5cf4-ba41-4992-be54-cd33c917557f",
        "meta": {
          "profile": [
            "http://hl7.eu/fhir/laboratory/StructureDefinition/Observation-resultslab-eu-lab"
          ]
        },
        "performer": [
          {
            "display": "The Central European Lab"
          }
        ],
        "category": [
          {
            "coding": [
              {
                "system": "http://terminology.hl7.org/CodeSystem/observation-category",
                "code": "laboratory"
              }
            ]
          }
        ],
        "code": {
          "coding": [
            {
              "code": "49765-1",
              "system": "http://loinc.org",
              "display": "Calcium [Mass/volume] in Blood"
            }
          ],
          "text": "Calcium [Mass/volume] in Blood"
        },
        "valueQuantity": {
          "system": "http://unitsofmeasure.org",
          "value": 10.1,
          "unit": "mg/dL",
          "code": "mg/dL"
        },
        "referenceRange": [
          {
            "low": {
              "value": 8.5,
              "code": "mg/dL",
              "system": "http://unitsofmeasure.org"
            }
          },
          {
            "high": {
              "value": 10.5,
              "code": "mg/dL",
              "system": "http://unitsofmeasure.org"
            }
          }
        ],
        "text": {
          "status": "generated",
          "div": "<div xmlns=\"http://www.w3.org/1999/xhtml\"><table class=\"hl7__eu__lab__report\"><tr><th>Test</th><th>22-Sep-2017</th><th>Reference&#xA0;Range</th><th>Unit</th></tr><tr><td>Calcium [Mass/volume] in Blood</td><td>10.1</td><td>8.5 - 10.5</td><td></td><td>mg/dL</td></tr></table></div>"
        },
        "status": "final",
        "subject": {
          "reference": "urn:uuid:e9fcebf0-e4b3-4b69-a260-2a40b15934fb",
          "display": "Victor Lagarde"
        },
        "effectiveDateTime": "2017-09-22T04:48:18Z",
        "specimen": {
          "reference": "urn:uuid:36e67531-651d-4445-ae39-6dc03b76ef50"
        }
      }
    },
    {
      "fullUrl": "urn:uuid:536d1ff3-e752-4f08-80f2-d200c1412d3c",
      "resource": {
        "resourceType": "Observation",
        "id": "536d1ff3-e752-4f08-80f2-d200c1412d3c",
        "meta": {
          "profile": [
            "http://hl7.eu/fhir/laboratory/StructureDefinition/Observation-resultslab-eu-lab"
          ]
        },
        "performer": [
          {
            "display": "The Central European Lab"
          }
        ],
        "category": [
          {
            "coding": [
              {
                "system": "http://terminology.hl7.org/CodeSystem/observation-category",
                "code": "laboratory"
              }
            ]
          }
        ],
        "code": {
          "coding": [
            {
              "code": "2947-0",
              "system": "http://loinc.org",
              "display": "Sodium [Moles/volume] in Blood"
            }
          ],
          "text": "Sodium [Moles/volume] in Blood"
        },
        "valueQuantity": {
          "system": "http://unitsofmeasure.org",
          "value": 136.9,
          "unit": "mmol/L",
          "code": "mmol/L"
        },
        "referenceRange": [
          {
            "low": {
              "value": 135,
              "code": "mmol/L",
              "system": "http://unitsofmeasure.org"
            }
          },
          {
            "high": {
              "value": 145,
              "code": "mmol/L",
              "system": "http://unitsofmeasure.org"
            }
          }
        ],
        "text": {
          "status": "generated",
          "div": "<div xmlns=\"http://www.w3.org/1999/xhtml\"><table class=\"hl7__eu__lab__report\"><tr><th>Test</th><th>22-Sep-2017</th><th>Reference&#xA0;Range</th><th>Unit</th></tr><tr><td>Sodium [Moles/volume] in Blood</td><td>136.9</td><td>135 - 145</td><td></td><td>mmol/L</td></tr></table></div>"
        },
        "status": "final",
        "subject": {
          "reference": "urn:uuid:e9fcebf0-e4b3-4b69-a260-2a40b15934fb",
          "display": "Victor Lagarde"
        },
        "effectiveDateTime": "2017-09-22T04:48:18Z",
        "specimen": {
          "reference": "urn:uuid:36e67531-651d-4445-ae39-6dc03b76ef50"
        }
      }
    },
    {
      "fullUrl": "urn:uuid:a24a037f-5fbc-424c-b16f-de29dd713a53",
      "resource": {
        "resourceType": "Observation",
        "id": "a24a037f-5fbc-424c-b16f-de29dd713a53",
        "meta": {
          "profile": [
            "http://hl7.eu/fhir/laboratory/StructureDefinition/Observation-resultslab-eu-lab"
          ]
        },
        "performer": [
          {
            "display": "The Central European Lab"
          }
        ],
        "category": [
          {
            "coding": [
              {
                "system": "http://terminology.hl7.org/CodeSystem/observation-category",
                "code": "laboratory"
              }
            ]
          }
        ],
        "code": {
          "coding": [
            {
              "code": "6298-4",
              "system": "http://loinc.org",
              "display": "Potassium [Moles/volume] in Blood"
            }
          ],
          "text": "Potassium [Moles/volume] in Blood"
        },
        "valueQuantity": {
          "system": "http://unitsofmeasure.org",
          "value": 4.5,
          "unit": "mmol/L",
          "code": "mmol/L"
        },
        "referenceRange": [
          {
            "low": {
              "value": 3.5,
              "code": "mmol/L",
              "system": "http://unitsofmeasure.org"
            }
          },
          {
            "high": {
              "value": 5.1,
              "code": "mmol/L",
              "system": "http://unitsofmeasure.org"
            }
          }
        ],
        "text": {
          "status": "generated",
          "div": "<div xmlns=\"http://www.w3.org/1999/xhtml\"><table class=\"hl7__eu__lab__report\"><tr><th>Test</th><th>22-Sep-2017</th><th>Reference&#xA0;Range</th><th>Unit</th></tr><tr><td>Potassium [Moles/volume] in Blood</td><td>4.5</td><td>3.5 - 5.1</td><td></td><td>mmol/L</td></tr></table></div>"
        },
        "status": "final",
        "subject": {
          "reference": "urn:uuid:e9fcebf0-e4b3-4b69-a260-2a40b15934fb",
          "display": "Victor Lagarde"
        },
        "effectiveDateTime": "2017-09-22T04:48:18Z",
        "specimen": {
          "reference": "urn:uuid:36e67531-651d-4445-ae39-6dc03b76ef50"
        }
      }
    },
    {
      "fullUrl": "urn:uuid:f831000b-3aab-4465-82ef-a3e7baf37d03",
      "resource": {
        "resourceType": "Observation",
        "id": "f831000b-3aab-4465-82ef-a3e7baf37d03",
        "meta": {
          "profile": [
            "http://hl7.eu/fhir/laboratory/StructureDefinition/Observation-resultslab-eu-lab"
          ]
        },
        "performer": [
          {
            "display": "The Central European Lab"
          }
        ],
        "category": [
          {
            "coding": [
              {
                "system": "http://terminology.hl7.org/CodeSystem/observation-category",
                "code": "laboratory"
              }
            ]
          }
        ],
        "code": {
          "coding": [
            {
              "code": "2069-3",
              "system": "http://loinc.org",
              "display": "Chloride [Moles/volume] in Blood"
            }
          ],
          "text": "Chloride [Moles/volume] in Blood"
        },
        "valueQuantity": {
          "system": "http://unitsofmeasure.org",
          "value": 103.9,
          "unit": "mmol/L",
          "code": "mmol/L"
        },
        "referenceRange": [
          {
            "low": {
              "value": 98,
              "code": "mmol/L",
              "system": "http://unitsofmeasure.org"
            }
          },
          {
            "high": {
              "value": 108,
              "code": "mmol/L",
              "system": "http://unitsofmeasure.org"
            }
          }
        ],
        "text": {
          "status": "generated",
          "div": "<div xmlns=\"http://www.w3.org/1999/xhtml\"><table class=\"hl7__eu__lab__report\"><tr><th>Test</th><th>22-Sep-2017</th><th>Reference&#xA0;Range</th><th>Unit</th></tr><tr><td>Chloride [Moles/volume] in Blood</td><td>103.9</td><td>98 - 108</td><td></td><td>mmol/L</td></tr></table></div>"
        },
        "status": "final",
        "subject": {
          "reference": "urn:uuid:e9fcebf0-e4b3-4b69-a260-2a40b15934fb",
          "display": "Victor Lagarde"
        },
        "effectiveDateTime": "2017-09-22T04:48:18Z",
        "specimen": {
          "reference": "urn:uuid:36e67531-651d-4445-ae39-6dc03b76ef50"
        }
      }
    },
    {
      "fullUrl": "urn:uuid:11e2419c-b128-45e7-afb8-3b12bd29493d",
      "resource": {
        "resourceType": "Observation",
        "id": "11e2419c-b128-45e7-afb8-3b12bd29493d",
        "meta": {
          "profile": [
            "http://hl7.eu/fhir/laboratory/StructureDefinition/Observation-resultslab-eu-lab"
          ]
        },
        "performer": [
          {
            "display": "The Central European Lab"
          }
        ],
        "category": [
          {
            "coding": [
              {
                "system": "http://terminology.hl7.org/CodeSystem/observation-category",
                "code": "laboratory"
              }
            ]
          }
        ],
        "code": {
          "coding": [
            {
              "code": "20565-8",
              "system": "http://loinc.org",
              "display": "Carbon dioxide, total [Moles/volume] in Blood"
            }
          ],
          "text": "Carbon dioxide, total [Moles/volume] in Blood"
        },
        "valueQuantity": {
          "system": "http://unitsofmeasure.org",
          "value": 20,
          "unit": "mmol/L",
          "code": "mmol/L"
        },
        "referenceRange": [
          {
            "low": {
              "value": 22,
              "code": "mmol/L",
              "system": "http://unitsofmeasure.org"
            }
          },
          {
            "high": {
              "value": 29,
              "code": "mmol/L",
              "system": "http://unitsofmeasure.org"
            }
          }
        ],
        "interpretation": [
          {
            "coding": [
              {
                "code": "L",
                "system": "http://terminology.hl7.org/CodeSystem/v3-ObservationInterpretation",
                "display": "Low"
              }
            ]
          }
        ],
        "text": {
          "status": "generated",
          "div": "<div xmlns=\"http://www.w3.org/1999/xhtml\"><table class=\"hl7__eu__lab__report\"><tr><th>Test</th><th>22-Sep-2017</th><th>Reference&#xA0;Range</th><th>Unit</th></tr><tr><td>Carbon dioxide, total [Moles/volume] in Blood</td><td>20.0</td><td>22 - 29</td><td>L</td><td>mmol/L</td></tr></table></div>"
        },
        "status": "final",
        "subject": {
          "reference": "urn:uuid:e9fcebf0-e4b3-4b69-a260-2a40b15934fb",
          "display": "Victor Lagarde"
        },
        "effectiveDateTime": "2017-09-22T04:48:18Z",
        "specimen": {
          "reference": "urn:uuid:36e67531-651d-4445-ae39-6dc03b76ef50"
        }
      }
    },
    {
      "fullUrl": "urn:uuid:7aaf1f0a-b9bf-44bd-a83f-3b654072b456",
      "resource": {
        "resourceType": "Device",
        "id": "7aaf1f0a-b9bf-44bd-a83f-3b654072b456",
        "deviceName": [
          {
            "name": "SYNDERAI Synthetic Generator",
            "type": "manufacturer-name"
          }
        ],
        "version": [
          {
            "value": "5.0"
          }
        ],
        "text": {
          "status": "generated",
          "div": "<div xmlns=\"http://www.w3.org/1999/xhtml\">SYNDERAI Synthetic Generator v5.0</div>"
        },
        "status": "active\"",
        "distinctIdentifier": "synderai-generator-50",
        "manufacturer": "SYNDERAI Project"
      }
    },
    {
      "fullUrl": "urn:uuid:519fff12-e8c4-4f7c-bcc3-f55838f7df39",
      "resource": {
        "resourceType": "Provenance",
        "id": "519fff12-e8c4-4f7c-bcc3-f55838f7df39",
        "target": [
          {
            "reference": "Patient/e9fcebf0-e4b3-4b69-a260-2a40b15934fb"
          },
          {
            "reference": "Bundle/bf38eb17-3810-4dbd-a713-40c9e0b7bd83"
          },
          {
            "reference": "Composition/b4cd90e2-6275-4abf-bdde-ede85a799493"
          },
          {
            "reference": "PractitionerRole/9d95be2b-f128-4efa-981b-2da2a70b1c14"
          },
          {
            "reference": "Practitioner/1ff71ea4-9d4f-4d98-aa7c-c9eb7b852215"
          },
          {
            "reference": "PractitionerRole/e1a3d6c4-0840-4e1e-9334-b0edbc2c6f20"
          },
          {
            "reference": "Organization/00624637-303a-4ea9-bfd8-7fc255a58f8a"
          }
        ],
        "activity": {
          "text": "Synthetic Example Data Generation"
        },
        "policy": [
          "https://synderai.net/synderai-synthetic-data-policy"
        ],
        "agent": [
          {
            "type": {
              "text": "author"
            },
            "who": {
              "reference": "Device/7aaf1f0a-b9bf-44bd-a83f-3b654072b456"
            }
          }
        ],
        "reason": [
          {
            "text": "Interoperability Testing and Training (non-clinical use)"
          }
        ],
        "text": {
          "status": "generated",
          "div": "<div xmlns=\"http://www.w3.org/1999/xhtml\">Provenance for SYNDERAI Synthetic Example Data Resource</div>"
        },
        "recorded": "2017-09-22T06:48:18Z"
      }
    },
    {
      "fullUrl": "urn:uuid:9d95be2b-f128-4efa-981b-2da2a70b1c14",
      "resource": {
        "resourceType": "PractitionerRole",
        "id": "9d95be2b-f128-4efa-981b-2da2a70b1c14",
        "meta": {
          "profile": [
            "http://hl7.eu/fhir/base/StructureDefinition/practitionerRole-eu"
          ]
        },
        "text": {
          "status": "generated",
          "div": "<div xmlns=\"http://www.w3.org/1999/xhtml\">Laboratory Role Id: 9d95be2b-f128-4efa-981b-2da2a70b1c14</div>"
        },
        "practitioner": {
          "reference": "urn:uuid:1ff71ea4-9d4f-4d98-aa7c-c9eb7b852215"
        }
      }
    },
    {
      "fullUrl": "urn:uuid:1ff71ea4-9d4f-4d98-aa7c-c9eb7b852215",
      "resource": {
        "resourceType": "Practitioner",
        "id": "1ff71ea4-9d4f-4d98-aa7c-c9eb7b852215",
        "meta": {
          "profile": [
            "http://hl7.eu/fhir/base/StructureDefinition/practitioner-eu"
          ]
        },
        "identifier": [
          {
            "assigner": {
              "display": "HL7 Europe"
            },
            "system": "urn:oid:2.16.840.1.113883.2.51.999",
            "value": "05d3ff2a-c421-420c-87e4-f73a6913d8b8"
          }
        ],
        "name": [
          {
            "prefix": [
              "dr"
            ],
            "given": [
              "Ex"
            ],
            "family": "Ample"
          }
        ],
        "address": [
          {
            "line": [
              "Laboratoire Central Européenne",
              "Boulevard du Jardin Botanique 32"
            ],
            "postalCode": "1000",
            "city": "Brussels",
            "country": "Belgium"
          }
        ],
        "text": {
          "status": "generated",
          "div": "<div xmlns=\"http://www.w3.org/1999/xhtml\">Laboratory: Laboratoire Central Européenne, 1000 Brussels, Belgium</div>"
        }
      }
    }
  ],
  "type": "document",
  "timestamp": "2017-09-22T06:48:18Z"
}
