{
  "resourceType": "Bundle",
  "id": "8c333794-623c-4450-b7b9-077d267568f0",
  "meta": {
    "profile": [
      "http://hl7.eu/fhir/laboratory/StructureDefinition/Bundle-eu-lab"
    ]
  },
  "identifier": {
    "assigner": {
      "display": "HL7 Europe"
    },
    "system": "urn:oid:2.16.840.1.113883.2.51.999",
    "value": "88011b1b-7402-4dad-a1df-fe4c133563d4"
  },
  "entry": [
    {
      "fullUrl": "urn:uuid:8fa42840-bfd4-410f-bc90-8da5eacefbee",
      "resource": {
        "resourceType": "Composition",
        "id": "8fa42840-bfd4-410f-bc90-8da5eacefbee",
        "meta": {
          "profile": [
            "http://hl7.eu/fhir/laboratory/StructureDefinition/Composition-eu-lab"
          ]
        },
        "identifier": {
          "assigner": {
            "display": "HL7 Europe"
          },
          "system": "urn:oid:2.16.840.1.113883.2.51.999",
          "value": "d6981b8b-f2f3-4694-b8c9-7dc5a48619f0"
        },
        "author": [
          {
            "reference": "urn:uuid:07e767cb-8582-47e2-af95-ba4e76ba7f36"
          }
        ],
        "category": [
          {
            "coding": [
              {
                "code": "26436-6",
                "system": "http://loinc.org",
                "display": "Laboratory studies (set)"
              }
            ]
          }
        ],
        "type": {
          "coding": [
            {
              "code": "11502-2",
              "system": "http://loinc.org",
              "display": "Laboratory report"
            }
          ],
          "text": "Laboratory Report"
        },
        "section": [
          {
            "code": {
              "coding": [
                {
                  "code": "26436-6",
                  "system": "http://loinc.org",
                  "display": "Laboratory studies (set)"
                }
              ],
              "text": "Laboratory studies"
            },
            "section": [
              {
                "code": {
                  "coding": [
                    {
                      "code": "$18719-5",
                      "system": "http://loinc.org",
                      "display": "Chemistry studies (set)"
                    }
                  ],
                  "text": "Chemistry"
                },
                "entry": [
                  {
                    "reference": "urn:uuid:fd7193f1-a4fe-41ad-a282-744ce9863eb7"
                  },
                  {
                    "reference": "urn:uuid:4077a814-91d1-4b18-bc49-816fd0170a71"
                  },
                  {
                    "reference": "urn:uuid:a4c79298-5a70-44ea-8a43-557978dc15bc"
                  },
                  {
                    "reference": "urn:uuid:30a07ea2-4431-4f2a-9a4c-65bacbdc8307"
                  },
                  {
                    "reference": "urn:uuid:dc468e28-326d-47b4-a40c-65af4e859876"
                  },
                  {
                    "reference": "urn:uuid:eb2681b9-fc63-4484-bf17-66a1a39b51cf"
                  },
                  {
                    "reference": "urn:uuid:6b0fd1ce-bbdd-45f4-860d-bcea4ab95494"
                  },
                  {
                    "reference": "urn:uuid:3dd18286-ebad-47df-98dc-6a49017c2709"
                  },
                  {
                    "reference": "urn:uuid:00ef4103-b968-48b0-bf79-069060062585"
                  },
                  {
                    "reference": "urn:uuid:b2862b8f-a372-4b9d-9400-654724ffc17c"
                  },
                  {
                    "reference": "urn:uuid:2c18f097-9b85-41e0-8451-b65ec52ccb57"
                  },
                  {
                    "reference": "urn:uuid:34e14efc-1e41-4f71-bee8-d9ed88377e2e"
                  },
                  {
                    "reference": "urn:uuid:d487f6f0-d4ad-4271-b31f-ade46c988e78"
                  },
                  {
                    "reference": "urn:uuid:50d3ce68-5e1b-43df-a38e-a69d0a5fc383"
                  },
                  {
                    "reference": "urn:uuid:7ca8b29d-dbe3-41f7-a54a-0e7f871a7ea6"
                  },
                  {
                    "reference": "urn:uuid:12bb07a9-1f22-41d7-a945-413dca9c1de0"
                  }
                ],
                "text": {
                  "status": "generated",
                  "div": "<div xmlns=\"http://www.w3.org/1999/xhtml\"><h3>Chemistry</h3><table class=\"hl7__eu__lab__report\"><thead><tr><th>Test</th><th>24-JAN-2018</th><th>Reference&#xA0;Range</th><th>Unit</th></tr></thead><tbody><tr><td>Glucose [Mass/volume] in Blood</td><td>78.0</td><td>70 - 140</td><td>mg/dL</td></tr><tr><td>Urea nitrogen [Mass/volume] in Blood</td><td>9.1</td><td>7 - 30</td><td>mg/dL</td></tr><tr><td>Creatinine [Mass/volume] in Blood</td><td><strong>3.4 H</strong></td><td>0.5 - 1.3</td><td>mg/dL</td></tr><tr><td>Calcium [Mass/volume] in Blood</td><td>9.7</td><td>8.6 - 10.2</td><td>mg/dL</td></tr><tr><td>Sodium [Moles/volume] in Blood</td><td>139.2</td><td>135 - 145</td><td>mmol/L</td></tr><tr><td>Potassium [Moles/volume] in Blood</td><td>4.6</td><td>3.5 - 5.1</td><td>mmol/L</td></tr><tr><td>Chloride [Moles/volume] in Blood</td><td>103.7</td><td>98 - 114</td><td>mmol/L</td></tr><tr><td>Carbon dioxide, total [Moles/volume] in Blood</td><td><strong>21.9 L</strong></td><td>22 - 32</td><td>mmol/L</td></tr><tr><td>Protein [Mass/volume] in Serum or Plasma</td><td>6.4</td><td>6 - 8.3</td><td>g/dL</td></tr><tr><td>Albumin [Mass/volume] in Serum or Plasma</td><td>5.1</td><td>3.5 - 5.5</td><td>g/dL</td></tr><tr><td>Globulin [Mass/volume] in Serum by calculation</td><td>3.2</td><td>2 - 3.5</td><td>g/L</td></tr><tr><td>Bilirubin.total [Mass/volume] in Serum or Plasma</td><td>0.6</td><td>0.3 - 1.2</td><td>mg/dL</td></tr><tr><td>Alkaline phosphatase [Enzymatic activity/volume] in Serum or Plasma</td><td><strong>25.2 L</strong></td><td>44 - 142</td><td>U/L</td></tr><tr><td>Alanine aminotransferase [Enzymatic activity/volume] in Serum or Plasma</td><td><strong>41.5 H</strong></td><td>7 - 40</td><td>U/L</td></tr><tr><td>Aspartate aminotransferase [Enzymatic activity/volume] in Serum or Plasma</td><td>32.9</td><td>10 - 40</td><td>U/L</td></tr><tr><td>Ketones [Presence] in Urine by Test strip</td><td>Urine ketone test = +++</td><td></td><td></td></tr></tbody></table></div>"
                },
                "title": "Chemistry"
              },
              {
                "code": {
                  "coding": [
                    {
                      "code": "$18729-4",
                      "system": "http://loinc.org",
                      "display": "Urinalysis studies (set)"
                    }
                  ],
                  "text": "Urinalysis"
                },
                "entry": [
                  {
                    "reference": "urn:uuid:ed333a8f-76f9-491b-8181-6b58de4db31c"
                  },
                  {
                    "reference": "urn:uuid:7e7c304d-bae4-4566-b3cf-32857eb6d3b1"
                  },
                  {
                    "reference": "urn:uuid:a431b4a5-5c2f-4edb-b7b4-363b57314c7f"
                  },
                  {
                    "reference": "urn:uuid:e2dd1a3a-c738-44a6-93db-4f43c6324d9a"
                  },
                  {
                    "reference": "urn:uuid:2a2fdcc8-f61e-4745-ae4d-22282451ffbf"
                  },
                  {
                    "reference": "urn:uuid:99ab30dc-58b8-4bfb-9342-1a0283921e1c"
                  },
                  {
                    "reference": "urn:uuid:39bd4a15-f3b7-46a2-8853-4bfb45966064"
                  },
                  {
                    "reference": "urn:uuid:d388304a-446d-490d-a125-e99ef08042fc"
                  },
                  {
                    "reference": "urn:uuid:2ded0ec6-926e-4cd1-a0ef-eadda9e98e54"
                  },
                  {
                    "reference": "urn:uuid:dd11e94b-d88a-47b0-91d6-997c69a4e825"
                  },
                  {
                    "reference": "urn:uuid:3e578a2f-8089-46bd-b8d9-d230eef65974"
                  },
                  {
                    "reference": "urn:uuid:94d418d2-fb9b-4b2c-9d0d-ced60abb0d28"
                  }
                ],
                "text": {
                  "status": "generated",
                  "div": "<div xmlns=\"http://www.w3.org/1999/xhtml\"><h3>Urinalysis</h3><table class=\"hl7__eu__lab__report\"><thead><tr><th>Test</th><th>24-JAN-2018</th><th>Reference&#xA0;Range</th><th>Unit</th></tr></thead><tbody><tr><td>Glucose [Mass/volume] in Urine by Test strip</td><td><strong>1.4 H</strong></td><td>0.8 - 0</td><td>mg/dL</td></tr><tr><td>Glucose [Presence] in Urine by Test strip</td><td>++</td><td></td><td></td></tr><tr><td>Bilirubin.total [Mass/volume] in Urine by Test strip</td><td>1.0</td><td>0 - 1.5</td><td>mg/dL</td></tr><tr><td>Bilirubin.total [Presence] in Urine by Test strip</td><td>Finding of bilirubin in urine</td><td></td><td></td></tr><tr><td>Ketones [Mass/volume] in Urine by Test strip</td><td><strong>19.2 H</strong></td><td>0 - 8</td><td>mg/dL</td></tr><tr><td>Specific gravity of Urine by Test strip</td><td><strong>1.0 L</strong></td><td>1.01 - 1.03</td><td>{nominal}</td></tr><tr><td>pH of Urine by Test strip</td><td>6.8</td><td>4.6 - 7.5</td><td>pH</td></tr><tr><td>Protein [Mass/volume] in Urine by Test strip</td><td><strong>273.1 H</strong></td><td>0 - 14</td><td>mg/dL</td></tr><tr><td>Protein [Presence] in Urine by Test strip</td><td>Urine protein test = +++</td><td></td><td></td></tr><tr><td>Nitrite [Presence] in Urine by Test strip</td><td>Urine nitrite negative</td><td></td><td></td></tr><tr><td>Hemoglobin [Presence] in Urine by Test strip</td><td>Urine blood test = negative</td><td></td><td></td></tr><tr><td>Leukocyte esterase [Presence] in Urine by Test strip</td><td>Urine leukocyte test negative</td><td></td><td></td></tr></tbody></table></div>"
                },
                "title": "Urinalysis"
              },
              {
                "code": {
                  "coding": [
                    {
                      "code": "$LP7846-1",
                      "system": "http://loinc.org",
                      "display": "Specimen information"
                    }
                  ],
                  "text": "Specimen information"
                },
                "entry": [
                  {
                    "reference": "urn:uuid:925e7492-6d23-4041-a9b0-f0a1f8e03aa7"
                  },
                  {
                    "reference": "urn:uuid:1c0d3e17-b4fc-4058-9639-e53808e09dd0"
                  },
                  {
                    "reference": "urn:uuid:6a011ef9-2aab-4f07-bf5d-2272096081b3"
                  },
                  {
                    "reference": "urn:uuid:2597eb66-1730-4dc2-91b1-b56384c55c50"
                  }
                ],
                "text": {
                  "status": "generated",
                  "div": "<div xmlns=\"http://www.w3.org/1999/xhtml\"><h3>Specimen information</h3><table class=\"hl7__eu__lab__report\"><thead><tr><th>Test</th><th>24-JAN-2018</th><th>Specimen</th><th></th></tr></thead><tbody><tr><td>Appearance of Urine</td><td>Cloudy urine</td><td>Urine</td><td></td></tr><tr><td>Odor of Urine</td><td>Urine smell ammoniacal</td><td>Urine</td><td></td></tr><tr><td>Clarity of Urine</td><td>Translucent</td><td>Urine</td><td></td></tr><tr><td>Color of Urine</td><td>Brown color</td><td>Urine</td><td></td></tr></tbody></table></div>"
                },
                "title": "Specimen information"
              }
            ],
            "title": "Laboratory Report"
          },
          {
            "text": {
              "status": "generated",
              "div": "<div xmlns=\"http://www.w3.org/1999/xhtml\"><h3>Annotation</h3><table class=\"hl7__eu__lab__report\"><tr><th>Conclusion and Recommendations based on this report and previous findings known to us</th></tr><tr><td>The patient shows markedly elevated serum creatinine, indicating significant renal impairment, with associated proteinuria, glycosuria, and ketonuria on urinalysis. Mildly elevated ALT and low alkaline phosphatase are noted. Urine is cloudy, brown, and has low specific gravity. No evidence of urinary infection. Findings suggest acute or chronic kidney dysfunction, possible nephrotic syndrome, and poor glycemic control. Clinical correlation and further nephrological and diabetic evaluation are recommended.</td></tr></table></div>"
            },
            "code": {
              "coding": [
                {
                  "system": "http://loinc.org",
                  "code": "48767-8",
                  "display": "Annotation comment"
                }
              ]
            },
            "title": "Annotation comment"
          }
        ],
        "status": "final",
        "subject": {
          "reference": "urn:uuid:70a706e9-94be-498e-8640-88ef771390f0",
          "display": "Maria Nohlmans"
        },
        "date": "2018-01-24T14:10:39Z",
        "title": "Laboratory Report",
        "confidentiality": "N"
      }
    },
    {
      "fullUrl": "urn:uuid:e8b29b9d-bffc-4987-8943-ad368ecf1242",
      "resource": {
        "resourceType": "DiagnosticReport",
        "id": "e8b29b9d-bffc-4987-8943-ad368ecf1242",
        "meta": {
          "profile": [
            "http://hl7.eu/fhir/laboratory/StructureDefinition/DiagnosticReport-eu-lab"
          ]
        },
        "identifier": [
          {
            "assigner": {
              "display": "HL7 Europe"
            },
            "system": "urn:oid:2.16.840.1.113883.2.51.999",
            "value": "c64ee3ec-6b4f-46dc-b072-4b0d47437494"
          }
        ],
        "extension": [
          {
            "url": "http://hl7.org/fhir/5.0/StructureDefinition/extension-DiagnosticReport.composition",
            "valueReference": {
              "reference": "urn:uuid:d6981b8b-f2f3-4694-b8c9-7dc5a48619f0"
            }
          }
        ],
        "category": [
          {
            "coding": [
              {
                "code": "26436-6",
                "system": "http://loinc.org",
                "display": "Laboratory studies (set)"
              }
            ]
          }
        ],
        "specimen": [
          {
            "reference": "urn:uuid:3d4d7df9-b093-40b6-99e8-11c407156866"
          },
          {
            "reference": "urn:uuid:f1bdb2dc-ba26-4db4-81bc-9c19d5fb1595"
          },
          {
            "reference": "urn:uuid:7ea4351c-838c-423b-bd47-cea9cfeb9f91"
          },
          {
            "reference": "urn:uuid:2a6098e2-3190-4c0c-917f-c175a14f5c8e"
          }
        ],
        "result": [
          {
            "reference": "urn:uuid:fd7193f1-a4fe-41ad-a282-744ce9863eb7"
          },
          {
            "reference": "urn:uuid:4077a814-91d1-4b18-bc49-816fd0170a71"
          },
          {
            "reference": "urn:uuid:a4c79298-5a70-44ea-8a43-557978dc15bc"
          },
          {
            "reference": "urn:uuid:30a07ea2-4431-4f2a-9a4c-65bacbdc8307"
          },
          {
            "reference": "urn:uuid:dc468e28-326d-47b4-a40c-65af4e859876"
          },
          {
            "reference": "urn:uuid:eb2681b9-fc63-4484-bf17-66a1a39b51cf"
          },
          {
            "reference": "urn:uuid:6b0fd1ce-bbdd-45f4-860d-bcea4ab95494"
          },
          {
            "reference": "urn:uuid:3dd18286-ebad-47df-98dc-6a49017c2709"
          },
          {
            "reference": "urn:uuid:00ef4103-b968-48b0-bf79-069060062585"
          },
          {
            "reference": "urn:uuid:b2862b8f-a372-4b9d-9400-654724ffc17c"
          },
          {
            "reference": "urn:uuid:2c18f097-9b85-41e0-8451-b65ec52ccb57"
          },
          {
            "reference": "urn:uuid:34e14efc-1e41-4f71-bee8-d9ed88377e2e"
          },
          {
            "reference": "urn:uuid:d487f6f0-d4ad-4271-b31f-ade46c988e78"
          },
          {
            "reference": "urn:uuid:50d3ce68-5e1b-43df-a38e-a69d0a5fc383"
          },
          {
            "reference": "urn:uuid:7ca8b29d-dbe3-41f7-a54a-0e7f871a7ea6"
          },
          {
            "reference": "urn:uuid:925e7492-6d23-4041-a9b0-f0a1f8e03aa7"
          },
          {
            "reference": "urn:uuid:1c0d3e17-b4fc-4058-9639-e53808e09dd0"
          },
          {
            "reference": "urn:uuid:6a011ef9-2aab-4f07-bf5d-2272096081b3"
          },
          {
            "reference": "urn:uuid:2597eb66-1730-4dc2-91b1-b56384c55c50"
          },
          {
            "reference": "urn:uuid:ed333a8f-76f9-491b-8181-6b58de4db31c"
          },
          {
            "reference": "urn:uuid:7e7c304d-bae4-4566-b3cf-32857eb6d3b1"
          },
          {
            "reference": "urn:uuid:a431b4a5-5c2f-4edb-b7b4-363b57314c7f"
          },
          {
            "reference": "urn:uuid:e2dd1a3a-c738-44a6-93db-4f43c6324d9a"
          },
          {
            "reference": "urn:uuid:2a2fdcc8-f61e-4745-ae4d-22282451ffbf"
          },
          {
            "reference": "urn:uuid:12bb07a9-1f22-41d7-a945-413dca9c1de0"
          },
          {
            "reference": "urn:uuid:99ab30dc-58b8-4bfb-9342-1a0283921e1c"
          },
          {
            "reference": "urn:uuid:39bd4a15-f3b7-46a2-8853-4bfb45966064"
          },
          {
            "reference": "urn:uuid:d388304a-446d-490d-a125-e99ef08042fc"
          },
          {
            "reference": "urn:uuid:2ded0ec6-926e-4cd1-a0ef-eadda9e98e54"
          },
          {
            "reference": "urn:uuid:dd11e94b-d88a-47b0-91d6-997c69a4e825"
          },
          {
            "reference": "urn:uuid:3e578a2f-8089-46bd-b8d9-d230eef65974"
          },
          {
            "reference": "urn:uuid:94d418d2-fb9b-4b2c-9d0d-ced60abb0d28"
          }
        ],
        "status": "registered",
        "code": {
          "coding": [
            {
              "code": "11502-2",
              "system": "http://loinc.org",
              "display": "Laboratory report"
            }
          ]
        },
        "subject": {
          "reference": "urn:uuid:70a706e9-94be-498e-8640-88ef771390f0",
          "display": "Maria Nohlmans"
        }
      }
    },
    {
      "fullUrl": "urn:uuid:70a706e9-94be-498e-8640-88ef771390f0",
      "resource": {
        "resourceType": "Patient",
        "id": "70a706e9-94be-498e-8640-88ef771390f0",
        "meta": {
          "security": [
            {
              "system": "http://terminology.hl7.org/CodeSystem/v3-ActReason",
              "code": "HTEST"
            },
            {
              "system": "http://terminology.hl7.org/CodeSystem/v3-ActReason",
              "code": "TRAIN"
            }
          ],
          "tag": [
            {
              "system": "https://synderai.net/fhir/CodeSystem/tags",
              "code": "synthetic",
              "display": "SYNDERAI Synthetic data"
            }
          ],
          "profile": [
            "http://hl7.eu/fhir/base/StructureDefinition/patient-eu-core"
          ]
        },
        "identifier": [
          {
            "type": {
              "coding": [
                {
                  "code": "PT",
                  "system": "http://terminology.hl7.org/CodeSystem/v2-0203"
                }
              ]
            },
            "system": "http://ec.europa.eu/identifier/eci",
            "value": "6886-506417-1"
          },
          {
            "type": {
              "coding": [
                {
                  "code": "MR",
                  "system": "http://terminology.hl7.org/CodeSystem/v2-0203"
                }
              ]
            },
            "system": "http://local.setting.eu/identifier",
            "value": "2cb21ed6-b617-b1f3-2290-589a710de5ee"
          }
        ],
        "name": [
          {
            "family": "Nohlmans"
          },
          {
            "given": [
              "Maria"
            ]
          },
          {
            "text": "Maria Nohlmans"
          }
        ],
        "address": [
          {
            "line": [
              "Alfons-Wulff-Weg 1"
            ],
            "use": "home",
            "type": "physical",
            "postalCode": "25813",
            "city": "Husum",
            "country": "Germany"
          }
        ],
        "telecom": [
          {
            "system": "phone",
            "value": "+49(0)1911 105501"
          }
        ],
        "extension": [
          {
            "url": "http://hl7.org/fhir/StructureDefinition/patient-nationality",
            "valueCodeableConcept": {
              "coding": [
                {
                  "code": "DE",
                  "system": "http://hl7.org/fhir/ValueSet/country"
                }
              ]
            }
          }
        ],
        "text": {
          "status": "generated",
          "div": "<div xmlns=\"http://www.w3.org/1999/xhtml\"><table class=\"hl7__ips\"><tr><td>Maria Nohlmans</td><td>female</td><td>11-Jun-1947</td></tr></table></div>"
        },
        "gender": "female",
        "birthDate": "1947-06-11"
      }
    },
    {
      "fullUrl": "urn:uuid:376dba8b-ddb3-4204-ba3b-37b0ebaba6ef",
      "resource": {
        "resourceType": "ServiceRequest",
        "id": "376dba8b-ddb3-4204-ba3b-37b0ebaba6ef",
        "meta": {
          "profile": [
            "http://hl7.eu/fhir/laboratory/StructureDefinition/ServiceRequest-eu-lab"
          ]
        },
        "identifier": [
          {
            "system": "http://example.org",
            "value": "01d3b92e-65ba-412c-964b-7501cd9715f9"
          }
        ],
        "specimen": [
          {
            "reference": "urn:uuid:3d4d7df9-b093-40b6-99e8-11c407156866"
          },
          {
            "reference": "urn:uuid:f1bdb2dc-ba26-4db4-81bc-9c19d5fb1595"
          },
          {
            "reference": "urn:uuid:7ea4351c-838c-423b-bd47-cea9cfeb9f91"
          },
          {
            "reference": "urn:uuid:2a6098e2-3190-4c0c-917f-c175a14f5c8e"
          }
        ],
        "reasonCode": [
          {
            "coding": [
              {
                "code": "401314000",
                "system": "http://snomed.info/sct",
                "display": "Acute non-ST segment elevation myocardial infarction"
              }
            ]
          },
          {
            "coding": [
              {
                "code": "157141000119108",
                "system": "http://snomed.info/sct",
                "display": "Proteinuria due to type 2 diabetes mellitus"
              }
            ]
          },
          {
            "coding": [
              {
                "code": "237602007",
                "system": "http://snomed.info/sct",
                "display": "Metabolic syndrome X"
              }
            ]
          },
          {
            "coding": [
              {
                "code": "90781000119102",
                "system": "http://snomed.info/sct",
                "display": "Microalbuminuria due to type 2 diabetes mellitus"
              }
            ]
          },
          {
            "coding": [
              {
                "code": "127013003",
                "system": "http://snomed.info/sct",
                "display": "Disorder of kidney due to diabetes mellitus"
              }
            ]
          },
          {
            "coding": [
              {
                "code": "59621000",
                "system": "http://snomed.info/sct",
                "display": "Essential hypertension"
              }
            ]
          },
          {
            "coding": [
              {
                "code": "271737000",
                "system": "http://snomed.info/sct",
                "display": "Anemia"
              }
            ]
          },
          {
            "coding": [
              {
                "code": "15777000",
                "system": "http://snomed.info/sct",
                "display": "Prediabetes"
              }
            ]
          }
        ],
        "status": "active",
        "intent": "order",
        "code": {
          "coding": [
            {
              "code": "108252007",
              "system": "http://snomed.info/sct",
              "display": "Laboratory procedure"
            }
          ]
        },
        "subject": {
          "reference": "urn:uuid:70a706e9-94be-498e-8640-88ef771390f0",
          "display": "Maria Nohlmans"
        },
        "requester": {
          "reference": "urn:uuid:904bf6dc-9e94-43e2-b7ec-16c60d5d7070"
        }
      }
    },
    {
      "fullUrl": "urn:uuid:904bf6dc-9e94-43e2-b7ec-16c60d5d7070",
      "resource": {
        "resourceType": "PractitionerRole",
        "id": "904bf6dc-9e94-43e2-b7ec-16c60d5d7070",
        "meta": {
          "profile": [
            "http://hl7.eu/fhir/base/StructureDefinition/practitionerRole-eu"
          ]
        },
        "text": {
          "status": "generated",
          "div": "<div xmlns=\"http://www.w3.org/1999/xhtml\">Provider Role Id: 904bf6dc-9e94-43e2-b7ec-16c60d5d7070</div>"
        },
        "organization": {
          "reference": "urn:uuid:1513b76d-b147-4dc9-bb3e-8c96666f01f4"
        }
      }
    },
    {
      "fullUrl": "urn:uuid:1513b76d-b147-4dc9-bb3e-8c96666f01f4",
      "resource": {
        "resourceType": "Organization",
        "id": "1513b76d-b147-4dc9-bb3e-8c96666f01f4",
        "meta": {
          "profile": [
            "http://hl7.eu/fhir/base/StructureDefinition/organization-eu"
          ]
        },
        "identifier": [
          {
            "assigner": {
              "display": "HL7 Europe"
            },
            "system": "urn:oid:2.16.840.1.113883.2.51.999",
            "value": "f4b2879d-9571-4c01-8364-9ab96c950dc0"
          }
        ],
        "address": [
          {
            "line": [
              "Brinckmannstraße 35"
            ],
            "city": "Husum",
            "postalCode": "25813",
            "country": "Germany"
          }
        ],
        "text": {
          "status": "generated",
          "div": "<div xmlns=\"http://www.w3.org/1999/xhtml\">Provider Organization: Dr. Wolfram Hussels Kieferorthopäde</div>"
        },
        "name": "Dr. Wolfram Hussels Kieferorthopäde"
      }
    },
    {
      "fullUrl": "urn:uuid:3d4d7df9-b093-40b6-99e8-11c407156866",
      "resource": {
        "resourceType": "Specimen",
        "id": "3d4d7df9-b093-40b6-99e8-11c407156866",
        "meta": {
          "profile": [
            "http://hl7.eu/fhir/laboratory/StructureDefinition/Specimen-eu-lab"
          ]
        },
        "collection": {
          "collectedDateTime": "2018-01-24"
        },
        "text": {
          "status": "generated",
          "div": "<div xmlns=\"http://www.w3.org/1999/xhtml\"><table class=\"hl7__eu__lab__report\"><tr><th>Specimen</th><th>Collection Date</th></tr><tr><td>Whole blood specimen (specimen)</td><td><span class=\"nb\">24-Jan-2018</span></td></tr></table></div>"
        },
        "type": {
          "coding": [
            {
              "code": "258580003",
              "system": "http://snomed.info/sct",
              "display": "Whole blood specimen (specimen)"
            }
          ]
        }
      }
    },
    {
      "fullUrl": "urn:uuid:f1bdb2dc-ba26-4db4-81bc-9c19d5fb1595",
      "resource": {
        "resourceType": "Specimen",
        "id": "f1bdb2dc-ba26-4db4-81bc-9c19d5fb1595",
        "meta": {
          "profile": [
            "http://hl7.eu/fhir/laboratory/StructureDefinition/Specimen-eu-lab"
          ]
        },
        "collection": {
          "collectedDateTime": "2018-01-24"
        },
        "text": {
          "status": "generated",
          "div": "<div xmlns=\"http://www.w3.org/1999/xhtml\"><table class=\"hl7__eu__lab__report\"><tr><th>Specimen</th><th>Collection Date</th></tr><tr><td>Acellular blood (serum or plasma) specimen</td><td><span class=\"nb\">24-Jan-2018</span></td></tr></table></div>"
        },
        "type": {
          "coding": [
            {
              "code": "122592007",
              "system": "http://snomed.info/sct",
              "display": "Acellular blood (serum or plasma) specimen"
            }
          ]
        }
      }
    },
    {
      "fullUrl": "urn:uuid:7ea4351c-838c-423b-bd47-cea9cfeb9f91",
      "resource": {
        "resourceType": "Specimen",
        "id": "7ea4351c-838c-423b-bd47-cea9cfeb9f91",
        "meta": {
          "profile": [
            "http://hl7.eu/fhir/laboratory/StructureDefinition/Specimen-eu-lab"
          ]
        },
        "collection": {
          "collectedDateTime": "2018-01-24"
        },
        "text": {
          "status": "generated",
          "div": "<div xmlns=\"http://www.w3.org/1999/xhtml\"><table class=\"hl7__eu__lab__report\"><tr><th>Specimen</th><th>Collection Date</th></tr><tr><td>Serum specimen</td><td><span class=\"nb\">24-Jan-2018</span></td></tr></table></div>"
        },
        "type": {
          "coding": [
            {
              "code": "119364003",
              "system": "http://snomed.info/sct",
              "display": "Serum specimen"
            }
          ]
        }
      }
    },
    {
      "fullUrl": "urn:uuid:2a6098e2-3190-4c0c-917f-c175a14f5c8e",
      "resource": {
        "resourceType": "Specimen",
        "id": "2a6098e2-3190-4c0c-917f-c175a14f5c8e",
        "meta": {
          "profile": [
            "http://hl7.eu/fhir/laboratory/StructureDefinition/Specimen-eu-lab"
          ]
        },
        "collection": {
          "collectedDateTime": "2018-01-24"
        },
        "text": {
          "status": "generated",
          "div": "<div xmlns=\"http://www.w3.org/1999/xhtml\"><table class=\"hl7__eu__lab__report\"><tr><th>Specimen</th><th>Collection Date</th></tr><tr><td>Urine specimen</td><td><span class=\"nb\">24-Jan-2018</span></td></tr></table></div>"
        },
        "type": {
          "coding": [
            {
              "code": "122575003",
              "system": "http://snomed.info/sct",
              "display": "Urine specimen"
            }
          ]
        }
      }
    },
    {
      "fullUrl": "urn:uuid:fd7193f1-a4fe-41ad-a282-744ce9863eb7",
      "resource": {
        "resourceType": "Observation",
        "id": "fd7193f1-a4fe-41ad-a282-744ce9863eb7",
        "meta": {
          "profile": [
            "http://hl7.eu/fhir/laboratory/StructureDefinition/Observation-resultslab-eu-lab"
          ]
        },
        "performer": [
          {
            "display": "The Central European Lab"
          }
        ],
        "category": [
          {
            "coding": [
              {
                "system": "http://terminology.hl7.org/CodeSystem/observation-category",
                "code": "laboratory"
              }
            ]
          }
        ],
        "code": {
          "coding": [
            {
              "code": "2339-0",
              "system": "http://loinc.org",
              "display": "Glucose [Mass/volume] in Blood"
            }
          ],
          "text": "Glucose [Mass/volume] in Blood"
        },
        "valueQuantity": {
          "system": "http://unitsofmeasure.org",
          "value": 78,
          "unit": "mg/dL",
          "code": "mg/dL"
        },
        "referenceRange": [
          {
            "low": {
              "value": 70,
              "code": "mg/dL",
              "system": "http://unitsofmeasure.org"
            }
          },
          {
            "high": {
              "value": 140,
              "code": "mg/dL",
              "system": "http://unitsofmeasure.org"
            }
          }
        ],
        "text": {
          "status": "generated",
          "div": "<div xmlns=\"http://www.w3.org/1999/xhtml\"><table class=\"hl7__eu__lab__report\"><tr><th>Test</th><th>24-Jan-2018</th><th>Reference&#xA0;Range</th><th>Unit</th></tr><tr><td>Glucose [Mass/volume] in Blood</td><td>78.0</td><td>70 - 140</td><td></td><td>mg/dL</td></tr></table></div>"
        },
        "status": "final",
        "subject": {
          "reference": "urn:uuid:70a706e9-94be-498e-8640-88ef771390f0",
          "display": "Maria Nohlmans"
        },
        "effectiveDateTime": "2018-01-24T13:10:39Z",
        "specimen": {
          "reference": "urn:uuid:3d4d7df9-b093-40b6-99e8-11c407156866"
        }
      }
    },
    {
      "fullUrl": "urn:uuid:4077a814-91d1-4b18-bc49-816fd0170a71",
      "resource": {
        "resourceType": "Observation",
        "id": "4077a814-91d1-4b18-bc49-816fd0170a71",
        "meta": {
          "profile": [
            "http://hl7.eu/fhir/laboratory/StructureDefinition/Observation-resultslab-eu-lab"
          ]
        },
        "performer": [
          {
            "display": "The Central European Lab"
          }
        ],
        "category": [
          {
            "coding": [
              {
                "system": "http://terminology.hl7.org/CodeSystem/observation-category",
                "code": "laboratory"
              }
            ]
          }
        ],
        "code": {
          "coding": [
            {
              "code": "6299-2",
              "system": "http://loinc.org",
              "display": "Urea nitrogen [Mass/volume] in Blood"
            }
          ],
          "text": "Urea nitrogen [Mass/volume] in Blood"
        },
        "valueQuantity": {
          "system": "http://unitsofmeasure.org",
          "value": 9.1,
          "unit": "mg/dL",
          "code": "mg/dL"
        },
        "referenceRange": [
          {
            "low": {
              "value": 7,
              "code": "mg/dL",
              "system": "http://unitsofmeasure.org"
            }
          },
          {
            "high": {
              "value": 30,
              "code": "mg/dL",
              "system": "http://unitsofmeasure.org"
            }
          }
        ],
        "text": {
          "status": "generated",
          "div": "<div xmlns=\"http://www.w3.org/1999/xhtml\"><table class=\"hl7__eu__lab__report\"><tr><th>Test</th><th>24-Jan-2018</th><th>Reference&#xA0;Range</th><th>Unit</th></tr><tr><td>Urea nitrogen [Mass/volume] in Blood</td><td>9.1</td><td>7 - 30</td><td></td><td>mg/dL</td></tr></table></div>"
        },
        "status": "final",
        "subject": {
          "reference": "urn:uuid:70a706e9-94be-498e-8640-88ef771390f0",
          "display": "Maria Nohlmans"
        },
        "effectiveDateTime": "2018-01-24T13:10:39Z",
        "specimen": {
          "reference": "urn:uuid:3d4d7df9-b093-40b6-99e8-11c407156866"
        }
      }
    },
    {
      "fullUrl": "urn:uuid:a4c79298-5a70-44ea-8a43-557978dc15bc",
      "resource": {
        "resourceType": "Observation",
        "id": "a4c79298-5a70-44ea-8a43-557978dc15bc",
        "meta": {
          "profile": [
            "http://hl7.eu/fhir/laboratory/StructureDefinition/Observation-resultslab-eu-lab"
          ]
        },
        "performer": [
          {
            "display": "The Central European Lab"
          }
        ],
        "category": [
          {
            "coding": [
              {
                "system": "http://terminology.hl7.org/CodeSystem/observation-category",
                "code": "laboratory"
              }
            ]
          }
        ],
        "code": {
          "coding": [
            {
              "code": "38483-4",
              "system": "http://loinc.org",
              "display": "Creatinine [Mass/volume] in Blood"
            }
          ],
          "text": "Creatinine [Mass/volume] in Blood"
        },
        "valueQuantity": {
          "system": "http://unitsofmeasure.org",
          "value": 3.4,
          "unit": "mg/dL",
          "code": "mg/dL"
        },
        "referenceRange": [
          {
            "low": {
              "value": 0.5,
              "code": "mg/dL",
              "system": "http://unitsofmeasure.org"
            }
          },
          {
            "high": {
              "value": 1.3,
              "code": "mg/dL",
              "system": "http://unitsofmeasure.org"
            }
          }
        ],
        "interpretation": [
          {
            "coding": [
              {
                "code": "H",
                "system": "http://terminology.hl7.org/CodeSystem/v3-ObservationInterpretation",
                "display": "High"
              }
            ]
          }
        ],
        "text": {
          "status": "generated",
          "div": "<div xmlns=\"http://www.w3.org/1999/xhtml\"><table class=\"hl7__eu__lab__report\"><tr><th>Test</th><th>24-Jan-2018</th><th>Reference&#xA0;Range</th><th>Unit</th></tr><tr><td>Creatinine [Mass/volume] in Blood</td><td>3.4</td><td>0.5 - 1.3</td><td>H</td><td>mg/dL</td></tr></table></div>"
        },
        "status": "final",
        "subject": {
          "reference": "urn:uuid:70a706e9-94be-498e-8640-88ef771390f0",
          "display": "Maria Nohlmans"
        },
        "effectiveDateTime": "2018-01-24T13:10:39Z",
        "specimen": {
          "reference": "urn:uuid:3d4d7df9-b093-40b6-99e8-11c407156866"
        }
      }
    },
    {
      "fullUrl": "urn:uuid:30a07ea2-4431-4f2a-9a4c-65bacbdc8307",
      "resource": {
        "resourceType": "Observation",
        "id": "30a07ea2-4431-4f2a-9a4c-65bacbdc8307",
        "meta": {
          "profile": [
            "http://hl7.eu/fhir/laboratory/StructureDefinition/Observation-resultslab-eu-lab"
          ]
        },
        "performer": [
          {
            "display": "The Central European Lab"
          }
        ],
        "category": [
          {
            "coding": [
              {
                "system": "http://terminology.hl7.org/CodeSystem/observation-category",
                "code": "laboratory"
              }
            ]
          }
        ],
        "code": {
          "coding": [
            {
              "code": "49765-1",
              "system": "http://loinc.org",
              "display": "Calcium [Mass/volume] in Blood"
            }
          ],
          "text": "Calcium [Mass/volume] in Blood"
        },
        "valueQuantity": {
          "system": "http://unitsofmeasure.org",
          "value": 9.7,
          "unit": "mg/dL",
          "code": "mg/dL"
        },
        "referenceRange": [
          {
            "low": {
              "value": 8.6,
              "code": "mg/dL",
              "system": "http://unitsofmeasure.org"
            }
          },
          {
            "high": {
              "value": 10.2,
              "code": "mg/dL",
              "system": "http://unitsofmeasure.org"
            }
          }
        ],
        "text": {
          "status": "generated",
          "div": "<div xmlns=\"http://www.w3.org/1999/xhtml\"><table class=\"hl7__eu__lab__report\"><tr><th>Test</th><th>24-Jan-2018</th><th>Reference&#xA0;Range</th><th>Unit</th></tr><tr><td>Calcium [Mass/volume] in Blood</td><td>9.7</td><td>8.6 - 10.2</td><td></td><td>mg/dL</td></tr></table></div>"
        },
        "status": "final",
        "subject": {
          "reference": "urn:uuid:70a706e9-94be-498e-8640-88ef771390f0",
          "display": "Maria Nohlmans"
        },
        "effectiveDateTime": "2018-01-24T13:10:39Z",
        "specimen": {
          "reference": "urn:uuid:3d4d7df9-b093-40b6-99e8-11c407156866"
        }
      }
    },
    {
      "fullUrl": "urn:uuid:dc468e28-326d-47b4-a40c-65af4e859876",
      "resource": {
        "resourceType": "Observation",
        "id": "dc468e28-326d-47b4-a40c-65af4e859876",
        "meta": {
          "profile": [
            "http://hl7.eu/fhir/laboratory/StructureDefinition/Observation-resultslab-eu-lab"
          ]
        },
        "performer": [
          {
            "display": "The Central European Lab"
          }
        ],
        "category": [
          {
            "coding": [
              {
                "system": "http://terminology.hl7.org/CodeSystem/observation-category",
                "code": "laboratory"
              }
            ]
          }
        ],
        "code": {
          "coding": [
            {
              "code": "2947-0",
              "system": "http://loinc.org",
              "display": "Sodium [Moles/volume] in Blood"
            }
          ],
          "text": "Sodium [Moles/volume] in Blood"
        },
        "valueQuantity": {
          "system": "http://unitsofmeasure.org",
          "value": 139.2,
          "unit": "mmol/L",
          "code": "mmol/L"
        },
        "referenceRange": [
          {
            "low": {
              "value": 135,
              "code": "mmol/L",
              "system": "http://unitsofmeasure.org"
            }
          },
          {
            "high": {
              "value": 145,
              "code": "mmol/L",
              "system": "http://unitsofmeasure.org"
            }
          }
        ],
        "text": {
          "status": "generated",
          "div": "<div xmlns=\"http://www.w3.org/1999/xhtml\"><table class=\"hl7__eu__lab__report\"><tr><th>Test</th><th>24-Jan-2018</th><th>Reference&#xA0;Range</th><th>Unit</th></tr><tr><td>Sodium [Moles/volume] in Blood</td><td>139.2</td><td>135 - 145</td><td></td><td>mmol/L</td></tr></table></div>"
        },
        "status": "final",
        "subject": {
          "reference": "urn:uuid:70a706e9-94be-498e-8640-88ef771390f0",
          "display": "Maria Nohlmans"
        },
        "effectiveDateTime": "2018-01-24T13:10:39Z",
        "specimen": {
          "reference": "urn:uuid:3d4d7df9-b093-40b6-99e8-11c407156866"
        }
      }
    },
    {
      "fullUrl": "urn:uuid:eb2681b9-fc63-4484-bf17-66a1a39b51cf",
      "resource": {
        "resourceType": "Observation",
        "id": "eb2681b9-fc63-4484-bf17-66a1a39b51cf",
        "meta": {
          "profile": [
            "http://hl7.eu/fhir/laboratory/StructureDefinition/Observation-resultslab-eu-lab"
          ]
        },
        "performer": [
          {
            "display": "The Central European Lab"
          }
        ],
        "category": [
          {
            "coding": [
              {
                "system": "http://terminology.hl7.org/CodeSystem/observation-category",
                "code": "laboratory"
              }
            ]
          }
        ],
        "code": {
          "coding": [
            {
              "code": "6298-4",
              "system": "http://loinc.org",
              "display": "Potassium [Moles/volume] in Blood"
            }
          ],
          "text": "Potassium [Moles/volume] in Blood"
        },
        "valueQuantity": {
          "system": "http://unitsofmeasure.org",
          "value": 4.6,
          "unit": "mmol/L",
          "code": "mmol/L"
        },
        "referenceRange": [
          {
            "low": {
              "value": 3.5,
              "code": "mmol/L",
              "system": "http://unitsofmeasure.org"
            }
          },
          {
            "high": {
              "value": 5.1,
              "code": "mmol/L",
              "system": "http://unitsofmeasure.org"
            }
          }
        ],
        "text": {
          "status": "generated",
          "div": "<div xmlns=\"http://www.w3.org/1999/xhtml\"><table class=\"hl7__eu__lab__report\"><tr><th>Test</th><th>24-Jan-2018</th><th>Reference&#xA0;Range</th><th>Unit</th></tr><tr><td>Potassium [Moles/volume] in Blood</td><td>4.6</td><td>3.5 - 5.1</td><td></td><td>mmol/L</td></tr></table></div>"
        },
        "status": "final",
        "subject": {
          "reference": "urn:uuid:70a706e9-94be-498e-8640-88ef771390f0",
          "display": "Maria Nohlmans"
        },
        "effectiveDateTime": "2018-01-24T13:10:39Z",
        "specimen": {
          "reference": "urn:uuid:3d4d7df9-b093-40b6-99e8-11c407156866"
        }
      }
    },
    {
      "fullUrl": "urn:uuid:6b0fd1ce-bbdd-45f4-860d-bcea4ab95494",
      "resource": {
        "resourceType": "Observation",
        "id": "6b0fd1ce-bbdd-45f4-860d-bcea4ab95494",
        "meta": {
          "profile": [
            "http://hl7.eu/fhir/laboratory/StructureDefinition/Observation-resultslab-eu-lab"
          ]
        },
        "performer": [
          {
            "display": "The Central European Lab"
          }
        ],
        "category": [
          {
            "coding": [
              {
                "system": "http://terminology.hl7.org/CodeSystem/observation-category",
                "code": "laboratory"
              }
            ]
          }
        ],
        "code": {
          "coding": [
            {
              "code": "2069-3",
              "system": "http://loinc.org",
              "display": "Chloride [Moles/volume] in Blood"
            }
          ],
          "text": "Chloride [Moles/volume] in Blood"
        },
        "valueQuantity": {
          "system": "http://unitsofmeasure.org",
          "value": 103.7,
          "unit": "mmol/L",
          "code": "mmol/L"
        },
        "referenceRange": [
          {
            "low": {
              "value": 98,
              "code": "mmol/L",
              "system": "http://unitsofmeasure.org"
            }
          },
          {
            "high": {
              "value": 114,
              "code": "mmol/L",
              "system": "http://unitsofmeasure.org"
            }
          }
        ],
        "text": {
          "status": "generated",
          "div": "<div xmlns=\"http://www.w3.org/1999/xhtml\"><table class=\"hl7__eu__lab__report\"><tr><th>Test</th><th>24-Jan-2018</th><th>Reference&#xA0;Range</th><th>Unit</th></tr><tr><td>Chloride [Moles/volume] in Blood</td><td>103.7</td><td>98 - 114</td><td></td><td>mmol/L</td></tr></table></div>"
        },
        "status": "final",
        "subject": {
          "reference": "urn:uuid:70a706e9-94be-498e-8640-88ef771390f0",
          "display": "Maria Nohlmans"
        },
        "effectiveDateTime": "2018-01-24T13:10:39Z",
        "specimen": {
          "reference": "urn:uuid:3d4d7df9-b093-40b6-99e8-11c407156866"
        }
      }
    },
    {
      "fullUrl": "urn:uuid:3dd18286-ebad-47df-98dc-6a49017c2709",
      "resource": {
        "resourceType": "Observation",
        "id": "3dd18286-ebad-47df-98dc-6a49017c2709",
        "meta": {
          "profile": [
            "http://hl7.eu/fhir/laboratory/StructureDefinition/Observation-resultslab-eu-lab"
          ]
        },
        "performer": [
          {
            "display": "The Central European Lab"
          }
        ],
        "category": [
          {
            "coding": [
              {
                "system": "http://terminology.hl7.org/CodeSystem/observation-category",
                "code": "laboratory"
              }
            ]
          }
        ],
        "code": {
          "coding": [
            {
              "code": "20565-8",
              "system": "http://loinc.org",
              "display": "Carbon dioxide, total [Moles/volume] in Blood"
            }
          ],
          "text": "Carbon dioxide, total [Moles/volume] in Blood"
        },
        "valueQuantity": {
          "system": "http://unitsofmeasure.org",
          "value": 21.9,
          "unit": "mmol/L",
          "code": "mmol/L"
        },
        "referenceRange": [
          {
            "low": {
              "value": 22,
              "code": "mmol/L",
              "system": "http://unitsofmeasure.org"
            }
          },
          {
            "high": {
              "value": 32,
              "code": "mmol/L",
              "system": "http://unitsofmeasure.org"
            }
          }
        ],
        "interpretation": [
          {
            "coding": [
              {
                "code": "L",
                "system": "http://terminology.hl7.org/CodeSystem/v3-ObservationInterpretation",
                "display": "Low"
              }
            ]
          }
        ],
        "text": {
          "status": "generated",
          "div": "<div xmlns=\"http://www.w3.org/1999/xhtml\"><table class=\"hl7__eu__lab__report\"><tr><th>Test</th><th>24-Jan-2018</th><th>Reference&#xA0;Range</th><th>Unit</th></tr><tr><td>Carbon dioxide, total [Moles/volume] in Blood</td><td>21.9</td><td>22 - 32</td><td>L</td><td>mmol/L</td></tr></table></div>"
        },
        "status": "final",
        "subject": {
          "reference": "urn:uuid:70a706e9-94be-498e-8640-88ef771390f0",
          "display": "Maria Nohlmans"
        },
        "effectiveDateTime": "2018-01-24T13:10:39Z",
        "specimen": {
          "reference": "urn:uuid:3d4d7df9-b093-40b6-99e8-11c407156866"
        }
      }
    },
    {
      "fullUrl": "urn:uuid:00ef4103-b968-48b0-bf79-069060062585",
      "resource": {
        "resourceType": "Observation",
        "id": "00ef4103-b968-48b0-bf79-069060062585",
        "meta": {
          "profile": [
            "http://hl7.eu/fhir/laboratory/StructureDefinition/Observation-resultslab-eu-lab"
          ]
        },
        "performer": [
          {
            "display": "The Central European Lab"
          }
        ],
        "category": [
          {
            "coding": [
              {
                "system": "http://terminology.hl7.org/CodeSystem/observation-category",
                "code": "laboratory"
              }
            ]
          }
        ],
        "code": {
          "coding": [
            {
              "code": "2885-2",
              "system": "http://loinc.org",
              "display": "Protein [Mass/volume] in Serum or Plasma"
            }
          ],
          "text": "Protein [Mass/volume] in Serum or Plasma"
        },
        "valueQuantity": {
          "system": "http://unitsofmeasure.org",
          "value": 6.4,
          "unit": "g/dL",
          "code": "g/dL"
        },
        "referenceRange": [
          {
            "low": {
              "value": 6,
              "code": "g/dL",
              "system": "http://unitsofmeasure.org"
            }
          },
          {
            "high": {
              "value": 8.3,
              "code": "g/dL",
              "system": "http://unitsofmeasure.org"
            }
          }
        ],
        "text": {
          "status": "generated",
          "div": "<div xmlns=\"http://www.w3.org/1999/xhtml\"><table class=\"hl7__eu__lab__report\"><tr><th>Test</th><th>24-Jan-2018</th><th>Reference&#xA0;Range</th><th>Unit</th></tr><tr><td>Protein [Mass/volume] in Serum or Plasma</td><td>6.4</td><td>6 - 8.3</td><td></td><td>g/dL</td></tr></table></div>"
        },
        "status": "final",
        "subject": {
          "reference": "urn:uuid:70a706e9-94be-498e-8640-88ef771390f0",
          "display": "Maria Nohlmans"
        },
        "effectiveDateTime": "2018-01-24T13:10:39Z",
        "specimen": {
          "reference": "urn:uuid:f1bdb2dc-ba26-4db4-81bc-9c19d5fb1595"
        }
      }
    },
    {
      "fullUrl": "urn:uuid:b2862b8f-a372-4b9d-9400-654724ffc17c",
      "resource": {
        "resourceType": "Observation",
        "id": "b2862b8f-a372-4b9d-9400-654724ffc17c",
        "meta": {
          "profile": [
            "http://hl7.eu/fhir/laboratory/StructureDefinition/Observation-resultslab-eu-lab"
          ]
        },
        "performer": [
          {
            "display": "The Central European Lab"
          }
        ],
        "category": [
          {
            "coding": [
              {
                "system": "http://terminology.hl7.org/CodeSystem/observation-category",
                "code": "laboratory"
              }
            ]
          }
        ],
        "code": {
          "coding": [
            {
              "code": "1751-7",
              "system": "http://loinc.org",
              "display": "Albumin [Mass/volume] in Serum or Plasma"
            }
          ],
          "text": "Albumin [Mass/volume] in Serum or Plasma"
        },
        "valueQuantity": {
          "system": "http://unitsofmeasure.org",
          "value": 5.1,
          "unit": "g/dL",
          "code": "g/dL"
        },
        "referenceRange": [
          {
            "low": {
              "value": 3.5,
              "code": "g/dL",
              "system": "http://unitsofmeasure.org"
            }
          },
          {
            "high": {
              "value": 5.5,
              "code": "g/dL",
              "system": "http://unitsofmeasure.org"
            }
          }
        ],
        "text": {
          "status": "generated",
          "div": "<div xmlns=\"http://www.w3.org/1999/xhtml\"><table class=\"hl7__eu__lab__report\"><tr><th>Test</th><th>24-Jan-2018</th><th>Reference&#xA0;Range</th><th>Unit</th></tr><tr><td>Albumin [Mass/volume] in Serum or Plasma</td><td>5.1</td><td>3.5 - 5.5</td><td></td><td>g/dL</td></tr></table></div>"
        },
        "status": "final",
        "subject": {
          "reference": "urn:uuid:70a706e9-94be-498e-8640-88ef771390f0",
          "display": "Maria Nohlmans"
        },
        "effectiveDateTime": "2018-01-24T13:10:39Z",
        "specimen": {
          "reference": "urn:uuid:f1bdb2dc-ba26-4db4-81bc-9c19d5fb1595"
        }
      }
    },
    {
      "fullUrl": "urn:uuid:2c18f097-9b85-41e0-8451-b65ec52ccb57",
      "resource": {
        "resourceType": "Observation",
        "id": "2c18f097-9b85-41e0-8451-b65ec52ccb57",
        "meta": {
          "profile": [
            "http://hl7.eu/fhir/laboratory/StructureDefinition/Observation-resultslab-eu-lab"
          ]
        },
        "performer": [
          {
            "display": "The Central European Lab"
          }
        ],
        "category": [
          {
            "coding": [
              {
                "system": "http://terminology.hl7.org/CodeSystem/observation-category",
                "code": "laboratory"
              }
            ]
          }
        ],
        "code": {
          "coding": [
            {
              "code": "10834-0",
              "system": "http://loinc.org",
              "display": "Globulin [Mass/volume] in Serum by calculation"
            }
          ],
          "text": "Globulin [Mass/volume] in Serum by calculation"
        },
        "valueQuantity": {
          "system": "http://unitsofmeasure.org",
          "value": 3.2,
          "unit": "g/L",
          "code": "g/L"
        },
        "referenceRange": [
          {
            "low": {
              "value": 2,
              "code": "g/L",
              "system": "http://unitsofmeasure.org"
            }
          },
          {
            "high": {
              "value": 3.5,
              "code": "g/L",
              "system": "http://unitsofmeasure.org"
            }
          }
        ],
        "text": {
          "status": "generated",
          "div": "<div xmlns=\"http://www.w3.org/1999/xhtml\"><table class=\"hl7__eu__lab__report\"><tr><th>Test</th><th>24-Jan-2018</th><th>Reference&#xA0;Range</th><th>Unit</th></tr><tr><td>Globulin [Mass/volume] in Serum by calculation</td><td>3.2</td><td>2 - 3.5</td><td></td><td>g/L</td></tr></table></div>"
        },
        "status": "final",
        "subject": {
          "reference": "urn:uuid:70a706e9-94be-498e-8640-88ef771390f0",
          "display": "Maria Nohlmans"
        },
        "effectiveDateTime": "2018-01-24T13:10:39Z",
        "specimen": {
          "reference": "urn:uuid:7ea4351c-838c-423b-bd47-cea9cfeb9f91"
        }
      }
    },
    {
      "fullUrl": "urn:uuid:34e14efc-1e41-4f71-bee8-d9ed88377e2e",
      "resource": {
        "resourceType": "Observation",
        "id": "34e14efc-1e41-4f71-bee8-d9ed88377e2e",
        "meta": {
          "profile": [
            "http://hl7.eu/fhir/laboratory/StructureDefinition/Observation-resultslab-eu-lab"
          ]
        },
        "performer": [
          {
            "display": "The Central European Lab"
          }
        ],
        "category": [
          {
            "coding": [
              {
                "system": "http://terminology.hl7.org/CodeSystem/observation-category",
                "code": "laboratory"
              }
            ]
          }
        ],
        "code": {
          "coding": [
            {
              "code": "1975-2",
              "system": "http://loinc.org",
              "display": "Bilirubin.total [Mass/volume] in Serum or Plasma"
            }
          ],
          "text": "Bilirubin.total [Mass/volume] in Serum or Plasma"
        },
        "valueQuantity": {
          "system": "http://unitsofmeasure.org",
          "value": 0.6,
          "unit": "mg/dL",
          "code": "mg/dL"
        },
        "referenceRange": [
          {
            "low": {
              "value": 0.3,
              "code": "mg/dL",
              "system": "http://unitsofmeasure.org"
            }
          },
          {
            "high": {
              "value": 1.2,
              "code": "mg/dL",
              "system": "http://unitsofmeasure.org"
            }
          }
        ],
        "text": {
          "status": "generated",
          "div": "<div xmlns=\"http://www.w3.org/1999/xhtml\"><table class=\"hl7__eu__lab__report\"><tr><th>Test</th><th>24-Jan-2018</th><th>Reference&#xA0;Range</th><th>Unit</th></tr><tr><td>Bilirubin.total [Mass/volume] in Serum or Plasma</td><td>0.6</td><td>0.3 - 1.2</td><td></td><td>mg/dL</td></tr></table></div>"
        },
        "status": "final",
        "subject": {
          "reference": "urn:uuid:70a706e9-94be-498e-8640-88ef771390f0",
          "display": "Maria Nohlmans"
        },
        "effectiveDateTime": "2018-01-24T13:10:39Z",
        "specimen": {
          "reference": "urn:uuid:f1bdb2dc-ba26-4db4-81bc-9c19d5fb1595"
        }
      }
    },
    {
      "fullUrl": "urn:uuid:d487f6f0-d4ad-4271-b31f-ade46c988e78",
      "resource": {
        "resourceType": "Observation",
        "id": "d487f6f0-d4ad-4271-b31f-ade46c988e78",
        "meta": {
          "profile": [
            "http://hl7.eu/fhir/laboratory/StructureDefinition/Observation-resultslab-eu-lab"
          ]
        },
        "performer": [
          {
            "display": "The Central European Lab"
          }
        ],
        "category": [
          {
            "coding": [
              {
                "system": "http://terminology.hl7.org/CodeSystem/observation-category",
                "code": "laboratory"
              }
            ]
          }
        ],
        "code": {
          "coding": [
            {
              "code": "6768-6",
              "system": "http://loinc.org",
              "display": "Alkaline phosphatase [Enzymatic activity/volume] in Serum or Plasma"
            }
          ],
          "text": "Alkaline phosphatase [Enzymatic activity/volume] in Serum or Plasma"
        },
        "valueQuantity": {
          "system": "http://unitsofmeasure.org",
          "value": 25.2,
          "unit": "U/L",
          "code": "U/L"
        },
        "referenceRange": [
          {
            "low": {
              "value": 44,
              "code": "U/L",
              "system": "http://unitsofmeasure.org"
            }
          },
          {
            "high": {
              "value": 142,
              "code": "U/L",
              "system": "http://unitsofmeasure.org"
            }
          }
        ],
        "interpretation": [
          {
            "coding": [
              {
                "code": "L",
                "system": "http://terminology.hl7.org/CodeSystem/v3-ObservationInterpretation",
                "display": "Low"
              }
            ]
          }
        ],
        "text": {
          "status": "generated",
          "div": "<div xmlns=\"http://www.w3.org/1999/xhtml\"><table class=\"hl7__eu__lab__report\"><tr><th>Test</th><th>24-Jan-2018</th><th>Reference&#xA0;Range</th><th>Unit</th></tr><tr><td>Alkaline phosphatase [Enzymatic activity/volume] in Serum or Plasma</td><td>25.2</td><td>44 - 142</td><td>L</td><td>U/L</td></tr></table></div>"
        },
        "status": "final",
        "subject": {
          "reference": "urn:uuid:70a706e9-94be-498e-8640-88ef771390f0",
          "display": "Maria Nohlmans"
        },
        "effectiveDateTime": "2018-01-24T13:10:39Z",
        "specimen": {
          "reference": "urn:uuid:f1bdb2dc-ba26-4db4-81bc-9c19d5fb1595"
        }
      }
    },
    {
      "fullUrl": "urn:uuid:50d3ce68-5e1b-43df-a38e-a69d0a5fc383",
      "resource": {
        "resourceType": "Observation",
        "id": "50d3ce68-5e1b-43df-a38e-a69d0a5fc383",
        "meta": {
          "profile": [
            "http://hl7.eu/fhir/laboratory/StructureDefinition/Observation-resultslab-eu-lab"
          ]
        },
        "performer": [
          {
            "display": "The Central European Lab"
          }
        ],
        "category": [
          {
            "coding": [
              {
                "system": "http://terminology.hl7.org/CodeSystem/observation-category",
                "code": "laboratory"
              }
            ]
          }
        ],
        "code": {
          "coding": [
            {
              "code": "1742-6",
              "system": "http://loinc.org",
              "display": "Alanine aminotransferase [Enzymatic activity/volume] in Serum or Plasma"
            }
          ],
          "text": "Alanine aminotransferase [Enzymatic activity/volume] in Serum or Plasma"
        },
        "valueQuantity": {
          "system": "http://unitsofmeasure.org",
          "value": 41.5,
          "unit": "U/L",
          "code": "U/L"
        },
        "referenceRange": [
          {
            "low": {
              "value": 7,
              "code": "U/L",
              "system": "http://unitsofmeasure.org"
            }
          },
          {
            "high": {
              "value": 40,
              "code": "U/L",
              "system": "http://unitsofmeasure.org"
            }
          }
        ],
        "interpretation": [
          {
            "coding": [
              {
                "code": "H",
                "system": "http://terminology.hl7.org/CodeSystem/v3-ObservationInterpretation",
                "display": "High"
              }
            ]
          }
        ],
        "text": {
          "status": "generated",
          "div": "<div xmlns=\"http://www.w3.org/1999/xhtml\"><table class=\"hl7__eu__lab__report\"><tr><th>Test</th><th>24-Jan-2018</th><th>Reference&#xA0;Range</th><th>Unit</th></tr><tr><td>Alanine aminotransferase [Enzymatic activity/volume] in Serum or Plasma</td><td>41.5</td><td>7 - 40</td><td>H</td><td>U/L</td></tr></table></div>"
        },
        "status": "final",
        "subject": {
          "reference": "urn:uuid:70a706e9-94be-498e-8640-88ef771390f0",
          "display": "Maria Nohlmans"
        },
        "effectiveDateTime": "2018-01-24T13:10:39Z",
        "specimen": {
          "reference": "urn:uuid:f1bdb2dc-ba26-4db4-81bc-9c19d5fb1595"
        }
      }
    },
    {
      "fullUrl": "urn:uuid:7ca8b29d-dbe3-41f7-a54a-0e7f871a7ea6",
      "resource": {
        "resourceType": "Observation",
        "id": "7ca8b29d-dbe3-41f7-a54a-0e7f871a7ea6",
        "meta": {
          "profile": [
            "http://hl7.eu/fhir/laboratory/StructureDefinition/Observation-resultslab-eu-lab"
          ]
        },
        "performer": [
          {
            "display": "The Central European Lab"
          }
        ],
        "category": [
          {
            "coding": [
              {
                "system": "http://terminology.hl7.org/CodeSystem/observation-category",
                "code": "laboratory"
              }
            ]
          }
        ],
        "code": {
          "coding": [
            {
              "code": "1920-8",
              "system": "http://loinc.org",
              "display": "Aspartate aminotransferase [Enzymatic activity/volume] in Serum or Plasma"
            }
          ],
          "text": "Aspartate aminotransferase [Enzymatic activity/volume] in Serum or Plasma"
        },
        "valueQuantity": {
          "system": "http://unitsofmeasure.org",
          "value": 32.9,
          "unit": "U/L",
          "code": "U/L"
        },
        "referenceRange": [
          {
            "low": {
              "value": 10,
              "code": "U/L",
              "system": "http://unitsofmeasure.org"
            }
          },
          {
            "high": {
              "value": 40,
              "code": "U/L",
              "system": "http://unitsofmeasure.org"
            }
          }
        ],
        "text": {
          "status": "generated",
          "div": "<div xmlns=\"http://www.w3.org/1999/xhtml\"><table class=\"hl7__eu__lab__report\"><tr><th>Test</th><th>24-Jan-2018</th><th>Reference&#xA0;Range</th><th>Unit</th></tr><tr><td>Aspartate aminotransferase [Enzymatic activity/volume] in Serum or Plasma</td><td>32.9</td><td>10 - 40</td><td></td><td>U/L</td></tr></table></div>"
        },
        "status": "final",
        "subject": {
          "reference": "urn:uuid:70a706e9-94be-498e-8640-88ef771390f0",
          "display": "Maria Nohlmans"
        },
        "effectiveDateTime": "2018-01-24T13:10:39Z",
        "specimen": {
          "reference": "urn:uuid:f1bdb2dc-ba26-4db4-81bc-9c19d5fb1595"
        }
      }
    },
    {
      "fullUrl": "urn:uuid:925e7492-6d23-4041-a9b0-f0a1f8e03aa7",
      "resource": {
        "resourceType": "Observation",
        "id": "925e7492-6d23-4041-a9b0-f0a1f8e03aa7",
        "meta": {
          "profile": [
            "http://hl7.eu/fhir/laboratory/StructureDefinition/Observation-resultslab-eu-lab"
          ]
        },
        "performer": [
          {
            "display": "The Central European Lab"
          }
        ],
        "category": [
          {
            "coding": [
              {
                "system": "http://terminology.hl7.org/CodeSystem/observation-category",
                "code": "laboratory"
              }
            ]
          }
        ],
        "code": {
          "coding": [
            {
              "code": "5767-9",
              "system": "http://loinc.org",
              "display": "Appearance of Urine"
            }
          ],
          "text": "Appearance of Urine"
        },
        "text": {
          "status": "generated",
          "div": "<div xmlns=\"http://www.w3.org/1999/xhtml\"><table class=\"hl7__eu__lab__report\"><tr><th>Test</th><th>24-Jan-2018</th><th>Reference&#xA0;Range</th><th>Unit</th></tr><tr><td>Appearance of Urine</td></tr></table></div>"
        },
        "status": "final",
        "subject": {
          "reference": "urn:uuid:70a706e9-94be-498e-8640-88ef771390f0",
          "display": "Maria Nohlmans"
        },
        "effectiveDateTime": "2018-01-24T13:10:39Z",
        "specimen": {
          "reference": "urn:uuid:2a6098e2-3190-4c0c-917f-c175a14f5c8e"
        }
      }
    },
    {
      "fullUrl": "urn:uuid:1c0d3e17-b4fc-4058-9639-e53808e09dd0",
      "resource": {
        "resourceType": "Observation",
        "id": "1c0d3e17-b4fc-4058-9639-e53808e09dd0",
        "meta": {
          "profile": [
            "http://hl7.eu/fhir/laboratory/StructureDefinition/Observation-resultslab-eu-lab"
          ]
        },
        "performer": [
          {
            "display": "The Central European Lab"
          }
        ],
        "category": [
          {
            "coding": [
              {
                "system": "http://terminology.hl7.org/CodeSystem/observation-category",
                "code": "laboratory"
              }
            ]
          }
        ],
        "code": {
          "coding": [
            {
              "code": "34533-0",
              "system": "http://loinc.org",
              "display": "Odor of Urine"
            }
          ],
          "text": "Odor of Urine"
        },
        "text": {
          "status": "generated",
          "div": "<div xmlns=\"http://www.w3.org/1999/xhtml\"><table class=\"hl7__eu__lab__report\"><tr><th>Test</th><th>24-Jan-2018</th><th>Reference&#xA0;Range</th><th>Unit</th></tr><tr><td>Odor of Urine</td></tr></table></div>"
        },
        "status": "final",
        "subject": {
          "reference": "urn:uuid:70a706e9-94be-498e-8640-88ef771390f0",
          "display": "Maria Nohlmans"
        },
        "effectiveDateTime": "2018-01-24T13:10:39Z",
        "specimen": {
          "reference": "urn:uuid:2a6098e2-3190-4c0c-917f-c175a14f5c8e"
        }
      }
    },
    {
      "fullUrl": "urn:uuid:6a011ef9-2aab-4f07-bf5d-2272096081b3",
      "resource": {
        "resourceType": "Observation",
        "id": "6a011ef9-2aab-4f07-bf5d-2272096081b3",
        "meta": {
          "profile": [
            "http://hl7.eu/fhir/laboratory/StructureDefinition/Observation-resultslab-eu-lab"
          ]
        },
        "performer": [
          {
            "display": "The Central European Lab"
          }
        ],
        "category": [
          {
            "coding": [
              {
                "system": "http://terminology.hl7.org/CodeSystem/observation-category",
                "code": "laboratory"
              }
            ]
          }
        ],
        "code": {
          "coding": [
            {
              "code": "32167-9",
              "system": "http://loinc.org",
              "display": "Clarity of Urine"
            }
          ],
          "text": "Clarity of Urine"
        },
        "text": {
          "status": "generated",
          "div": "<div xmlns=\"http://www.w3.org/1999/xhtml\"><table class=\"hl7__eu__lab__report\"><tr><th>Test</th><th>24-Jan-2018</th><th>Reference&#xA0;Range</th><th>Unit</th></tr><tr><td>Clarity of Urine</td></tr></table></div>"
        },
        "status": "final",
        "subject": {
          "reference": "urn:uuid:70a706e9-94be-498e-8640-88ef771390f0",
          "display": "Maria Nohlmans"
        },
        "effectiveDateTime": "2018-01-24T13:10:39Z",
        "specimen": {
          "reference": "urn:uuid:2a6098e2-3190-4c0c-917f-c175a14f5c8e"
        }
      }
    },
    {
      "fullUrl": "urn:uuid:2597eb66-1730-4dc2-91b1-b56384c55c50",
      "resource": {
        "resourceType": "Observation",
        "id": "2597eb66-1730-4dc2-91b1-b56384c55c50",
        "meta": {
          "profile": [
            "http://hl7.eu/fhir/laboratory/StructureDefinition/Observation-resultslab-eu-lab"
          ]
        },
        "performer": [
          {
            "display": "The Central European Lab"
          }
        ],
        "category": [
          {
            "coding": [
              {
                "system": "http://terminology.hl7.org/CodeSystem/observation-category",
                "code": "laboratory"
              }
            ]
          }
        ],
        "code": {
          "coding": [
            {
              "code": "5778-6",
              "system": "http://loinc.org",
              "display": "Color of Urine"
            }
          ],
          "text": "Color of Urine"
        },
        "text": {
          "status": "generated",
          "div": "<div xmlns=\"http://www.w3.org/1999/xhtml\"><table class=\"hl7__eu__lab__report\"><tr><th>Test</th><th>24-Jan-2018</th><th>Reference&#xA0;Range</th><th>Unit</th></tr><tr><td>Color of Urine</td></tr></table></div>"
        },
        "status": "final",
        "subject": {
          "reference": "urn:uuid:70a706e9-94be-498e-8640-88ef771390f0",
          "display": "Maria Nohlmans"
        },
        "effectiveDateTime": "2018-01-24T13:10:39Z",
        "specimen": {
          "reference": "urn:uuid:2a6098e2-3190-4c0c-917f-c175a14f5c8e"
        }
      }
    },
    {
      "fullUrl": "urn:uuid:ed333a8f-76f9-491b-8181-6b58de4db31c",
      "resource": {
        "resourceType": "Observation",
        "id": "ed333a8f-76f9-491b-8181-6b58de4db31c",
        "meta": {
          "profile": [
            "http://hl7.eu/fhir/laboratory/StructureDefinition/Observation-resultslab-eu-lab"
          ]
        },
        "performer": [
          {
            "display": "The Central European Lab"
          }
        ],
        "category": [
          {
            "coding": [
              {
                "system": "http://terminology.hl7.org/CodeSystem/observation-category",
                "code": "laboratory"
              }
            ]
          }
        ],
        "code": {
          "coding": [
            {
              "code": "5792-7",
              "system": "http://loinc.org",
              "display": "Glucose [Mass/volume] in Urine by Test strip"
            }
          ],
          "text": "Glucose [Mass/volume] in Urine by Test strip"
        },
        "valueQuantity": {
          "system": "http://unitsofmeasure.org",
          "value": 1.4,
          "unit": "mg/dL",
          "code": "mg/dL"
        },
        "referenceRange": [
          {
            "low": {
              "value": 0.8,
              "code": "mg/dL",
              "system": "http://unitsofmeasure.org"
            }
          },
          {
            "high": {
              "value": 0,
              "code": "mg/dL",
              "system": "http://unitsofmeasure.org"
            }
          }
        ],
        "interpretation": [
          {
            "coding": [
              {
                "code": "H",
                "system": "http://terminology.hl7.org/CodeSystem/v3-ObservationInterpretation",
                "display": "High"
              }
            ]
          }
        ],
        "text": {
          "status": "generated",
          "div": "<div xmlns=\"http://www.w3.org/1999/xhtml\"><table class=\"hl7__eu__lab__report\"><tr><th>Test</th><th>24-Jan-2018</th><th>Reference&#xA0;Range</th><th>Unit</th></tr><tr><td>Glucose [Mass/volume] in Urine by Test strip</td><td>1.4</td><td>0.8 - 0</td><td>H</td><td>mg/dL</td></tr></table></div>"
        },
        "status": "final",
        "subject": {
          "reference": "urn:uuid:70a706e9-94be-498e-8640-88ef771390f0",
          "display": "Maria Nohlmans"
        },
        "effectiveDateTime": "2018-01-24T13:10:39Z",
        "specimen": {
          "reference": "urn:uuid:2a6098e2-3190-4c0c-917f-c175a14f5c8e"
        }
      }
    },
    {
      "fullUrl": "urn:uuid:7e7c304d-bae4-4566-b3cf-32857eb6d3b1",
      "resource": {
        "resourceType": "Observation",
        "id": "7e7c304d-bae4-4566-b3cf-32857eb6d3b1",
        "meta": {
          "profile": [
            "http://hl7.eu/fhir/laboratory/StructureDefinition/Observation-resultslab-eu-lab"
          ]
        },
        "performer": [
          {
            "display": "The Central European Lab"
          }
        ],
        "category": [
          {
            "coding": [
              {
                "system": "http://terminology.hl7.org/CodeSystem/observation-category",
                "code": "laboratory"
              }
            ]
          }
        ],
        "code": {
          "coding": [
            {
              "code": "25428-4",
              "system": "http://loinc.org",
              "display": "Glucose [Presence] in Urine by Test strip"
            }
          ],
          "text": "Glucose [Presence] in Urine by Test strip"
        },
        "text": {
          "status": "generated",
          "div": "<div xmlns=\"http://www.w3.org/1999/xhtml\"><table class=\"hl7__eu__lab__report\"><tr><th>Test</th><th>24-Jan-2018</th><th>Reference&#xA0;Range</th><th>Unit</th></tr><tr><td>Glucose [Presence] in Urine by Test strip</td></tr></table></div>"
        },
        "status": "final",
        "subject": {
          "reference": "urn:uuid:70a706e9-94be-498e-8640-88ef771390f0",
          "display": "Maria Nohlmans"
        },
        "effectiveDateTime": "2018-01-24T13:10:39Z",
        "specimen": {
          "reference": "urn:uuid:2a6098e2-3190-4c0c-917f-c175a14f5c8e"
        }
      }
    },
    {
      "fullUrl": "urn:uuid:a431b4a5-5c2f-4edb-b7b4-363b57314c7f",
      "resource": {
        "resourceType": "Observation",
        "id": "a431b4a5-5c2f-4edb-b7b4-363b57314c7f",
        "meta": {
          "profile": [
            "http://hl7.eu/fhir/laboratory/StructureDefinition/Observation-resultslab-eu-lab"
          ]
        },
        "performer": [
          {
            "display": "The Central European Lab"
          }
        ],
        "category": [
          {
            "coding": [
              {
                "system": "http://terminology.hl7.org/CodeSystem/observation-category",
                "code": "laboratory"
              }
            ]
          }
        ],
        "code": {
          "coding": [
            {
              "code": "20505-4",
              "system": "http://loinc.org",
              "display": "Bilirubin.total [Mass/volume] in Urine by Test strip"
            }
          ],
          "text": "Bilirubin.total [Mass/volume] in Urine by Test strip"
        },
        "valueQuantity": {
          "system": "http://unitsofmeasure.org",
          "value": 1,
          "unit": "mg/dL",
          "code": "mg/dL"
        },
        "referenceRange": [
          {
            "low": {
              "value": 0,
              "code": "mg/dL",
              "system": "http://unitsofmeasure.org"
            }
          },
          {
            "high": {
              "value": 1.5,
              "code": "mg/dL",
              "system": "http://unitsofmeasure.org"
            }
          }
        ],
        "text": {
          "status": "generated",
          "div": "<div xmlns=\"http://www.w3.org/1999/xhtml\"><table class=\"hl7__eu__lab__report\"><tr><th>Test</th><th>24-Jan-2018</th><th>Reference&#xA0;Range</th><th>Unit</th></tr><tr><td>Bilirubin.total [Mass/volume] in Urine by Test strip</td><td>1.0</td><td>0 - 1.5</td><td></td><td>mg/dL</td></tr></table></div>"
        },
        "status": "final",
        "subject": {
          "reference": "urn:uuid:70a706e9-94be-498e-8640-88ef771390f0",
          "display": "Maria Nohlmans"
        },
        "effectiveDateTime": "2018-01-24T13:10:39Z",
        "specimen": {
          "reference": "urn:uuid:2a6098e2-3190-4c0c-917f-c175a14f5c8e"
        }
      }
    },
    {
      "fullUrl": "urn:uuid:e2dd1a3a-c738-44a6-93db-4f43c6324d9a",
      "resource": {
        "resourceType": "Observation",
        "id": "e2dd1a3a-c738-44a6-93db-4f43c6324d9a",
        "meta": {
          "profile": [
            "http://hl7.eu/fhir/laboratory/StructureDefinition/Observation-resultslab-eu-lab"
          ]
        },
        "performer": [
          {
            "display": "The Central European Lab"
          }
        ],
        "category": [
          {
            "coding": [
              {
                "system": "http://terminology.hl7.org/CodeSystem/observation-category",
                "code": "laboratory"
              }
            ]
          }
        ],
        "code": {
          "coding": [
            {
              "code": "5770-3",
              "system": "http://loinc.org",
              "display": "Bilirubin.total [Presence] in Urine by Test strip"
            }
          ],
          "text": "Bilirubin.total [Presence] in Urine by Test strip"
        },
        "text": {
          "status": "generated",
          "div": "<div xmlns=\"http://www.w3.org/1999/xhtml\"><table class=\"hl7__eu__lab__report\"><tr><th>Test</th><th>24-Jan-2018</th><th>Reference&#xA0;Range</th><th>Unit</th></tr><tr><td>Bilirubin.total [Presence] in Urine by Test strip</td></tr></table></div>"
        },
        "status": "final",
        "subject": {
          "reference": "urn:uuid:70a706e9-94be-498e-8640-88ef771390f0",
          "display": "Maria Nohlmans"
        },
        "effectiveDateTime": "2018-01-24T13:10:39Z",
        "specimen": {
          "reference": "urn:uuid:2a6098e2-3190-4c0c-917f-c175a14f5c8e"
        }
      }
    },
    {
      "fullUrl": "urn:uuid:2a2fdcc8-f61e-4745-ae4d-22282451ffbf",
      "resource": {
        "resourceType": "Observation",
        "id": "2a2fdcc8-f61e-4745-ae4d-22282451ffbf",
        "meta": {
          "profile": [
            "http://hl7.eu/fhir/laboratory/StructureDefinition/Observation-resultslab-eu-lab"
          ]
        },
        "performer": [
          {
            "display": "The Central European Lab"
          }
        ],
        "category": [
          {
            "coding": [
              {
                "system": "http://terminology.hl7.org/CodeSystem/observation-category",
                "code": "laboratory"
              }
            ]
          }
        ],
        "code": {
          "coding": [
            {
              "code": "5797-6",
              "system": "http://loinc.org",
              "display": "Ketones [Mass/volume] in Urine by Test strip"
            }
          ],
          "text": "Ketones [Mass/volume] in Urine by Test strip"
        },
        "valueQuantity": {
          "system": "http://unitsofmeasure.org",
          "value": 19.2,
          "unit": "mg/dL",
          "code": "mg/dL"
        },
        "referenceRange": [
          {
            "low": {
              "value": 0,
              "code": "mg/dL",
              "system": "http://unitsofmeasure.org"
            }
          },
          {
            "high": {
              "value": 8,
              "code": "mg/dL",
              "system": "http://unitsofmeasure.org"
            }
          }
        ],
        "interpretation": [
          {
            "coding": [
              {
                "code": "H",
                "system": "http://terminology.hl7.org/CodeSystem/v3-ObservationInterpretation",
                "display": "High"
              }
            ]
          }
        ],
        "text": {
          "status": "generated",
          "div": "<div xmlns=\"http://www.w3.org/1999/xhtml\"><table class=\"hl7__eu__lab__report\"><tr><th>Test</th><th>24-Jan-2018</th><th>Reference&#xA0;Range</th><th>Unit</th></tr><tr><td>Ketones [Mass/volume] in Urine by Test strip</td><td>19.2</td><td>0 - 8</td><td>H</td><td>mg/dL</td></tr></table></div>"
        },
        "status": "final",
        "subject": {
          "reference": "urn:uuid:70a706e9-94be-498e-8640-88ef771390f0",
          "display": "Maria Nohlmans"
        },
        "effectiveDateTime": "2018-01-24T13:10:39Z",
        "specimen": {
          "reference": "urn:uuid:2a6098e2-3190-4c0c-917f-c175a14f5c8e"
        }
      }
    },
    {
      "fullUrl": "urn:uuid:12bb07a9-1f22-41d7-a945-413dca9c1de0",
      "resource": {
        "resourceType": "Observation",
        "id": "12bb07a9-1f22-41d7-a945-413dca9c1de0",
        "meta": {
          "profile": [
            "http://hl7.eu/fhir/laboratory/StructureDefinition/Observation-resultslab-eu-lab"
          ]
        },
        "performer": [
          {
            "display": "The Central European Lab"
          }
        ],
        "category": [
          {
            "coding": [
              {
                "system": "http://terminology.hl7.org/CodeSystem/observation-category",
                "code": "laboratory"
              }
            ]
          }
        ],
        "code": {
          "coding": [
            {
              "code": "2514-8",
              "system": "http://loinc.org",
              "display": "Ketones [Presence] in Urine by Test strip"
            }
          ],
          "text": "Ketones [Presence] in Urine by Test strip"
        },
        "text": {
          "status": "generated",
          "div": "<div xmlns=\"http://www.w3.org/1999/xhtml\"><table class=\"hl7__eu__lab__report\"><tr><th>Test</th><th>24-Jan-2018</th><th>Reference&#xA0;Range</th><th>Unit</th></tr><tr><td>Ketones [Presence] in Urine by Test strip</td></tr></table></div>"
        },
        "status": "final",
        "subject": {
          "reference": "urn:uuid:70a706e9-94be-498e-8640-88ef771390f0",
          "display": "Maria Nohlmans"
        },
        "effectiveDateTime": "2018-01-24T13:10:39Z",
        "specimen": {
          "reference": "urn:uuid:2a6098e2-3190-4c0c-917f-c175a14f5c8e"
        }
      }
    },
    {
      "fullUrl": "urn:uuid:99ab30dc-58b8-4bfb-9342-1a0283921e1c",
      "resource": {
        "resourceType": "Observation",
        "id": "99ab30dc-58b8-4bfb-9342-1a0283921e1c",
        "meta": {
          "profile": [
            "http://hl7.eu/fhir/laboratory/StructureDefinition/Observation-resultslab-eu-lab"
          ]
        },
        "performer": [
          {
            "display": "The Central European Lab"
          }
        ],
        "category": [
          {
            "coding": [
              {
                "system": "http://terminology.hl7.org/CodeSystem/observation-category",
                "code": "laboratory"
              }
            ]
          }
        ],
        "code": {
          "coding": [
            {
              "code": "5811-5",
              "system": "http://loinc.org",
              "display": "Specific gravity of Urine by Test strip"
            }
          ],
          "text": "Specific gravity of Urine by Test strip"
        },
        "valueQuantity": {
          "system": "http://unitsofmeasure.org",
          "value": 1,
          "unit": "{nominal}",
          "code": "{nominal}"
        },
        "referenceRange": [
          {
            "low": {
              "value": 1.01,
              "code": "g/mL",
              "system": "http://unitsofmeasure.org"
            }
          },
          {
            "high": {
              "value": 1.03,
              "code": "g/mL",
              "system": "http://unitsofmeasure.org"
            }
          }
        ],
        "interpretation": [
          {
            "coding": [
              {
                "code": "L",
                "system": "http://terminology.hl7.org/CodeSystem/v3-ObservationInterpretation",
                "display": "Low"
              }
            ]
          }
        ],
        "text": {
          "status": "generated",
          "div": "<div xmlns=\"http://www.w3.org/1999/xhtml\"><table class=\"hl7__eu__lab__report\"><tr><th>Test</th><th>24-Jan-2018</th><th>Reference&#xA0;Range</th><th>Unit</th></tr><tr><td>Specific gravity of Urine by Test strip</td><td>1.0</td><td>1.01 - 1.03</td><td>L</td><td>{nominal}</td></tr></table></div>"
        },
        "status": "final",
        "subject": {
          "reference": "urn:uuid:70a706e9-94be-498e-8640-88ef771390f0",
          "display": "Maria Nohlmans"
        },
        "effectiveDateTime": "2018-01-24T13:10:39Z",
        "specimen": {
          "reference": "urn:uuid:2a6098e2-3190-4c0c-917f-c175a14f5c8e"
        }
      }
    },
    {
      "fullUrl": "urn:uuid:39bd4a15-f3b7-46a2-8853-4bfb45966064",
      "resource": {
        "resourceType": "Observation",
        "id": "39bd4a15-f3b7-46a2-8853-4bfb45966064",
        "meta": {
          "profile": [
            "http://hl7.eu/fhir/laboratory/StructureDefinition/Observation-resultslab-eu-lab"
          ]
        },
        "performer": [
          {
            "display": "The Central European Lab"
          }
        ],
        "category": [
          {
            "coding": [
              {
                "system": "http://terminology.hl7.org/CodeSystem/observation-category",
                "code": "laboratory"
              }
            ]
          }
        ],
        "code": {
          "coding": [
            {
              "code": "5803-2",
              "system": "http://loinc.org",
              "display": "pH of Urine by Test strip"
            }
          ],
          "text": "pH of Urine by Test strip"
        },
        "valueQuantity": {
          "system": "http://unitsofmeasure.org",
          "value": 6.8,
          "unit": "pH",
          "code": "pH"
        },
        "referenceRange": [
          {
            "low": {
              "value": 4.6,
              "code": "pH",
              "system": "http://unitsofmeasure.org"
            }
          },
          {
            "high": {
              "value": 7.5,
              "code": "pH",
              "system": "http://unitsofmeasure.org"
            }
          }
        ],
        "text": {
          "status": "generated",
          "div": "<div xmlns=\"http://www.w3.org/1999/xhtml\"><table class=\"hl7__eu__lab__report\"><tr><th>Test</th><th>24-Jan-2018</th><th>Reference&#xA0;Range</th><th>Unit</th></tr><tr><td>pH of Urine by Test strip</td><td>6.8</td><td>4.6 - 7.5</td><td></td><td>pH</td></tr></table></div>"
        },
        "status": "final",
        "subject": {
          "reference": "urn:uuid:70a706e9-94be-498e-8640-88ef771390f0",
          "display": "Maria Nohlmans"
        },
        "effectiveDateTime": "2018-01-24T13:10:39Z",
        "specimen": {
          "reference": "urn:uuid:2a6098e2-3190-4c0c-917f-c175a14f5c8e"
        }
      }
    },
    {
      "fullUrl": "urn:uuid:d388304a-446d-490d-a125-e99ef08042fc",
      "resource": {
        "resourceType": "Observation",
        "id": "d388304a-446d-490d-a125-e99ef08042fc",
        "meta": {
          "profile": [
            "http://hl7.eu/fhir/laboratory/StructureDefinition/Observation-resultslab-eu-lab"
          ]
        },
        "performer": [
          {
            "display": "The Central European Lab"
          }
        ],
        "category": [
          {
            "coding": [
              {
                "system": "http://terminology.hl7.org/CodeSystem/observation-category",
                "code": "laboratory"
              }
            ]
          }
        ],
        "code": {
          "coding": [
            {
              "code": "5804-0",
              "system": "http://loinc.org",
              "display": "Protein [Mass/volume] in Urine by Test strip"
            }
          ],
          "text": "Protein [Mass/volume] in Urine by Test strip"
        },
        "valueQuantity": {
          "system": "http://unitsofmeasure.org",
          "value": 273.1,
          "unit": "mg/dL",
          "code": "mg/dL"
        },
        "referenceRange": [
          {
            "low": {
              "value": 0,
              "code": "mg/dL",
              "system": "http://unitsofmeasure.org"
            }
          },
          {
            "high": {
              "value": 14,
              "code": "mg/dL",
              "system": "http://unitsofmeasure.org"
            }
          }
        ],
        "interpretation": [
          {
            "coding": [
              {
                "code": "H",
                "system": "http://terminology.hl7.org/CodeSystem/v3-ObservationInterpretation",
                "display": "High"
              }
            ]
          }
        ],
        "text": {
          "status": "generated",
          "div": "<div xmlns=\"http://www.w3.org/1999/xhtml\"><table class=\"hl7__eu__lab__report\"><tr><th>Test</th><th>24-Jan-2018</th><th>Reference&#xA0;Range</th><th>Unit</th></tr><tr><td>Protein [Mass/volume] in Urine by Test strip</td><td>273.1</td><td>0 - 14</td><td>H</td><td>mg/dL</td></tr></table></div>"
        },
        "status": "final",
        "subject": {
          "reference": "urn:uuid:70a706e9-94be-498e-8640-88ef771390f0",
          "display": "Maria Nohlmans"
        },
        "effectiveDateTime": "2018-01-24T13:10:39Z",
        "specimen": {
          "reference": "urn:uuid:2a6098e2-3190-4c0c-917f-c175a14f5c8e"
        }
      }
    },
    {
      "fullUrl": "urn:uuid:2ded0ec6-926e-4cd1-a0ef-eadda9e98e54",
      "resource": {
        "resourceType": "Observation",
        "id": "2ded0ec6-926e-4cd1-a0ef-eadda9e98e54",
        "meta": {
          "profile": [
            "http://hl7.eu/fhir/laboratory/StructureDefinition/Observation-resultslab-eu-lab"
          ]
        },
        "performer": [
          {
            "display": "The Central European Lab"
          }
        ],
        "category": [
          {
            "coding": [
              {
                "system": "http://terminology.hl7.org/CodeSystem/observation-category",
                "code": "laboratory"
              }
            ]
          }
        ],
        "code": {
          "coding": [
            {
              "code": "20454-5",
              "system": "http://loinc.org",
              "display": "Protein [Presence] in Urine by Test strip"
            }
          ],
          "text": "Protein [Presence] in Urine by Test strip"
        },
        "text": {
          "status": "generated",
          "div": "<div xmlns=\"http://www.w3.org/1999/xhtml\"><table class=\"hl7__eu__lab__report\"><tr><th>Test</th><th>24-Jan-2018</th><th>Reference&#xA0;Range</th><th>Unit</th></tr><tr><td>Protein [Presence] in Urine by Test strip</td></tr></table></div>"
        },
        "status": "final",
        "subject": {
          "reference": "urn:uuid:70a706e9-94be-498e-8640-88ef771390f0",
          "display": "Maria Nohlmans"
        },
        "effectiveDateTime": "2018-01-24T13:10:39Z",
        "specimen": {
          "reference": "urn:uuid:2a6098e2-3190-4c0c-917f-c175a14f5c8e"
        }
      }
    },
    {
      "fullUrl": "urn:uuid:dd11e94b-d88a-47b0-91d6-997c69a4e825",
      "resource": {
        "resourceType": "Observation",
        "id": "dd11e94b-d88a-47b0-91d6-997c69a4e825",
        "meta": {
          "profile": [
            "http://hl7.eu/fhir/laboratory/StructureDefinition/Observation-resultslab-eu-lab"
          ]
        },
        "performer": [
          {
            "display": "The Central European Lab"
          }
        ],
        "category": [
          {
            "coding": [
              {
                "system": "http://terminology.hl7.org/CodeSystem/observation-category",
                "code": "laboratory"
              }
            ]
          }
        ],
        "code": {
          "coding": [
            {
              "code": "5802-4",
              "system": "http://loinc.org",
              "display": "Nitrite [Presence] in Urine by Test strip"
            }
          ],
          "text": "Nitrite [Presence] in Urine by Test strip"
        },
        "text": {
          "status": "generated",
          "div": "<div xmlns=\"http://www.w3.org/1999/xhtml\"><table class=\"hl7__eu__lab__report\"><tr><th>Test</th><th>24-Jan-2018</th><th>Reference&#xA0;Range</th><th>Unit</th></tr><tr><td>Nitrite [Presence] in Urine by Test strip</td></tr></table></div>"
        },
        "status": "final",
        "subject": {
          "reference": "urn:uuid:70a706e9-94be-498e-8640-88ef771390f0",
          "display": "Maria Nohlmans"
        },
        "effectiveDateTime": "2018-01-24T13:10:39Z",
        "specimen": {
          "reference": "urn:uuid:2a6098e2-3190-4c0c-917f-c175a14f5c8e"
        }
      }
    },
    {
      "fullUrl": "urn:uuid:3e578a2f-8089-46bd-b8d9-d230eef65974",
      "resource": {
        "resourceType": "Observation",
        "id": "3e578a2f-8089-46bd-b8d9-d230eef65974",
        "meta": {
          "profile": [
            "http://hl7.eu/fhir/laboratory/StructureDefinition/Observation-resultslab-eu-lab"
          ]
        },
        "performer": [
          {
            "display": "The Central European Lab"
          }
        ],
        "category": [
          {
            "coding": [
              {
                "system": "http://terminology.hl7.org/CodeSystem/observation-category",
                "code": "laboratory"
              }
            ]
          }
        ],
        "code": {
          "coding": [
            {
              "code": "5794-3",
              "system": "http://loinc.org",
              "display": "Hemoglobin [Presence] in Urine by Test strip"
            }
          ],
          "text": "Hemoglobin [Presence] in Urine by Test strip"
        },
        "text": {
          "status": "generated",
          "div": "<div xmlns=\"http://www.w3.org/1999/xhtml\"><table class=\"hl7__eu__lab__report\"><tr><th>Test</th><th>24-Jan-2018</th><th>Reference&#xA0;Range</th><th>Unit</th></tr><tr><td>Hemoglobin [Presence] in Urine by Test strip</td></tr></table></div>"
        },
        "status": "final",
        "subject": {
          "reference": "urn:uuid:70a706e9-94be-498e-8640-88ef771390f0",
          "display": "Maria Nohlmans"
        },
        "effectiveDateTime": "2018-01-24T13:10:39Z",
        "specimen": {
          "reference": "urn:uuid:2a6098e2-3190-4c0c-917f-c175a14f5c8e"
        }
      }
    },
    {
      "fullUrl": "urn:uuid:94d418d2-fb9b-4b2c-9d0d-ced60abb0d28",
      "resource": {
        "resourceType": "Observation",
        "id": "94d418d2-fb9b-4b2c-9d0d-ced60abb0d28",
        "meta": {
          "profile": [
            "http://hl7.eu/fhir/laboratory/StructureDefinition/Observation-resultslab-eu-lab"
          ]
        },
        "performer": [
          {
            "display": "The Central European Lab"
          }
        ],
        "category": [
          {
            "coding": [
              {
                "system": "http://terminology.hl7.org/CodeSystem/observation-category",
                "code": "laboratory"
              }
            ]
          }
        ],
        "code": {
          "coding": [
            {
              "code": "5799-2",
              "system": "http://loinc.org",
              "display": "Leukocyte esterase [Presence] in Urine by Test strip"
            }
          ],
          "text": "Leukocyte esterase [Presence] in Urine by Test strip"
        },
        "text": {
          "status": "generated",
          "div": "<div xmlns=\"http://www.w3.org/1999/xhtml\"><table class=\"hl7__eu__lab__report\"><tr><th>Test</th><th>24-Jan-2018</th><th>Reference&#xA0;Range</th><th>Unit</th></tr><tr><td>Leukocyte esterase [Presence] in Urine by Test strip</td></tr></table></div>"
        },
        "status": "final",
        "subject": {
          "reference": "urn:uuid:70a706e9-94be-498e-8640-88ef771390f0",
          "display": "Maria Nohlmans"
        },
        "effectiveDateTime": "2018-01-24T13:10:39Z",
        "specimen": {
          "reference": "urn:uuid:2a6098e2-3190-4c0c-917f-c175a14f5c8e"
        }
      }
    },
    {
      "fullUrl": "urn:uuid:df392f78-7b8e-42ab-90d0-e8518d41e378",
      "resource": {
        "resourceType": "Device",
        "id": "df392f78-7b8e-42ab-90d0-e8518d41e378",
        "deviceName": [
          {
            "name": "SYNDERAI Synthetic Generator",
            "type": "manufacturer-name"
          }
        ],
        "version": [
          {
            "value": "5.0"
          }
        ],
        "text": {
          "status": "generated",
          "div": "<div xmlns=\"http://www.w3.org/1999/xhtml\">SYNDERAI Synthetic Generator v5.0</div>"
        },
        "status": "active\"",
        "distinctIdentifier": "synderai-generator-50",
        "manufacturer": "SYNDERAI Project"
      }
    },
    {
      "fullUrl": "urn:uuid:0742448d-b960-42c4-a03e-ea4a8322395b",
      "resource": {
        "resourceType": "Provenance",
        "id": "0742448d-b960-42c4-a03e-ea4a8322395b",
        "target": [
          {
            "reference": "Patient/70a706e9-94be-498e-8640-88ef771390f0"
          },
          {
            "reference": "Bundle/8c333794-623c-4450-b7b9-077d267568f0"
          },
          {
            "reference": "Composition/8fa42840-bfd4-410f-bc90-8da5eacefbee"
          },
          {
            "reference": "PractitionerRole/07e767cb-8582-47e2-af95-ba4e76ba7f36"
          },
          {
            "reference": "Practitioner/15736a69-4121-477b-9bb8-efdc99edb298"
          },
          {
            "reference": "PractitionerRole/904bf6dc-9e94-43e2-b7ec-16c60d5d7070"
          },
          {
            "reference": "Organization/1513b76d-b147-4dc9-bb3e-8c96666f01f4"
          }
        ],
        "activity": {
          "text": "Synthetic Example Data Generation"
        },
        "policy": [
          "https://synderai.net/synderai-synthetic-data-policy"
        ],
        "agent": [
          {
            "type": {
              "text": "author"
            },
            "who": {
              "reference": "Device/df392f78-7b8e-42ab-90d0-e8518d41e378"
            }
          }
        ],
        "reason": [
          {
            "text": "Interoperability Testing and Training (non-clinical use)"
          }
        ],
        "text": {
          "status": "generated",
          "div": "<div xmlns=\"http://www.w3.org/1999/xhtml\">Provenance for SYNDERAI Synthetic Example Data Resource</div>"
        },
        "recorded": "2018-01-24T14:10:39Z"
      }
    },
    {
      "fullUrl": "urn:uuid:07e767cb-8582-47e2-af95-ba4e76ba7f36",
      "resource": {
        "resourceType": "PractitionerRole",
        "id": "07e767cb-8582-47e2-af95-ba4e76ba7f36",
        "meta": {
          "profile": [
            "http://hl7.eu/fhir/base/StructureDefinition/practitionerRole-eu"
          ]
        },
        "text": {
          "status": "generated",
          "div": "<div xmlns=\"http://www.w3.org/1999/xhtml\">Laboratory Role Id: 07e767cb-8582-47e2-af95-ba4e76ba7f36</div>"
        },
        "practitioner": {
          "reference": "urn:uuid:15736a69-4121-477b-9bb8-efdc99edb298"
        }
      }
    },
    {
      "fullUrl": "urn:uuid:15736a69-4121-477b-9bb8-efdc99edb298",
      "resource": {
        "resourceType": "Practitioner",
        "id": "15736a69-4121-477b-9bb8-efdc99edb298",
        "meta": {
          "profile": [
            "http://hl7.eu/fhir/base/StructureDefinition/practitioner-eu"
          ]
        },
        "identifier": [
          {
            "assigner": {
              "display": "HL7 Europe"
            },
            "system": "urn:oid:2.16.840.1.113883.2.51.999",
            "value": "91728223-b69d-41da-9dd1-cce0822a2db8"
          }
        ],
        "name": [
          {
            "prefix": [
              "dr"
            ],
            "given": [
              "Ex"
            ],
            "family": "Ample"
          }
        ],
        "address": [
          {
            "line": [
              "Laboratoire Central Européenne",
              "Boulevard du Jardin Botanique 32"
            ],
            "postalCode": "1000",
            "city": "Brussels",
            "country": "Belgium"
          }
        ],
        "text": {
          "status": "generated",
          "div": "<div xmlns=\"http://www.w3.org/1999/xhtml\">Laboratory: Laboratoire Central Européenne, 1000 Brussels, Belgium</div>"
        }
      }
    }
  ],
  "type": "document",
  "timestamp": "2018-01-24T14:10:39Z"
}
