{
  "resourceType": "Bundle",
  "id": "6bf1dcbe-21d3-4c84-bd98-f6dea23685ce",
  "meta": {
    "profile": [
      "http://hl7.eu/fhir/laboratory/StructureDefinition/Bundle-eu-lab"
    ]
  },
  "identifier": {
    "assigner": {
      "display": "HL7 Europe"
    },
    "system": "urn:oid:2.16.840.1.113883.2.51.999",
    "value": "a742b3cd-c313-40aa-9aad-06256297c025"
  },
  "entry": [
    {
      "fullUrl": "urn:uuid:247801ec-a565-4bd5-ad28-dfa74a49bc82",
      "resource": {
        "resourceType": "Composition",
        "id": "247801ec-a565-4bd5-ad28-dfa74a49bc82",
        "meta": {
          "profile": [
            "http://hl7.eu/fhir/laboratory/StructureDefinition/Composition-eu-lab"
          ]
        },
        "identifier": {
          "assigner": {
            "display": "HL7 Europe"
          },
          "system": "urn:oid:2.16.840.1.113883.2.51.999",
          "value": "df4ebacc-16de-47e8-ac3c-4fb09d704d49"
        },
        "author": [
          {
            "reference": "urn:uuid:163824b4-757b-4850-ab48-957e2a126d49"
          }
        ],
        "category": [
          {
            "coding": [
              {
                "code": "26436-6",
                "system": "http://loinc.org",
                "display": "Laboratory studies (set)"
              }
            ]
          }
        ],
        "type": {
          "coding": [
            {
              "code": "11502-2",
              "system": "http://loinc.org",
              "display": "Laboratory report"
            }
          ],
          "text": "Laboratory Report"
        },
        "section": [
          {
            "code": {
              "coding": [
                {
                  "code": "26436-6",
                  "system": "http://loinc.org",
                  "display": "Laboratory studies (set)"
                }
              ],
              "text": "Laboratory studies"
            },
            "section": [
              {
                "code": {
                  "coding": [
                    {
                      "code": "$18719-5",
                      "system": "http://loinc.org",
                      "display": "Chemistry studies (set)"
                    }
                  ],
                  "text": "Chemistry"
                },
                "entry": [
                  {
                    "reference": "urn:uuid:4a62af54-a2cc-4fa4-b5f8-f5b844aae897"
                  },
                  {
                    "reference": "urn:uuid:efe3ebf1-283d-43f6-b7ce-490d5a21701c"
                  },
                  {
                    "reference": "urn:uuid:545c4a43-3d9d-44a9-aca3-fda2573cf2e7"
                  },
                  {
                    "reference": "urn:uuid:dbeaa913-97a7-4c88-9ab3-249eb0af04bf"
                  }
                ],
                "text": {
                  "status": "generated",
                  "div": "<div xmlns=\"http://www.w3.org/1999/xhtml\"><h3>Chemistry</h3><table class=\"hl7__eu__lab__report\"><thead><tr><th>Test</th><th>26-JAN-2017</th><th>Reference&#xA0;Range</th><th>Unit</th></tr></thead><tbody><tr><td>Cholesterol [Mass/volume] in Serum or Plasma</td><td>176.4</td><td>125 - 200</td><td>mg/dL</td></tr><tr><td>Triglyceride [Mass/volume] in Serum or Plasma</td><td>146.3</td><td>35 - 150</td><td>mg/dL</td></tr><tr><td>Cholesterol in LDL [Mass/volume] in Serum or Plasma by Direct assay</td><td>95.1</td><td>0 - 130</td><td>mg/dL</td></tr><tr><td>Cholesterol in HDL [Mass/volume] in Serum or Plasma</td><td>52.1</td><td>50 - 100</td><td>mg/dL</td></tr></tbody></table></div>"
                },
                "title": "Chemistry"
              }
            ],
            "title": "Laboratory Report"
          },
          {
            "text": {
              "status": "generated",
              "div": "<div xmlns=\"http://www.w3.org/1999/xhtml\"><h3>Annotation</h3><table class=\"hl7__eu__lab__report\"><tr><th>Conclusion and Recommendations based on this report and previous findings known to us</th></tr><tr><td>All lipid parameters are within normal limits, with total cholesterol, LDL, and HDL in the desirable range and triglycerides at the upper end of normal. No significant dyslipidemia is present. Continued monitoring and maintenance of a healthy lifestyle are recommended.</td></tr></table></div>"
            },
            "code": {
              "coding": [
                {
                  "system": "http://loinc.org",
                  "code": "48767-8",
                  "display": "Annotation comment"
                }
              ]
            },
            "title": "Annotation comment"
          }
        ],
        "status": "final",
        "subject": {
          "reference": "urn:uuid:6c4ae5da-dbab-4e55-8253-9e628ec4ec2b",
          "display": "Vincenza Porzio"
        },
        "date": "2017-01-26T19:51:27Z",
        "title": "Laboratory Report",
        "confidentiality": "N"
      }
    },
    {
      "fullUrl": "urn:uuid:7693e74c-7d67-4854-82ba-213a1e3ac474",
      "resource": {
        "resourceType": "DiagnosticReport",
        "id": "7693e74c-7d67-4854-82ba-213a1e3ac474",
        "meta": {
          "profile": [
            "http://hl7.eu/fhir/laboratory/StructureDefinition/DiagnosticReport-eu-lab"
          ]
        },
        "identifier": [
          {
            "assigner": {
              "display": "HL7 Europe"
            },
            "system": "urn:oid:2.16.840.1.113883.2.51.999",
            "value": "68558bd1-97a5-4e92-8c1c-d38c49a21699"
          }
        ],
        "extension": [
          {
            "url": "http://hl7.org/fhir/5.0/StructureDefinition/extension-DiagnosticReport.composition",
            "valueReference": {
              "reference": "urn:uuid:df4ebacc-16de-47e8-ac3c-4fb09d704d49"
            }
          }
        ],
        "category": [
          {
            "coding": [
              {
                "code": "26436-6",
                "system": "http://loinc.org",
                "display": "Laboratory studies (set)"
              }
            ]
          }
        ],
        "specimen": [
          {
            "reference": "urn:uuid:d10658ce-ba81-428a-9a17-f45e63d3b982"
          }
        ],
        "result": [
          {
            "reference": "urn:uuid:4a62af54-a2cc-4fa4-b5f8-f5b844aae897"
          },
          {
            "reference": "urn:uuid:efe3ebf1-283d-43f6-b7ce-490d5a21701c"
          },
          {
            "reference": "urn:uuid:545c4a43-3d9d-44a9-aca3-fda2573cf2e7"
          },
          {
            "reference": "urn:uuid:dbeaa913-97a7-4c88-9ab3-249eb0af04bf"
          }
        ],
        "status": "registered",
        "code": {
          "coding": [
            {
              "code": "11502-2",
              "system": "http://loinc.org",
              "display": "Laboratory report"
            }
          ]
        },
        "subject": {
          "reference": "urn:uuid:6c4ae5da-dbab-4e55-8253-9e628ec4ec2b",
          "display": "Vincenza Porzio"
        }
      }
    },
    {
      "fullUrl": "urn:uuid:6c4ae5da-dbab-4e55-8253-9e628ec4ec2b",
      "resource": {
        "resourceType": "Patient",
        "id": "6c4ae5da-dbab-4e55-8253-9e628ec4ec2b",
        "meta": {
          "security": [
            {
              "system": "http://terminology.hl7.org/CodeSystem/v3-ActReason",
              "code": "HTEST"
            },
            {
              "system": "http://terminology.hl7.org/CodeSystem/v3-ActReason",
              "code": "TRAIN"
            }
          ],
          "tag": [
            {
              "system": "https://synderai.net/fhir/CodeSystem/tags",
              "code": "synthetic",
              "display": "SYNDERAI Synthetic data"
            }
          ],
          "profile": [
            "http://hl7.eu/fhir/base/StructureDefinition/patient-eu-core"
          ]
        },
        "identifier": [
          {
            "type": {
              "coding": [
                {
                  "code": "PT",
                  "system": "http://terminology.hl7.org/CodeSystem/v2-0203"
                }
              ]
            },
            "system": "http://ec.europa.eu/identifier/eci",
            "value": "9988-341158-1"
          },
          {
            "type": {
              "coding": [
                {
                  "code": "MR",
                  "system": "http://terminology.hl7.org/CodeSystem/v2-0203"
                }
              ]
            },
            "system": "http://local.setting.eu/identifier",
            "value": "559a1acd-87c3-5b56-0345-4eaff6c5aa0a"
          }
        ],
        "name": [
          {
            "family": "Porzio"
          },
          {
            "given": [
              "Vincenza"
            ]
          },
          {
            "text": "Vincenza Porzio"
          }
        ],
        "address": [
          {
            "line": [
              "Piazza Allegra, 720"
            ],
            "use": "home",
            "type": "physical",
            "postalCode": "36040",
            "city": "Grumolo Pedemonte",
            "country": "Italy"
          }
        ],
        "telecom": [
          {
            "system": "phone",
            "value": "041007473"
          }
        ],
        "extension": [
          {
            "url": "http://hl7.org/fhir/StructureDefinition/patient-nationality",
            "valueCodeableConcept": {
              "coding": [
                {
                  "code": "IT",
                  "system": "http://hl7.org/fhir/ValueSet/country"
                }
              ]
            }
          }
        ],
        "text": {
          "status": "generated",
          "div": "<div xmlns=\"http://www.w3.org/1999/xhtml\"><table class=\"hl7__ips\"><tr><td>Vincenza Porzio</td><td>female</td><td>13-Sep-1965</td></tr></table></div>"
        },
        "gender": "female",
        "birthDate": "1965-09-13"
      }
    },
    {
      "fullUrl": "urn:uuid:3438fe8d-0fd1-4230-a5b3-0b431c13805b",
      "resource": {
        "resourceType": "ServiceRequest",
        "id": "3438fe8d-0fd1-4230-a5b3-0b431c13805b",
        "meta": {
          "profile": [
            "http://hl7.eu/fhir/laboratory/StructureDefinition/ServiceRequest-eu-lab"
          ]
        },
        "identifier": [
          {
            "system": "http://example.org",
            "value": "f1306da3-45aa-4346-9c4d-92abf6f780f9"
          }
        ],
        "specimen": [
          {
            "reference": "urn:uuid:d10658ce-ba81-428a-9a17-f45e63d3b982"
          }
        ],
        "reasonCode": [
          {
            "coding": [
              {
                "code": "40055000",
                "system": "http://snomed.info/sct",
                "display": "Chronic sinusitis"
              }
            ]
          },
          {
            "coding": [
              {
                "code": "15777000",
                "system": "http://snomed.info/sct",
                "display": "Prediabetes"
              }
            ]
          },
          {
            "coding": [
              {
                "code": "239873007",
                "system": "http://snomed.info/sct",
                "display": "Osteoarthritis of knee"
              }
            ]
          },
          {
            "coding": [
              {
                "code": "6525002",
                "system": "http://snomed.info/sct",
                "display": "Dependent drug abuse"
              }
            ]
          },
          {
            "coding": [
              {
                "code": "196416002",
                "system": "http://snomed.info/sct",
                "display": "Impacted molars"
              }
            ]
          },
          {
            "coding": [
              {
                "code": "124171000119105",
                "system": "http://snomed.info/sct",
                "display": "Chronic intractable migraine without aura"
              }
            ]
          }
        ],
        "status": "active",
        "intent": "order",
        "code": {
          "coding": [
            {
              "code": "108252007",
              "system": "http://snomed.info/sct",
              "display": "Laboratory procedure"
            }
          ]
        },
        "subject": {
          "reference": "urn:uuid:6c4ae5da-dbab-4e55-8253-9e628ec4ec2b",
          "display": "Vincenza Porzio"
        },
        "requester": {
          "reference": "urn:uuid:fa723254-0958-43e4-ba19-f64731e63eeb"
        }
      }
    },
    {
      "fullUrl": "urn:uuid:fa723254-0958-43e4-ba19-f64731e63eeb",
      "resource": {
        "resourceType": "PractitionerRole",
        "id": "fa723254-0958-43e4-ba19-f64731e63eeb",
        "meta": {
          "profile": [
            "http://hl7.eu/fhir/base/StructureDefinition/practitionerRole-eu"
          ]
        },
        "text": {
          "status": "generated",
          "div": "<div xmlns=\"http://www.w3.org/1999/xhtml\">Provider Role Id: fa723254-0958-43e4-ba19-f64731e63eeb</div>"
        },
        "organization": {
          "reference": "urn:uuid:270c571e-590a-4b0e-9971-b179ab56739d"
        }
      }
    },
    {
      "fullUrl": "urn:uuid:270c571e-590a-4b0e-9971-b179ab56739d",
      "resource": {
        "resourceType": "Organization",
        "id": "270c571e-590a-4b0e-9971-b179ab56739d",
        "meta": {
          "profile": [
            "http://hl7.eu/fhir/base/StructureDefinition/organization-eu"
          ]
        },
        "identifier": [
          {
            "assigner": {
              "display": "HL7 Europe"
            },
            "system": "urn:oid:2.16.840.1.113883.2.51.999",
            "value": "d0d9632a-d1c3-4958-aea9-930bb2e800d3"
          }
        ],
        "address": [
          {
            "country": "Italy"
          }
        ],
        "text": {
          "status": "generated",
          "div": "<div xmlns=\"http://www.w3.org/1999/xhtml\">Provider Organization: Villa Margherita</div>"
        },
        "name": "Villa Margherita"
      }
    },
    {
      "fullUrl": "urn:uuid:d10658ce-ba81-428a-9a17-f45e63d3b982",
      "resource": {
        "resourceType": "Specimen",
        "id": "d10658ce-ba81-428a-9a17-f45e63d3b982",
        "meta": {
          "profile": [
            "http://hl7.eu/fhir/laboratory/StructureDefinition/Specimen-eu-lab"
          ]
        },
        "collection": {
          "collectedDateTime": "2017-01-26"
        },
        "text": {
          "status": "generated",
          "div": "<div xmlns=\"http://www.w3.org/1999/xhtml\"><table class=\"hl7__eu__lab__report\"><tr><th>Specimen</th><th>Collection Date</th></tr><tr><td>Acellular blood (serum or plasma) specimen</td><td><span class=\"nb\">26-Jan-2017</span></td></tr></table></div>"
        },
        "type": {
          "coding": [
            {
              "code": "122592007",
              "system": "http://snomed.info/sct",
              "display": "Acellular blood (serum or plasma) specimen"
            }
          ]
        }
      }
    },
    {
      "fullUrl": "urn:uuid:4a62af54-a2cc-4fa4-b5f8-f5b844aae897",
      "resource": {
        "resourceType": "Observation",
        "id": "4a62af54-a2cc-4fa4-b5f8-f5b844aae897",
        "meta": {
          "profile": [
            "http://hl7.eu/fhir/laboratory/StructureDefinition/Observation-resultslab-eu-lab"
          ]
        },
        "performer": [
          {
            "display": "The Central European Lab"
          }
        ],
        "category": [
          {
            "coding": [
              {
                "system": "http://terminology.hl7.org/CodeSystem/observation-category",
                "code": "laboratory"
              }
            ]
          }
        ],
        "code": {
          "coding": [
            {
              "code": "2093-3",
              "system": "http://loinc.org",
              "display": "Cholesterol [Mass/volume] in Serum or Plasma"
            }
          ],
          "text": "Cholesterol [Mass/volume] in Serum or Plasma"
        },
        "valueQuantity": {
          "system": "http://unitsofmeasure.org",
          "value": 176.4,
          "unit": "mg/dL",
          "code": "mg/dL"
        },
        "referenceRange": [
          {
            "low": {
              "value": 125,
              "code": "mg/dL",
              "system": "http://unitsofmeasure.org"
            }
          },
          {
            "high": {
              "value": 200,
              "code": "mg/dL",
              "system": "http://unitsofmeasure.org"
            }
          }
        ],
        "text": {
          "status": "generated",
          "div": "<div xmlns=\"http://www.w3.org/1999/xhtml\"><table class=\"hl7__eu__lab__report\"><tr><th>Test</th><th>26-Jan-2017</th><th>Reference&#xA0;Range</th><th>Unit</th></tr><tr><td>Cholesterol [Mass/volume] in Serum or Plasma</td><td>176.4</td><td>125 - 200</td><td></td><td>mg/dL</td></tr></table></div>"
        },
        "status": "final",
        "subject": {
          "reference": "urn:uuid:6c4ae5da-dbab-4e55-8253-9e628ec4ec2b",
          "display": "Vincenza Porzio"
        },
        "effectiveDateTime": "2017-01-26T18:51:27Z",
        "specimen": {
          "reference": "urn:uuid:d10658ce-ba81-428a-9a17-f45e63d3b982"
        }
      }
    },
    {
      "fullUrl": "urn:uuid:efe3ebf1-283d-43f6-b7ce-490d5a21701c",
      "resource": {
        "resourceType": "Observation",
        "id": "efe3ebf1-283d-43f6-b7ce-490d5a21701c",
        "meta": {
          "profile": [
            "http://hl7.eu/fhir/laboratory/StructureDefinition/Observation-resultslab-eu-lab"
          ]
        },
        "performer": [
          {
            "display": "The Central European Lab"
          }
        ],
        "category": [
          {
            "coding": [
              {
                "system": "http://terminology.hl7.org/CodeSystem/observation-category",
                "code": "laboratory"
              }
            ]
          }
        ],
        "code": {
          "coding": [
            {
              "code": "2571-8",
              "system": "http://loinc.org",
              "display": "Triglyceride [Mass/volume] in Serum or Plasma"
            }
          ],
          "text": "Triglyceride [Mass/volume] in Serum or Plasma"
        },
        "valueQuantity": {
          "system": "http://unitsofmeasure.org",
          "value": 146.3,
          "unit": "mg/dL",
          "code": "mg/dL"
        },
        "referenceRange": [
          {
            "low": {
              "value": 35,
              "code": "mg/dL",
              "system": "http://unitsofmeasure.org"
            }
          },
          {
            "high": {
              "value": 150,
              "code": "mg/dL",
              "system": "http://unitsofmeasure.org"
            }
          }
        ],
        "text": {
          "status": "generated",
          "div": "<div xmlns=\"http://www.w3.org/1999/xhtml\"><table class=\"hl7__eu__lab__report\"><tr><th>Test</th><th>26-Jan-2017</th><th>Reference&#xA0;Range</th><th>Unit</th></tr><tr><td>Triglyceride [Mass/volume] in Serum or Plasma</td><td>146.3</td><td>35 - 150</td><td></td><td>mg/dL</td></tr></table></div>"
        },
        "status": "final",
        "subject": {
          "reference": "urn:uuid:6c4ae5da-dbab-4e55-8253-9e628ec4ec2b",
          "display": "Vincenza Porzio"
        },
        "effectiveDateTime": "2017-01-26T18:51:27Z",
        "specimen": {
          "reference": "urn:uuid:d10658ce-ba81-428a-9a17-f45e63d3b982"
        }
      }
    },
    {
      "fullUrl": "urn:uuid:545c4a43-3d9d-44a9-aca3-fda2573cf2e7",
      "resource": {
        "resourceType": "Observation",
        "id": "545c4a43-3d9d-44a9-aca3-fda2573cf2e7",
        "meta": {
          "profile": [
            "http://hl7.eu/fhir/laboratory/StructureDefinition/Observation-resultslab-eu-lab"
          ]
        },
        "performer": [
          {
            "display": "The Central European Lab"
          }
        ],
        "category": [
          {
            "coding": [
              {
                "system": "http://terminology.hl7.org/CodeSystem/observation-category",
                "code": "laboratory"
              }
            ]
          }
        ],
        "code": {
          "coding": [
            {
              "code": "18262-6",
              "system": "http://loinc.org",
              "display": "Cholesterol in LDL [Mass/volume] in Serum or Plasma by Direct assay"
            }
          ],
          "text": "Cholesterol in LDL [Mass/volume] in Serum or Plasma by Direct assay"
        },
        "valueQuantity": {
          "system": "http://unitsofmeasure.org",
          "value": 95.1,
          "unit": "mg/dL",
          "code": "mg/dL"
        },
        "referenceRange": [
          {
            "low": {
              "value": 0,
              "code": "mg/dL",
              "system": "http://unitsofmeasure.org"
            }
          },
          {
            "high": {
              "value": 130,
              "code": "mg/dL",
              "system": "http://unitsofmeasure.org"
            }
          }
        ],
        "text": {
          "status": "generated",
          "div": "<div xmlns=\"http://www.w3.org/1999/xhtml\"><table class=\"hl7__eu__lab__report\"><tr><th>Test</th><th>26-Jan-2017</th><th>Reference&#xA0;Range</th><th>Unit</th></tr><tr><td>Cholesterol in LDL [Mass/volume] in Serum or Plasma by Direct assay</td><td>95.1</td><td>0 - 130</td><td></td><td>mg/dL</td></tr></table></div>"
        },
        "status": "final",
        "subject": {
          "reference": "urn:uuid:6c4ae5da-dbab-4e55-8253-9e628ec4ec2b",
          "display": "Vincenza Porzio"
        },
        "effectiveDateTime": "2017-01-26T18:51:27Z",
        "specimen": {
          "reference": "urn:uuid:d10658ce-ba81-428a-9a17-f45e63d3b982"
        }
      }
    },
    {
      "fullUrl": "urn:uuid:dbeaa913-97a7-4c88-9ab3-249eb0af04bf",
      "resource": {
        "resourceType": "Observation",
        "id": "dbeaa913-97a7-4c88-9ab3-249eb0af04bf",
        "meta": {
          "profile": [
            "http://hl7.eu/fhir/laboratory/StructureDefinition/Observation-resultslab-eu-lab"
          ]
        },
        "performer": [
          {
            "display": "The Central European Lab"
          }
        ],
        "category": [
          {
            "coding": [
              {
                "system": "http://terminology.hl7.org/CodeSystem/observation-category",
                "code": "laboratory"
              }
            ]
          }
        ],
        "code": {
          "coding": [
            {
              "code": "2085-9",
              "system": "http://loinc.org",
              "display": "Cholesterol in HDL [Mass/volume] in Serum or Plasma"
            }
          ],
          "text": "Cholesterol in HDL [Mass/volume] in Serum or Plasma"
        },
        "valueQuantity": {
          "system": "http://unitsofmeasure.org",
          "value": 52.1,
          "unit": "mg/dL",
          "code": "mg/dL"
        },
        "referenceRange": [
          {
            "low": {
              "value": 50,
              "code": "mg/dL",
              "system": "http://unitsofmeasure.org"
            }
          },
          {
            "high": {
              "value": 100,
              "code": "mg/dL",
              "system": "http://unitsofmeasure.org"
            }
          }
        ],
        "text": {
          "status": "generated",
          "div": "<div xmlns=\"http://www.w3.org/1999/xhtml\"><table class=\"hl7__eu__lab__report\"><tr><th>Test</th><th>26-Jan-2017</th><th>Reference&#xA0;Range</th><th>Unit</th></tr><tr><td>Cholesterol in HDL [Mass/volume] in Serum or Plasma</td><td>52.1</td><td>50 - 100</td><td></td><td>mg/dL</td></tr></table></div>"
        },
        "status": "final",
        "subject": {
          "reference": "urn:uuid:6c4ae5da-dbab-4e55-8253-9e628ec4ec2b",
          "display": "Vincenza Porzio"
        },
        "effectiveDateTime": "2017-01-26T18:51:27Z",
        "specimen": {
          "reference": "urn:uuid:d10658ce-ba81-428a-9a17-f45e63d3b982"
        }
      }
    },
    {
      "fullUrl": "urn:uuid:dccf1693-1d25-4ade-a95f-f3cd2b67cc63",
      "resource": {
        "resourceType": "Device",
        "id": "dccf1693-1d25-4ade-a95f-f3cd2b67cc63",
        "deviceName": [
          {
            "name": "SYNDERAI Synthetic Generator",
            "type": "manufacturer-name"
          }
        ],
        "version": [
          {
            "value": "5.0"
          }
        ],
        "text": {
          "status": "generated",
          "div": "<div xmlns=\"http://www.w3.org/1999/xhtml\">SYNDERAI Synthetic Generator v5.0</div>"
        },
        "status": "active\"",
        "distinctIdentifier": "synderai-generator-50",
        "manufacturer": "SYNDERAI Project"
      }
    },
    {
      "fullUrl": "urn:uuid:0a36f46b-f440-447f-ae6c-69e3874e6fc2",
      "resource": {
        "resourceType": "Provenance",
        "id": "0a36f46b-f440-447f-ae6c-69e3874e6fc2",
        "target": [
          {
            "reference": "Patient/6c4ae5da-dbab-4e55-8253-9e628ec4ec2b"
          },
          {
            "reference": "Bundle/6bf1dcbe-21d3-4c84-bd98-f6dea23685ce"
          },
          {
            "reference": "Composition/247801ec-a565-4bd5-ad28-dfa74a49bc82"
          },
          {
            "reference": "PractitionerRole/163824b4-757b-4850-ab48-957e2a126d49"
          },
          {
            "reference": "Practitioner/e807c89c-82da-481f-801c-6fbb9e217ee5"
          },
          {
            "reference": "PractitionerRole/fa723254-0958-43e4-ba19-f64731e63eeb"
          },
          {
            "reference": "Organization/270c571e-590a-4b0e-9971-b179ab56739d"
          }
        ],
        "activity": {
          "text": "Synthetic Example Data Generation"
        },
        "policy": [
          "https://synderai.net/synderai-synthetic-data-policy"
        ],
        "agent": [
          {
            "type": {
              "text": "author"
            },
            "who": {
              "reference": "Device/dccf1693-1d25-4ade-a95f-f3cd2b67cc63"
            }
          }
        ],
        "reason": [
          {
            "text": "Interoperability Testing and Training (non-clinical use)"
          }
        ],
        "text": {
          "status": "generated",
          "div": "<div xmlns=\"http://www.w3.org/1999/xhtml\">Provenance for SYNDERAI Synthetic Example Data Resource</div>"
        },
        "recorded": "2017-01-26T19:51:27Z"
      }
    },
    {
      "fullUrl": "urn:uuid:163824b4-757b-4850-ab48-957e2a126d49",
      "resource": {
        "resourceType": "PractitionerRole",
        "id": "163824b4-757b-4850-ab48-957e2a126d49",
        "meta": {
          "profile": [
            "http://hl7.eu/fhir/base/StructureDefinition/practitionerRole-eu"
          ]
        },
        "text": {
          "status": "generated",
          "div": "<div xmlns=\"http://www.w3.org/1999/xhtml\">Laboratory Role Id: 163824b4-757b-4850-ab48-957e2a126d49</div>"
        },
        "practitioner": {
          "reference": "urn:uuid:e807c89c-82da-481f-801c-6fbb9e217ee5"
        }
      }
    },
    {
      "fullUrl": "urn:uuid:e807c89c-82da-481f-801c-6fbb9e217ee5",
      "resource": {
        "resourceType": "Practitioner",
        "id": "e807c89c-82da-481f-801c-6fbb9e217ee5",
        "meta": {
          "profile": [
            "http://hl7.eu/fhir/base/StructureDefinition/practitioner-eu"
          ]
        },
        "identifier": [
          {
            "assigner": {
              "display": "HL7 Europe"
            },
            "system": "urn:oid:2.16.840.1.113883.2.51.999",
            "value": "2a435003-f73f-46c0-b8f7-b65e4b1ad9c6"
          }
        ],
        "name": [
          {
            "prefix": [
              "dr"
            ],
            "given": [
              "Ex"
            ],
            "family": "Ample"
          }
        ],
        "address": [
          {
            "line": [
              "Laboratoire Central Européenne",
              "Boulevard du Jardin Botanique 32"
            ],
            "postalCode": "1000",
            "city": "Brussels",
            "country": "Belgium"
          }
        ],
        "text": {
          "status": "generated",
          "div": "<div xmlns=\"http://www.w3.org/1999/xhtml\">Laboratory: Laboratoire Central Européenne, 1000 Brussels, Belgium</div>"
        }
      }
    }
  ],
  "type": "document",
  "timestamp": "2017-01-26T19:51:27Z"
}
