{
  "resourceType": "Bundle",
  "id": "38a88b4e-4f6c-4082-8bd4-fe5a26fb8f31",
  "meta": {
    "profile": [
      "http://hl7.eu/fhir/laboratory/StructureDefinition/Bundle-eu-lab"
    ]
  },
  "identifier": {
    "assigner": {
      "display": "HL7 Europe"
    },
    "system": "urn:oid:2.16.840.1.113883.2.51.999",
    "value": "d69713ff-ca02-47dd-a8fe-f1bfeda777a4"
  },
  "entry": [
    {
      "fullUrl": "urn:uuid:fd9715ab-f2ba-459f-bbc7-58aed4bc440c",
      "resource": {
        "resourceType": "Composition",
        "id": "fd9715ab-f2ba-459f-bbc7-58aed4bc440c",
        "meta": {
          "profile": [
            "http://hl7.eu/fhir/laboratory/StructureDefinition/Composition-eu-lab"
          ]
        },
        "identifier": {
          "assigner": {
            "display": "HL7 Europe"
          },
          "system": "urn:oid:2.16.840.1.113883.2.51.999",
          "value": "5af52d76-1cc4-4a61-91c1-d46677a6b572"
        },
        "author": [
          {
            "reference": "urn:uuid:77174c6d-68f3-4edd-bcfa-a4f7bdea3e60"
          }
        ],
        "category": [
          {
            "coding": [
              {
                "code": "26436-6",
                "system": "http://loinc.org",
                "display": "Laboratory studies (set)"
              }
            ]
          }
        ],
        "type": {
          "coding": [
            {
              "code": "11502-2",
              "system": "http://loinc.org",
              "display": "Laboratory report"
            }
          ],
          "text": "Laboratory Report"
        },
        "section": [
          {
            "code": {
              "coding": [
                {
                  "code": "26436-6",
                  "system": "http://loinc.org",
                  "display": "Laboratory studies (set)"
                }
              ],
              "text": "Laboratory studies"
            },
            "section": [
              {
                "code": {
                  "coding": [
                    {
                      "code": "$18719-5",
                      "system": "http://loinc.org",
                      "display": "Chemistry studies (set)"
                    }
                  ],
                  "text": "Chemistry"
                },
                "entry": [
                  {
                    "reference": "urn:uuid:83f744dc-225c-4cac-89ab-db481be07810"
                  },
                  {
                    "reference": "urn:uuid:18f7ded8-49f2-46b5-8154-fa84b3c0d982"
                  },
                  {
                    "reference": "urn:uuid:51014375-f9e2-4014-b403-aac03b09a423"
                  },
                  {
                    "reference": "urn:uuid:b95d5ce9-cccf-4097-8552-f5f7cf86cec7"
                  },
                  {
                    "reference": "urn:uuid:94da0787-073a-413e-8599-016a21e58384"
                  },
                  {
                    "reference": "urn:uuid:17b988b3-edfb-47e3-ae89-85913e8aa793"
                  },
                  {
                    "reference": "urn:uuid:39ac590b-6d31-4b4c-b5e4-e6680ff461ec"
                  },
                  {
                    "reference": "urn:uuid:721b0ee4-51d5-45b6-ba79-43a990d8b75d"
                  },
                  {
                    "reference": "urn:uuid:5f8673ab-52e6-4d29-8e61-72e10fa566db"
                  },
                  {
                    "reference": "urn:uuid:f729926c-c4b8-474a-85f8-80ad7d26fd4f"
                  },
                  {
                    "reference": "urn:uuid:9e542d29-f9b1-4052-9917-36c571405e81"
                  },
                  {
                    "reference": "urn:uuid:001cd9d2-96e1-4e1a-8b89-7f2db97c60ed"
                  },
                  {
                    "reference": "urn:uuid:e8f61f11-533b-4ca3-9165-d5846f47503c"
                  },
                  {
                    "reference": "urn:uuid:29a3ffad-b173-4374-ba4b-a83f477d62f7"
                  },
                  {
                    "reference": "urn:uuid:e0955431-470e-4694-a252-43802f112497"
                  },
                  {
                    "reference": "urn:uuid:cd1546fa-8c9d-41ea-84ab-844dc894a386"
                  },
                  {
                    "reference": "urn:uuid:19ae6263-a1e2-4fd8-9419-e69060e4f0c6"
                  },
                  {
                    "reference": "urn:uuid:9eaf95cd-f17f-47b4-8205-ac929332e789"
                  }
                ],
                "text": {
                  "status": "generated",
                  "div": "<div xmlns=\"http://www.w3.org/1999/xhtml\"><h3>Chemistry</h3><table class=\"hl7__eu__lab__report\"><thead><tr><th>Test</th><th>05-MAR-2020</th><th>Reference&#xA0;Range</th><th>Unit</th></tr></thead><tbody><tr><td>Glucose [Mass/volume] in Serum or Plasma</td><td>80.3</td><td>70 - 140</td><td>mg/dL</td></tr><tr><td>Urea nitrogen [Mass/volume] in Serum or Plasma</td><td>8.4</td><td>7 - 25</td><td>mg/dL</td></tr><tr><td>Creatinine [Mass/volume] in Serum or Plasma</td><td><strong>1.9 H</strong></td><td>0.9 - 1.3</td><td>mg/dL</td></tr><tr><td>Calcium [Mass/volume] in Serum or Plasma</td><td>9.6</td><td>8.5 - 10.5</td><td>mg/dL</td></tr><tr><td>Sodium [Moles/volume] in Serum or Plasma</td><td>138.4</td><td>135 - 145</td><td>mmol/L</td></tr><tr><td>Potassium [Moles/volume] in Serum or Plasma</td><td>5.1</td><td>3.5 - 5.3</td><td>mmol/L</td></tr><tr><td>Chloride [Moles/volume] in Serum or Plasma</td><td>103.9</td><td>98 - 107</td><td>mmol/L</td></tr><tr><td>Carbon dioxide, total [Moles/volume] in Serum or Plasma</td><td><strong>20.5 L</strong></td><td>22 - 29</td><td>mmol/L</td></tr><tr><td>Ketones [Presence] in Urine by Test strip</td><td>Urine ketone test = +</td><td></td><td></td></tr><tr><td>Hemoglobin A1c/Hemoglobin.total in Blood</td><td><strong>2.8 L</strong></td><td>4.5 - 6.4</td><td>%</td></tr><tr><td>Glucose [Mass/volume] in Blood</td><td>80.3</td><td>70 - 140</td><td>mg/dL</td></tr><tr><td>Urea nitrogen [Mass/volume] in Blood</td><td>8.4</td><td>7 - 25</td><td>mg/dL</td></tr><tr><td>Creatinine [Mass/volume] in Blood</td><td><strong>1.6 H</strong></td><td>0.9 - 1.3</td><td>mg/dL</td></tr><tr><td>Calcium [Mass/volume] in Blood</td><td>9.6</td><td>8.6 - 10.2</td><td>mg/dL</td></tr><tr><td>Sodium [Moles/volume] in Blood</td><td>138.4</td><td>135 - 145</td><td>mmol/L</td></tr><tr><td>Potassium [Moles/volume] in Blood</td><td>5.1</td><td>3.5 - 5.1</td><td>mmol/L</td></tr><tr><td>Chloride [Moles/volume] in Blood</td><td>103.9</td><td>98 - 108</td><td>mmol/L</td></tr><tr><td>Carbon dioxide, total [Moles/volume] in Blood</td><td><strong>20.5 L</strong></td><td>22 - 32</td><td>mmol/L</td></tr></tbody></table></div>"
                },
                "title": "Chemistry"
              },
              {
                "code": {
                  "coding": [
                    {
                      "code": "$18729-4",
                      "system": "http://loinc.org",
                      "display": "Urinalysis studies (set)"
                    }
                  ],
                  "text": "Urinalysis"
                },
                "entry": [
                  {
                    "reference": "urn:uuid:13f49eb8-982e-4137-9ad5-d4ca85c164d0"
                  },
                  {
                    "reference": "urn:uuid:1cec0fa7-2bb2-477e-8f4e-f8e6f5858740"
                  },
                  {
                    "reference": "urn:uuid:48f51526-e624-4dfb-8892-ffa819405558"
                  },
                  {
                    "reference": "urn:uuid:1c69697c-de46-4e78-8037-a5a68f1e9783"
                  },
                  {
                    "reference": "urn:uuid:75a259a6-6b5f-4c3b-88f6-f82fc7226ee5"
                  },
                  {
                    "reference": "urn:uuid:a88dcf49-382b-4f2a-a88e-97eb6a2bef57"
                  },
                  {
                    "reference": "urn:uuid:0e53360b-f57f-468e-8bdc-35d47c4ff37c"
                  },
                  {
                    "reference": "urn:uuid:8f1d8f18-87b3-4482-a67d-a45ac894846e"
                  },
                  {
                    "reference": "urn:uuid:bd80c431-84ae-45a6-8e04-58cf92041333"
                  },
                  {
                    "reference": "urn:uuid:63514008-7936-4229-9700-1915d05b7fab"
                  },
                  {
                    "reference": "urn:uuid:bfcce68f-61ac-4728-91cf-f2fe7a7fade4"
                  },
                  {
                    "reference": "urn:uuid:d855467e-ff03-4b97-a14d-d75de02427e3"
                  }
                ],
                "text": {
                  "status": "generated",
                  "div": "<div xmlns=\"http://www.w3.org/1999/xhtml\"><h3>Urinalysis</h3><table class=\"hl7__eu__lab__report\"><thead><tr><th>Test</th><th>05-MAR-2020</th><th>Reference&#xA0;Range</th><th>Unit</th></tr></thead><tbody><tr><td>Glucose [Mass/volume] in Urine by Test strip</td><td><strong>1.9 H</strong></td><td>0.8 - 0</td><td>mg/dL</td></tr><tr><td>Glucose [Presence] in Urine by Test strip</td><td>++</td><td></td><td></td></tr><tr><td>Bilirubin.total [Mass/volume] in Urine by Test strip</td><td>0.4</td><td>0.2 - 1.5</td><td>mg/dL</td></tr><tr><td>Bilirubin.total [Presence] in Urine by Test strip</td><td>Finding of bilirubin in urine</td><td></td><td></td></tr><tr><td>Ketones [Mass/volume] in Urine by Test strip</td><td>0.6</td><td>0 - 4</td><td>mg/dL</td></tr><tr><td>Specific gravity of Urine by Test strip</td><td><strong>1.0 L</strong></td><td>1.01 - 1.03</td><td>{nominal}</td></tr><tr><td>pH of Urine by Test strip</td><td>6.3</td><td>4.5 - 7.5</td><td>pH</td></tr><tr><td>Protein [Mass/volume] in Urine by Test strip</td><td><strong>189.7 H</strong></td><td>0 - 150</td><td>mg/dL</td></tr><tr><td>Protein [Presence] in Urine by Test strip</td><td>Urine protein test = ++</td><td></td><td></td></tr><tr><td>Nitrite [Presence] in Urine by Test strip</td><td>Urine nitrite negative</td><td></td><td></td></tr><tr><td>Hemoglobin [Presence] in Urine by Test strip</td><td>Urine blood test = negative</td><td></td><td></td></tr><tr><td>Leukocyte esterase [Presence] in Urine by Test strip</td><td>Urine leukocyte test negative</td><td></td><td></td></tr></tbody></table></div>"
                },
                "title": "Urinalysis"
              },
              {
                "code": {
                  "coding": [
                    {
                      "code": "$LP7846-1",
                      "system": "http://loinc.org",
                      "display": "Specimen information"
                    }
                  ],
                  "text": "Specimen information"
                },
                "entry": [
                  {
                    "reference": "urn:uuid:d077d107-3d57-49d6-9398-6b091395232f"
                  },
                  {
                    "reference": "urn:uuid:8006e186-2e7c-4085-8230-b6b5e957439b"
                  },
                  {
                    "reference": "urn:uuid:8c5ac0a6-7a79-4f80-a696-a421af3cf052"
                  },
                  {
                    "reference": "urn:uuid:a8cb9aad-6af1-4a46-890e-aeec56168701"
                  }
                ],
                "text": {
                  "status": "generated",
                  "div": "<div xmlns=\"http://www.w3.org/1999/xhtml\"><h3>Specimen information</h3><table class=\"hl7__eu__lab__report\"><thead><tr><th>Test</th><th>05-MAR-2020</th><th>Specimen</th><th></th></tr></thead><tbody><tr><td>Appearance of Urine</td><td>Cloudy urine</td><td>Urine</td><td></td></tr><tr><td>Odor of Urine</td><td>Urine smell ammoniacal</td><td>Urine</td><td></td></tr><tr><td>Clarity of Urine</td><td>Translucent</td><td>Urine</td><td></td></tr><tr><td>Color of Urine</td><td>Brown color</td><td>Urine</td><td></td></tr></tbody></table></div>"
                },
                "title": "Specimen information"
              }
            ],
            "title": "Laboratory Report"
          },
          {
            "text": {
              "status": "generated",
              "div": "<div xmlns=\"http://www.w3.org/1999/xhtml\"><h3>Annotation</h3><table class=\"hl7__eu__lab__report\"><tr><th>Conclusion and Recommendations based on this report and previous findings known to us</th></tr><tr><td>The patient shows mildly elevated creatinine, suggesting possible renal impairment, and low total CO₂, which may indicate mild metabolic acidosis. Urinalysis reveals proteinuria, glucosuria, ketonuria, low specific gravity, and abnormal urine appearance, raising suspicion for renal dysfunction and possible glycosuria unrelated to diabetes (low HbA1c). No evidence of urinary infection. Recommend further evaluation of renal function and consideration of non-diabetic causes for glucosuria.</td></tr></table></div>"
            },
            "code": {
              "coding": [
                {
                  "system": "http://loinc.org",
                  "code": "48767-8",
                  "display": "Annotation comment"
                }
              ]
            },
            "title": "Annotation comment"
          }
        ],
        "status": "final",
        "subject": {
          "reference": "urn:uuid:17c53d43-c6ee-4f9d-be51-76089f621faf",
          "display": "Pelayo Casal"
        },
        "date": "2020-03-05T06:38:59Z",
        "title": "Laboratory Report",
        "confidentiality": "N"
      }
    },
    {
      "fullUrl": "urn:uuid:5fad774b-8311-4303-a326-543e027fffde",
      "resource": {
        "resourceType": "DiagnosticReport",
        "id": "5fad774b-8311-4303-a326-543e027fffde",
        "meta": {
          "profile": [
            "http://hl7.eu/fhir/laboratory/StructureDefinition/DiagnosticReport-eu-lab"
          ]
        },
        "identifier": [
          {
            "assigner": {
              "display": "HL7 Europe"
            },
            "system": "urn:oid:2.16.840.1.113883.2.51.999",
            "value": "bbfcfb74-1e74-4c2e-9431-479b628cdef3"
          }
        ],
        "extension": [
          {
            "url": "http://hl7.org/fhir/5.0/StructureDefinition/extension-DiagnosticReport.composition",
            "valueReference": {
              "reference": "urn:uuid:5af52d76-1cc4-4a61-91c1-d46677a6b572"
            }
          }
        ],
        "category": [
          {
            "coding": [
              {
                "code": "26436-6",
                "system": "http://loinc.org",
                "display": "Laboratory studies (set)"
              }
            ]
          }
        ],
        "specimen": [
          {
            "reference": "urn:uuid:8bce6c80-2cc9-4b62-8082-c0ab05192ab7"
          },
          {
            "reference": "urn:uuid:0708ee24-54be-43a7-ac54-f4992fadd3d4"
          },
          {
            "reference": "urn:uuid:3d7659f6-29d5-42c7-9247-e6a421461c09"
          }
        ],
        "result": [
          {
            "reference": "urn:uuid:83f744dc-225c-4cac-89ab-db481be07810"
          },
          {
            "reference": "urn:uuid:18f7ded8-49f2-46b5-8154-fa84b3c0d982"
          },
          {
            "reference": "urn:uuid:51014375-f9e2-4014-b403-aac03b09a423"
          },
          {
            "reference": "urn:uuid:b95d5ce9-cccf-4097-8552-f5f7cf86cec7"
          },
          {
            "reference": "urn:uuid:94da0787-073a-413e-8599-016a21e58384"
          },
          {
            "reference": "urn:uuid:17b988b3-edfb-47e3-ae89-85913e8aa793"
          },
          {
            "reference": "urn:uuid:39ac590b-6d31-4b4c-b5e4-e6680ff461ec"
          },
          {
            "reference": "urn:uuid:721b0ee4-51d5-45b6-ba79-43a990d8b75d"
          },
          {
            "reference": "urn:uuid:d077d107-3d57-49d6-9398-6b091395232f"
          },
          {
            "reference": "urn:uuid:8006e186-2e7c-4085-8230-b6b5e957439b"
          },
          {
            "reference": "urn:uuid:8c5ac0a6-7a79-4f80-a696-a421af3cf052"
          },
          {
            "reference": "urn:uuid:a8cb9aad-6af1-4a46-890e-aeec56168701"
          },
          {
            "reference": "urn:uuid:13f49eb8-982e-4137-9ad5-d4ca85c164d0"
          },
          {
            "reference": "urn:uuid:1cec0fa7-2bb2-477e-8f4e-f8e6f5858740"
          },
          {
            "reference": "urn:uuid:48f51526-e624-4dfb-8892-ffa819405558"
          },
          {
            "reference": "urn:uuid:1c69697c-de46-4e78-8037-a5a68f1e9783"
          },
          {
            "reference": "urn:uuid:75a259a6-6b5f-4c3b-88f6-f82fc7226ee5"
          },
          {
            "reference": "urn:uuid:5f8673ab-52e6-4d29-8e61-72e10fa566db"
          },
          {
            "reference": "urn:uuid:a88dcf49-382b-4f2a-a88e-97eb6a2bef57"
          },
          {
            "reference": "urn:uuid:0e53360b-f57f-468e-8bdc-35d47c4ff37c"
          },
          {
            "reference": "urn:uuid:8f1d8f18-87b3-4482-a67d-a45ac894846e"
          },
          {
            "reference": "urn:uuid:bd80c431-84ae-45a6-8e04-58cf92041333"
          },
          {
            "reference": "urn:uuid:63514008-7936-4229-9700-1915d05b7fab"
          },
          {
            "reference": "urn:uuid:bfcce68f-61ac-4728-91cf-f2fe7a7fade4"
          },
          {
            "reference": "urn:uuid:d855467e-ff03-4b97-a14d-d75de02427e3"
          },
          {
            "reference": "urn:uuid:f729926c-c4b8-474a-85f8-80ad7d26fd4f"
          },
          {
            "reference": "urn:uuid:9e542d29-f9b1-4052-9917-36c571405e81"
          },
          {
            "reference": "urn:uuid:001cd9d2-96e1-4e1a-8b89-7f2db97c60ed"
          },
          {
            "reference": "urn:uuid:e8f61f11-533b-4ca3-9165-d5846f47503c"
          },
          {
            "reference": "urn:uuid:29a3ffad-b173-4374-ba4b-a83f477d62f7"
          },
          {
            "reference": "urn:uuid:e0955431-470e-4694-a252-43802f112497"
          },
          {
            "reference": "urn:uuid:cd1546fa-8c9d-41ea-84ab-844dc894a386"
          },
          {
            "reference": "urn:uuid:19ae6263-a1e2-4fd8-9419-e69060e4f0c6"
          },
          {
            "reference": "urn:uuid:9eaf95cd-f17f-47b4-8205-ac929332e789"
          }
        ],
        "status": "registered",
        "code": {
          "coding": [
            {
              "code": "11502-2",
              "system": "http://loinc.org",
              "display": "Laboratory report"
            }
          ]
        },
        "subject": {
          "reference": "urn:uuid:17c53d43-c6ee-4f9d-be51-76089f621faf",
          "display": "Pelayo Casal"
        }
      }
    },
    {
      "fullUrl": "urn:uuid:17c53d43-c6ee-4f9d-be51-76089f621faf",
      "resource": {
        "resourceType": "Patient",
        "id": "17c53d43-c6ee-4f9d-be51-76089f621faf",
        "meta": {
          "security": [
            {
              "system": "http://terminology.hl7.org/CodeSystem/v3-ActReason",
              "code": "HTEST"
            },
            {
              "system": "http://terminology.hl7.org/CodeSystem/v3-ActReason",
              "code": "TRAIN"
            }
          ],
          "tag": [
            {
              "system": "https://synderai.net/fhir/CodeSystem/tags",
              "code": "synthetic",
              "display": "SYNDERAI Synthetic data"
            }
          ],
          "profile": [
            "http://hl7.eu/fhir/base/StructureDefinition/patient-eu-core"
          ]
        },
        "identifier": [
          {
            "type": {
              "coding": [
                {
                  "code": "PT",
                  "system": "http://terminology.hl7.org/CodeSystem/v2-0203"
                }
              ]
            },
            "system": "http://ec.europa.eu/identifier/eci",
            "value": "7707-510028-7"
          },
          {
            "type": {
              "coding": [
                {
                  "code": "MR",
                  "system": "http://terminology.hl7.org/CodeSystem/v2-0203"
                }
              ]
            },
            "system": "http://local.setting.eu/identifier",
            "value": "d88e82c6-df33-82d2-8538-f8b57da06491"
          }
        ],
        "name": [
          {
            "family": "Casal"
          },
          {
            "given": [
              "Pelayo"
            ]
          },
          {
            "text": "Pelayo Casal"
          }
        ],
        "address": [
          {
            "line": [
              "Callejón de Ignacio Pedrosa 67 Apt. 68 "
            ],
            "use": "home",
            "type": "physical",
            "postalCode": "35001",
            "city": "Las Palmas",
            "country": "Spain"
          }
        ],
        "telecom": [
          {
            "system": "phone",
            "value": "+34 875724898"
          }
        ],
        "extension": [
          {
            "url": "http://hl7.org/fhir/StructureDefinition/patient-nationality",
            "valueCodeableConcept": {
              "coding": [
                {
                  "code": "ES",
                  "system": "http://hl7.org/fhir/ValueSet/country"
                }
              ]
            }
          }
        ],
        "text": {
          "status": "generated",
          "div": "<div xmlns=\"http://www.w3.org/1999/xhtml\"><table class=\"hl7__ips\"><tr><td>Pelayo Casal</td><td>male</td><td>19-Apr-1940</td></tr></table></div>"
        },
        "gender": "male",
        "birthDate": "1940-04-19"
      }
    },
    {
      "fullUrl": "urn:uuid:fed80251-a99c-4140-92ea-1ae9829af182",
      "resource": {
        "resourceType": "ServiceRequest",
        "id": "fed80251-a99c-4140-92ea-1ae9829af182",
        "meta": {
          "profile": [
            "http://hl7.eu/fhir/laboratory/StructureDefinition/ServiceRequest-eu-lab"
          ]
        },
        "identifier": [
          {
            "system": "http://example.org",
            "value": "2f60a4ae-08ae-47b1-a0a1-f83a6b79fa1d"
          }
        ],
        "specimen": [
          {
            "reference": "urn:uuid:8bce6c80-2cc9-4b62-8082-c0ab05192ab7"
          },
          {
            "reference": "urn:uuid:0708ee24-54be-43a7-ac54-f4992fadd3d4"
          },
          {
            "reference": "urn:uuid:3d7659f6-29d5-42c7-9247-e6a421461c09"
          }
        ],
        "reasonCode": [
          {
            "coding": [
              {
                "code": "431856006",
                "system": "http://snomed.info/sct",
                "display": "Chronic kidney disease stage 2"
              }
            ]
          },
          {
            "coding": [
              {
                "code": "90781000119102",
                "system": "http://snomed.info/sct",
                "display": "Microalbuminuria due to type 2 diabetes mellitus"
              }
            ]
          },
          {
            "coding": [
              {
                "code": "127013003",
                "system": "http://snomed.info/sct",
                "display": "Disorder of kidney due to diabetes mellitus"
              }
            ]
          },
          {
            "coding": [
              {
                "code": "431855005",
                "system": "http://snomed.info/sct",
                "display": "Chronic kidney disease stage 1"
              }
            ]
          },
          {
            "coding": [
              {
                "code": "64859006",
                "system": "http://snomed.info/sct",
                "display": "Osteoporosis"
              }
            ]
          },
          {
            "coding": [
              {
                "code": "414545008",
                "system": "http://snomed.info/sct",
                "display": "Ischemic heart disease"
              }
            ]
          },
          {
            "coding": [
              {
                "code": "237602007",
                "system": "http://snomed.info/sct",
                "display": "Metabolic syndrome X"
              }
            ]
          },
          {
            "coding": [
              {
                "code": "59621000",
                "system": "http://snomed.info/sct",
                "display": "Essential hypertension"
              }
            ]
          },
          {
            "coding": [
              {
                "code": "271737000",
                "system": "http://snomed.info/sct",
                "display": "Anemia"
              }
            ]
          },
          {
            "coding": [
              {
                "code": "15777000",
                "system": "http://snomed.info/sct",
                "display": "Prediabetes"
              }
            ]
          }
        ],
        "status": "active",
        "intent": "order",
        "code": {
          "coding": [
            {
              "code": "108252007",
              "system": "http://snomed.info/sct",
              "display": "Laboratory procedure"
            }
          ]
        },
        "subject": {
          "reference": "urn:uuid:17c53d43-c6ee-4f9d-be51-76089f621faf",
          "display": "Pelayo Casal"
        },
        "requester": {
          "reference": "urn:uuid:b5224152-d4fc-4f54-b385-30d0d4a45ddb"
        }
      }
    },
    {
      "fullUrl": "urn:uuid:b5224152-d4fc-4f54-b385-30d0d4a45ddb",
      "resource": {
        "resourceType": "PractitionerRole",
        "id": "b5224152-d4fc-4f54-b385-30d0d4a45ddb",
        "meta": {
          "profile": [
            "http://hl7.eu/fhir/base/StructureDefinition/practitionerRole-eu"
          ]
        },
        "text": {
          "status": "generated",
          "div": "<div xmlns=\"http://www.w3.org/1999/xhtml\">Provider Role Id: b5224152-d4fc-4f54-b385-30d0d4a45ddb</div>"
        },
        "organization": {
          "reference": "urn:uuid:ac1fd7c9-54dc-4183-a987-f4c26c8fd2a3"
        }
      }
    },
    {
      "fullUrl": "urn:uuid:ac1fd7c9-54dc-4183-a987-f4c26c8fd2a3",
      "resource": {
        "resourceType": "Organization",
        "id": "ac1fd7c9-54dc-4183-a987-f4c26c8fd2a3",
        "meta": {
          "profile": [
            "http://hl7.eu/fhir/base/StructureDefinition/organization-eu"
          ]
        },
        "identifier": [
          {
            "assigner": {
              "display": "HL7 Europe"
            },
            "system": "urn:oid:2.16.840.1.113883.2.51.999",
            "value": "4590cf7c-56a3-40e1-beff-d91337ce4d9a"
          }
        ],
        "address": [
          {
            "country": "Spain"
          }
        ],
        "text": {
          "status": "generated",
          "div": "<div xmlns=\"http://www.w3.org/1999/xhtml\">Provider Organization: Centro de Salud de Guanarteme</div>"
        },
        "name": "Centro de Salud de Guanarteme"
      }
    },
    {
      "fullUrl": "urn:uuid:8bce6c80-2cc9-4b62-8082-c0ab05192ab7",
      "resource": {
        "resourceType": "Specimen",
        "id": "8bce6c80-2cc9-4b62-8082-c0ab05192ab7",
        "meta": {
          "profile": [
            "http://hl7.eu/fhir/laboratory/StructureDefinition/Specimen-eu-lab"
          ]
        },
        "collection": {
          "collectedDateTime": "2020-03-05"
        },
        "text": {
          "status": "generated",
          "div": "<div xmlns=\"http://www.w3.org/1999/xhtml\"><table class=\"hl7__eu__lab__report\"><tr><th>Specimen</th><th>Collection Date</th></tr><tr><td>Acellular blood (serum or plasma) specimen</td><td><span class=\"nb\">05-Mar-2020</span></td></tr></table></div>"
        },
        "type": {
          "coding": [
            {
              "code": "122592007",
              "system": "http://snomed.info/sct",
              "display": "Acellular blood (serum or plasma) specimen"
            }
          ]
        }
      }
    },
    {
      "fullUrl": "urn:uuid:0708ee24-54be-43a7-ac54-f4992fadd3d4",
      "resource": {
        "resourceType": "Specimen",
        "id": "0708ee24-54be-43a7-ac54-f4992fadd3d4",
        "meta": {
          "profile": [
            "http://hl7.eu/fhir/laboratory/StructureDefinition/Specimen-eu-lab"
          ]
        },
        "collection": {
          "collectedDateTime": "2020-03-05"
        },
        "text": {
          "status": "generated",
          "div": "<div xmlns=\"http://www.w3.org/1999/xhtml\"><table class=\"hl7__eu__lab__report\"><tr><th>Specimen</th><th>Collection Date</th></tr><tr><td>Urine specimen</td><td><span class=\"nb\">05-Mar-2020</span></td></tr></table></div>"
        },
        "type": {
          "coding": [
            {
              "code": "122575003",
              "system": "http://snomed.info/sct",
              "display": "Urine specimen"
            }
          ]
        }
      }
    },
    {
      "fullUrl": "urn:uuid:3d7659f6-29d5-42c7-9247-e6a421461c09",
      "resource": {
        "resourceType": "Specimen",
        "id": "3d7659f6-29d5-42c7-9247-e6a421461c09",
        "meta": {
          "profile": [
            "http://hl7.eu/fhir/laboratory/StructureDefinition/Specimen-eu-lab"
          ]
        },
        "collection": {
          "collectedDateTime": "2020-03-05"
        },
        "text": {
          "status": "generated",
          "div": "<div xmlns=\"http://www.w3.org/1999/xhtml\"><table class=\"hl7__eu__lab__report\"><tr><th>Specimen</th><th>Collection Date</th></tr><tr><td>Whole blood specimen (specimen)</td><td><span class=\"nb\">05-Mar-2020</span></td></tr></table></div>"
        },
        "type": {
          "coding": [
            {
              "code": "258580003",
              "system": "http://snomed.info/sct",
              "display": "Whole blood specimen (specimen)"
            }
          ]
        }
      }
    },
    {
      "fullUrl": "urn:uuid:83f744dc-225c-4cac-89ab-db481be07810",
      "resource": {
        "resourceType": "Observation",
        "id": "83f744dc-225c-4cac-89ab-db481be07810",
        "meta": {
          "profile": [
            "http://hl7.eu/fhir/laboratory/StructureDefinition/Observation-resultslab-eu-lab"
          ]
        },
        "performer": [
          {
            "display": "The Central European Lab"
          }
        ],
        "category": [
          {
            "coding": [
              {
                "system": "http://terminology.hl7.org/CodeSystem/observation-category",
                "code": "laboratory"
              }
            ]
          }
        ],
        "code": {
          "coding": [
            {
              "code": "2345-7",
              "system": "http://loinc.org",
              "display": "Glucose [Mass/volume] in Serum or Plasma"
            }
          ],
          "text": "Glucose [Mass/volume] in Serum or Plasma"
        },
        "valueQuantity": {
          "system": "http://unitsofmeasure.org",
          "value": 80.3,
          "unit": "mg/dL",
          "code": "mg/dL"
        },
        "referenceRange": [
          {
            "low": {
              "value": 70,
              "code": "mg/dL",
              "system": "http://unitsofmeasure.org"
            }
          },
          {
            "high": {
              "value": 140,
              "code": "mg/dL",
              "system": "http://unitsofmeasure.org"
            }
          }
        ],
        "text": {
          "status": "generated",
          "div": "<div xmlns=\"http://www.w3.org/1999/xhtml\"><table class=\"hl7__eu__lab__report\"><tr><th>Test</th><th>05-Mar-2020</th><th>Reference&#xA0;Range</th><th>Unit</th></tr><tr><td>Glucose [Mass/volume] in Serum or Plasma</td><td>80.3</td><td>70 - 140</td><td></td><td>mg/dL</td></tr></table></div>"
        },
        "status": "final",
        "subject": {
          "reference": "urn:uuid:17c53d43-c6ee-4f9d-be51-76089f621faf",
          "display": "Pelayo Casal"
        },
        "effectiveDateTime": "2020-03-05T05:38:59Z",
        "specimen": {
          "reference": "urn:uuid:8bce6c80-2cc9-4b62-8082-c0ab05192ab7"
        }
      }
    },
    {
      "fullUrl": "urn:uuid:18f7ded8-49f2-46b5-8154-fa84b3c0d982",
      "resource": {
        "resourceType": "Observation",
        "id": "18f7ded8-49f2-46b5-8154-fa84b3c0d982",
        "meta": {
          "profile": [
            "http://hl7.eu/fhir/laboratory/StructureDefinition/Observation-resultslab-eu-lab"
          ]
        },
        "performer": [
          {
            "display": "The Central European Lab"
          }
        ],
        "category": [
          {
            "coding": [
              {
                "system": "http://terminology.hl7.org/CodeSystem/observation-category",
                "code": "laboratory"
              }
            ]
          }
        ],
        "code": {
          "coding": [
            {
              "code": "3094-0",
              "system": "http://loinc.org",
              "display": "Urea nitrogen [Mass/volume] in Serum or Plasma"
            }
          ],
          "text": "Urea nitrogen [Mass/volume] in Serum or Plasma"
        },
        "valueQuantity": {
          "system": "http://unitsofmeasure.org",
          "value": 8.4,
          "unit": "mg/dL",
          "code": "mg/dL"
        },
        "referenceRange": [
          {
            "low": {
              "value": 7,
              "code": "mg/dL",
              "system": "http://unitsofmeasure.org"
            }
          },
          {
            "high": {
              "value": 25,
              "code": "mg/dL",
              "system": "http://unitsofmeasure.org"
            }
          }
        ],
        "text": {
          "status": "generated",
          "div": "<div xmlns=\"http://www.w3.org/1999/xhtml\"><table class=\"hl7__eu__lab__report\"><tr><th>Test</th><th>05-Mar-2020</th><th>Reference&#xA0;Range</th><th>Unit</th></tr><tr><td>Urea nitrogen [Mass/volume] in Serum or Plasma</td><td>8.4</td><td>7 - 25</td><td></td><td>mg/dL</td></tr></table></div>"
        },
        "status": "final",
        "subject": {
          "reference": "urn:uuid:17c53d43-c6ee-4f9d-be51-76089f621faf",
          "display": "Pelayo Casal"
        },
        "effectiveDateTime": "2020-03-05T05:38:59Z",
        "specimen": {
          "reference": "urn:uuid:8bce6c80-2cc9-4b62-8082-c0ab05192ab7"
        }
      }
    },
    {
      "fullUrl": "urn:uuid:51014375-f9e2-4014-b403-aac03b09a423",
      "resource": {
        "resourceType": "Observation",
        "id": "51014375-f9e2-4014-b403-aac03b09a423",
        "meta": {
          "profile": [
            "http://hl7.eu/fhir/laboratory/StructureDefinition/Observation-resultslab-eu-lab"
          ]
        },
        "performer": [
          {
            "display": "The Central European Lab"
          }
        ],
        "category": [
          {
            "coding": [
              {
                "system": "http://terminology.hl7.org/CodeSystem/observation-category",
                "code": "laboratory"
              }
            ]
          }
        ],
        "code": {
          "coding": [
            {
              "code": "2160-0",
              "system": "http://loinc.org",
              "display": "Creatinine [Mass/volume] in Serum or Plasma"
            }
          ],
          "text": "Creatinine [Mass/volume] in Serum or Plasma"
        },
        "valueQuantity": {
          "system": "http://unitsofmeasure.org",
          "value": 1.9,
          "unit": "mg/dL",
          "code": "mg/dL"
        },
        "referenceRange": [
          {
            "low": {
              "value": 0.9,
              "code": "mg/dL",
              "system": "http://unitsofmeasure.org"
            }
          },
          {
            "high": {
              "value": 1.3,
              "code": "mg/dL",
              "system": "http://unitsofmeasure.org"
            }
          }
        ],
        "interpretation": [
          {
            "coding": [
              {
                "code": "H",
                "system": "http://terminology.hl7.org/CodeSystem/v3-ObservationInterpretation",
                "display": "High"
              }
            ]
          }
        ],
        "text": {
          "status": "generated",
          "div": "<div xmlns=\"http://www.w3.org/1999/xhtml\"><table class=\"hl7__eu__lab__report\"><tr><th>Test</th><th>05-Mar-2020</th><th>Reference&#xA0;Range</th><th>Unit</th></tr><tr><td>Creatinine [Mass/volume] in Serum or Plasma</td><td>1.9</td><td>0.9 - 1.3</td><td>H</td><td>mg/dL</td></tr></table></div>"
        },
        "status": "final",
        "subject": {
          "reference": "urn:uuid:17c53d43-c6ee-4f9d-be51-76089f621faf",
          "display": "Pelayo Casal"
        },
        "effectiveDateTime": "2020-03-05T05:38:59Z",
        "specimen": {
          "reference": "urn:uuid:8bce6c80-2cc9-4b62-8082-c0ab05192ab7"
        }
      }
    },
    {
      "fullUrl": "urn:uuid:b95d5ce9-cccf-4097-8552-f5f7cf86cec7",
      "resource": {
        "resourceType": "Observation",
        "id": "b95d5ce9-cccf-4097-8552-f5f7cf86cec7",
        "meta": {
          "profile": [
            "http://hl7.eu/fhir/laboratory/StructureDefinition/Observation-resultslab-eu-lab"
          ]
        },
        "performer": [
          {
            "display": "The Central European Lab"
          }
        ],
        "category": [
          {
            "coding": [
              {
                "system": "http://terminology.hl7.org/CodeSystem/observation-category",
                "code": "laboratory"
              }
            ]
          }
        ],
        "code": {
          "coding": [
            {
              "code": "17861-6",
              "system": "http://loinc.org",
              "display": "Calcium [Mass/volume] in Serum or Plasma"
            }
          ],
          "text": "Calcium [Mass/volume] in Serum or Plasma"
        },
        "valueQuantity": {
          "system": "http://unitsofmeasure.org",
          "value": 9.6,
          "unit": "mg/dL",
          "code": "mg/dL"
        },
        "referenceRange": [
          {
            "low": {
              "value": 8.5,
              "code": "mg/dL",
              "system": "http://unitsofmeasure.org"
            }
          },
          {
            "high": {
              "value": 10.5,
              "code": "mg/dL",
              "system": "http://unitsofmeasure.org"
            }
          }
        ],
        "text": {
          "status": "generated",
          "div": "<div xmlns=\"http://www.w3.org/1999/xhtml\"><table class=\"hl7__eu__lab__report\"><tr><th>Test</th><th>05-Mar-2020</th><th>Reference&#xA0;Range</th><th>Unit</th></tr><tr><td>Calcium [Mass/volume] in Serum or Plasma</td><td>9.6</td><td>8.5 - 10.5</td><td></td><td>mg/dL</td></tr></table></div>"
        },
        "status": "final",
        "subject": {
          "reference": "urn:uuid:17c53d43-c6ee-4f9d-be51-76089f621faf",
          "display": "Pelayo Casal"
        },
        "effectiveDateTime": "2020-03-05T05:38:59Z",
        "specimen": {
          "reference": "urn:uuid:8bce6c80-2cc9-4b62-8082-c0ab05192ab7"
        }
      }
    },
    {
      "fullUrl": "urn:uuid:94da0787-073a-413e-8599-016a21e58384",
      "resource": {
        "resourceType": "Observation",
        "id": "94da0787-073a-413e-8599-016a21e58384",
        "meta": {
          "profile": [
            "http://hl7.eu/fhir/laboratory/StructureDefinition/Observation-resultslab-eu-lab"
          ]
        },
        "performer": [
          {
            "display": "The Central European Lab"
          }
        ],
        "category": [
          {
            "coding": [
              {
                "system": "http://terminology.hl7.org/CodeSystem/observation-category",
                "code": "laboratory"
              }
            ]
          }
        ],
        "code": {
          "coding": [
            {
              "code": "2951-2",
              "system": "http://loinc.org",
              "display": "Sodium [Moles/volume] in Serum or Plasma"
            }
          ],
          "text": "Sodium [Moles/volume] in Serum or Plasma"
        },
        "valueQuantity": {
          "system": "http://unitsofmeasure.org",
          "value": 138.4,
          "unit": "mmol/L",
          "code": "mmol/L"
        },
        "referenceRange": [
          {
            "low": {
              "value": 135,
              "code": "mmol/L",
              "system": "http://unitsofmeasure.org"
            }
          },
          {
            "high": {
              "value": 145,
              "code": "mmol/L",
              "system": "http://unitsofmeasure.org"
            }
          }
        ],
        "text": {
          "status": "generated",
          "div": "<div xmlns=\"http://www.w3.org/1999/xhtml\"><table class=\"hl7__eu__lab__report\"><tr><th>Test</th><th>05-Mar-2020</th><th>Reference&#xA0;Range</th><th>Unit</th></tr><tr><td>Sodium [Moles/volume] in Serum or Plasma</td><td>138.4</td><td>135 - 145</td><td></td><td>mmol/L</td></tr></table></div>"
        },
        "status": "final",
        "subject": {
          "reference": "urn:uuid:17c53d43-c6ee-4f9d-be51-76089f621faf",
          "display": "Pelayo Casal"
        },
        "effectiveDateTime": "2020-03-05T05:38:59Z",
        "specimen": {
          "reference": "urn:uuid:8bce6c80-2cc9-4b62-8082-c0ab05192ab7"
        }
      }
    },
    {
      "fullUrl": "urn:uuid:17b988b3-edfb-47e3-ae89-85913e8aa793",
      "resource": {
        "resourceType": "Observation",
        "id": "17b988b3-edfb-47e3-ae89-85913e8aa793",
        "meta": {
          "profile": [
            "http://hl7.eu/fhir/laboratory/StructureDefinition/Observation-resultslab-eu-lab"
          ]
        },
        "performer": [
          {
            "display": "The Central European Lab"
          }
        ],
        "category": [
          {
            "coding": [
              {
                "system": "http://terminology.hl7.org/CodeSystem/observation-category",
                "code": "laboratory"
              }
            ]
          }
        ],
        "code": {
          "coding": [
            {
              "code": "2823-3",
              "system": "http://loinc.org",
              "display": "Potassium [Moles/volume] in Serum or Plasma"
            }
          ],
          "text": "Potassium [Moles/volume] in Serum or Plasma"
        },
        "valueQuantity": {
          "system": "http://unitsofmeasure.org",
          "value": 5.1,
          "unit": "mmol/L",
          "code": "mmol/L"
        },
        "referenceRange": [
          {
            "low": {
              "value": 3.5,
              "code": "mmol/L",
              "system": "http://unitsofmeasure.org"
            }
          },
          {
            "high": {
              "value": 5.3,
              "code": "mmol/L",
              "system": "http://unitsofmeasure.org"
            }
          }
        ],
        "text": {
          "status": "generated",
          "div": "<div xmlns=\"http://www.w3.org/1999/xhtml\"><table class=\"hl7__eu__lab__report\"><tr><th>Test</th><th>05-Mar-2020</th><th>Reference&#xA0;Range</th><th>Unit</th></tr><tr><td>Potassium [Moles/volume] in Serum or Plasma</td><td>5.1</td><td>3.5 - 5.3</td><td></td><td>mmol/L</td></tr></table></div>"
        },
        "status": "final",
        "subject": {
          "reference": "urn:uuid:17c53d43-c6ee-4f9d-be51-76089f621faf",
          "display": "Pelayo Casal"
        },
        "effectiveDateTime": "2020-03-05T05:38:59Z",
        "specimen": {
          "reference": "urn:uuid:8bce6c80-2cc9-4b62-8082-c0ab05192ab7"
        }
      }
    },
    {
      "fullUrl": "urn:uuid:39ac590b-6d31-4b4c-b5e4-e6680ff461ec",
      "resource": {
        "resourceType": "Observation",
        "id": "39ac590b-6d31-4b4c-b5e4-e6680ff461ec",
        "meta": {
          "profile": [
            "http://hl7.eu/fhir/laboratory/StructureDefinition/Observation-resultslab-eu-lab"
          ]
        },
        "performer": [
          {
            "display": "The Central European Lab"
          }
        ],
        "category": [
          {
            "coding": [
              {
                "system": "http://terminology.hl7.org/CodeSystem/observation-category",
                "code": "laboratory"
              }
            ]
          }
        ],
        "code": {
          "coding": [
            {
              "code": "2075-0",
              "system": "http://loinc.org",
              "display": "Chloride [Moles/volume] in Serum or Plasma"
            }
          ],
          "text": "Chloride [Moles/volume] in Serum or Plasma"
        },
        "valueQuantity": {
          "system": "http://unitsofmeasure.org",
          "value": 103.9,
          "unit": "mmol/L",
          "code": "mmol/L"
        },
        "referenceRange": [
          {
            "low": {
              "value": 98,
              "code": "mmol/L",
              "system": "http://unitsofmeasure.org"
            }
          },
          {
            "high": {
              "value": 107,
              "code": "mmol/L",
              "system": "http://unitsofmeasure.org"
            }
          }
        ],
        "text": {
          "status": "generated",
          "div": "<div xmlns=\"http://www.w3.org/1999/xhtml\"><table class=\"hl7__eu__lab__report\"><tr><th>Test</th><th>05-Mar-2020</th><th>Reference&#xA0;Range</th><th>Unit</th></tr><tr><td>Chloride [Moles/volume] in Serum or Plasma</td><td>103.9</td><td>98 - 107</td><td></td><td>mmol/L</td></tr></table></div>"
        },
        "status": "final",
        "subject": {
          "reference": "urn:uuid:17c53d43-c6ee-4f9d-be51-76089f621faf",
          "display": "Pelayo Casal"
        },
        "effectiveDateTime": "2020-03-05T05:38:59Z",
        "specimen": {
          "reference": "urn:uuid:8bce6c80-2cc9-4b62-8082-c0ab05192ab7"
        }
      }
    },
    {
      "fullUrl": "urn:uuid:721b0ee4-51d5-45b6-ba79-43a990d8b75d",
      "resource": {
        "resourceType": "Observation",
        "id": "721b0ee4-51d5-45b6-ba79-43a990d8b75d",
        "meta": {
          "profile": [
            "http://hl7.eu/fhir/laboratory/StructureDefinition/Observation-resultslab-eu-lab"
          ]
        },
        "performer": [
          {
            "display": "The Central European Lab"
          }
        ],
        "category": [
          {
            "coding": [
              {
                "system": "http://terminology.hl7.org/CodeSystem/observation-category",
                "code": "laboratory"
              }
            ]
          }
        ],
        "code": {
          "coding": [
            {
              "code": "2028-9",
              "system": "http://loinc.org",
              "display": "Carbon dioxide, total [Moles/volume] in Serum or Plasma"
            }
          ],
          "text": "Carbon dioxide, total [Moles/volume] in Serum or Plasma"
        },
        "valueQuantity": {
          "system": "http://unitsofmeasure.org",
          "value": 20.5,
          "unit": "mmol/L",
          "code": "mmol/L"
        },
        "referenceRange": [
          {
            "low": {
              "value": 22,
              "code": "mmol/L",
              "system": "http://unitsofmeasure.org"
            }
          },
          {
            "high": {
              "value": 29,
              "code": "mmol/L",
              "system": "http://unitsofmeasure.org"
            }
          }
        ],
        "interpretation": [
          {
            "coding": [
              {
                "code": "L",
                "system": "http://terminology.hl7.org/CodeSystem/v3-ObservationInterpretation",
                "display": "Low"
              }
            ]
          }
        ],
        "text": {
          "status": "generated",
          "div": "<div xmlns=\"http://www.w3.org/1999/xhtml\"><table class=\"hl7__eu__lab__report\"><tr><th>Test</th><th>05-Mar-2020</th><th>Reference&#xA0;Range</th><th>Unit</th></tr><tr><td>Carbon dioxide, total [Moles/volume] in Serum or Plasma</td><td>20.5</td><td>22 - 29</td><td>L</td><td>mmol/L</td></tr></table></div>"
        },
        "status": "final",
        "subject": {
          "reference": "urn:uuid:17c53d43-c6ee-4f9d-be51-76089f621faf",
          "display": "Pelayo Casal"
        },
        "effectiveDateTime": "2020-03-05T05:38:59Z",
        "specimen": {
          "reference": "urn:uuid:8bce6c80-2cc9-4b62-8082-c0ab05192ab7"
        }
      }
    },
    {
      "fullUrl": "urn:uuid:d077d107-3d57-49d6-9398-6b091395232f",
      "resource": {
        "resourceType": "Observation",
        "id": "d077d107-3d57-49d6-9398-6b091395232f",
        "meta": {
          "profile": [
            "http://hl7.eu/fhir/laboratory/StructureDefinition/Observation-resultslab-eu-lab"
          ]
        },
        "performer": [
          {
            "display": "The Central European Lab"
          }
        ],
        "category": [
          {
            "coding": [
              {
                "system": "http://terminology.hl7.org/CodeSystem/observation-category",
                "code": "laboratory"
              }
            ]
          }
        ],
        "code": {
          "coding": [
            {
              "code": "5767-9",
              "system": "http://loinc.org",
              "display": "Appearance of Urine"
            }
          ],
          "text": "Appearance of Urine"
        },
        "text": {
          "status": "generated",
          "div": "<div xmlns=\"http://www.w3.org/1999/xhtml\"><table class=\"hl7__eu__lab__report\"><tr><th>Test</th><th>05-Mar-2020</th><th>Reference&#xA0;Range</th><th>Unit</th></tr><tr><td>Appearance of Urine</td></tr></table></div>"
        },
        "status": "final",
        "subject": {
          "reference": "urn:uuid:17c53d43-c6ee-4f9d-be51-76089f621faf",
          "display": "Pelayo Casal"
        },
        "effectiveDateTime": "2020-03-05T05:38:59Z",
        "specimen": {
          "reference": "urn:uuid:0708ee24-54be-43a7-ac54-f4992fadd3d4"
        }
      }
    },
    {
      "fullUrl": "urn:uuid:8006e186-2e7c-4085-8230-b6b5e957439b",
      "resource": {
        "resourceType": "Observation",
        "id": "8006e186-2e7c-4085-8230-b6b5e957439b",
        "meta": {
          "profile": [
            "http://hl7.eu/fhir/laboratory/StructureDefinition/Observation-resultslab-eu-lab"
          ]
        },
        "performer": [
          {
            "display": "The Central European Lab"
          }
        ],
        "category": [
          {
            "coding": [
              {
                "system": "http://terminology.hl7.org/CodeSystem/observation-category",
                "code": "laboratory"
              }
            ]
          }
        ],
        "code": {
          "coding": [
            {
              "code": "34533-0",
              "system": "http://loinc.org",
              "display": "Odor of Urine"
            }
          ],
          "text": "Odor of Urine"
        },
        "text": {
          "status": "generated",
          "div": "<div xmlns=\"http://www.w3.org/1999/xhtml\"><table class=\"hl7__eu__lab__report\"><tr><th>Test</th><th>05-Mar-2020</th><th>Reference&#xA0;Range</th><th>Unit</th></tr><tr><td>Odor of Urine</td></tr></table></div>"
        },
        "status": "final",
        "subject": {
          "reference": "urn:uuid:17c53d43-c6ee-4f9d-be51-76089f621faf",
          "display": "Pelayo Casal"
        },
        "effectiveDateTime": "2020-03-05T05:38:59Z",
        "specimen": {
          "reference": "urn:uuid:0708ee24-54be-43a7-ac54-f4992fadd3d4"
        }
      }
    },
    {
      "fullUrl": "urn:uuid:8c5ac0a6-7a79-4f80-a696-a421af3cf052",
      "resource": {
        "resourceType": "Observation",
        "id": "8c5ac0a6-7a79-4f80-a696-a421af3cf052",
        "meta": {
          "profile": [
            "http://hl7.eu/fhir/laboratory/StructureDefinition/Observation-resultslab-eu-lab"
          ]
        },
        "performer": [
          {
            "display": "The Central European Lab"
          }
        ],
        "category": [
          {
            "coding": [
              {
                "system": "http://terminology.hl7.org/CodeSystem/observation-category",
                "code": "laboratory"
              }
            ]
          }
        ],
        "code": {
          "coding": [
            {
              "code": "32167-9",
              "system": "http://loinc.org",
              "display": "Clarity of Urine"
            }
          ],
          "text": "Clarity of Urine"
        },
        "text": {
          "status": "generated",
          "div": "<div xmlns=\"http://www.w3.org/1999/xhtml\"><table class=\"hl7__eu__lab__report\"><tr><th>Test</th><th>05-Mar-2020</th><th>Reference&#xA0;Range</th><th>Unit</th></tr><tr><td>Clarity of Urine</td></tr></table></div>"
        },
        "status": "final",
        "subject": {
          "reference": "urn:uuid:17c53d43-c6ee-4f9d-be51-76089f621faf",
          "display": "Pelayo Casal"
        },
        "effectiveDateTime": "2020-03-05T05:38:59Z",
        "specimen": {
          "reference": "urn:uuid:0708ee24-54be-43a7-ac54-f4992fadd3d4"
        }
      }
    },
    {
      "fullUrl": "urn:uuid:a8cb9aad-6af1-4a46-890e-aeec56168701",
      "resource": {
        "resourceType": "Observation",
        "id": "a8cb9aad-6af1-4a46-890e-aeec56168701",
        "meta": {
          "profile": [
            "http://hl7.eu/fhir/laboratory/StructureDefinition/Observation-resultslab-eu-lab"
          ]
        },
        "performer": [
          {
            "display": "The Central European Lab"
          }
        ],
        "category": [
          {
            "coding": [
              {
                "system": "http://terminology.hl7.org/CodeSystem/observation-category",
                "code": "laboratory"
              }
            ]
          }
        ],
        "code": {
          "coding": [
            {
              "code": "5778-6",
              "system": "http://loinc.org",
              "display": "Color of Urine"
            }
          ],
          "text": "Color of Urine"
        },
        "text": {
          "status": "generated",
          "div": "<div xmlns=\"http://www.w3.org/1999/xhtml\"><table class=\"hl7__eu__lab__report\"><tr><th>Test</th><th>05-Mar-2020</th><th>Reference&#xA0;Range</th><th>Unit</th></tr><tr><td>Color of Urine</td></tr></table></div>"
        },
        "status": "final",
        "subject": {
          "reference": "urn:uuid:17c53d43-c6ee-4f9d-be51-76089f621faf",
          "display": "Pelayo Casal"
        },
        "effectiveDateTime": "2020-03-05T05:38:59Z",
        "specimen": {
          "reference": "urn:uuid:0708ee24-54be-43a7-ac54-f4992fadd3d4"
        }
      }
    },
    {
      "fullUrl": "urn:uuid:13f49eb8-982e-4137-9ad5-d4ca85c164d0",
      "resource": {
        "resourceType": "Observation",
        "id": "13f49eb8-982e-4137-9ad5-d4ca85c164d0",
        "meta": {
          "profile": [
            "http://hl7.eu/fhir/laboratory/StructureDefinition/Observation-resultslab-eu-lab"
          ]
        },
        "performer": [
          {
            "display": "The Central European Lab"
          }
        ],
        "category": [
          {
            "coding": [
              {
                "system": "http://terminology.hl7.org/CodeSystem/observation-category",
                "code": "laboratory"
              }
            ]
          }
        ],
        "code": {
          "coding": [
            {
              "code": "5792-7",
              "system": "http://loinc.org",
              "display": "Glucose [Mass/volume] in Urine by Test strip"
            }
          ],
          "text": "Glucose [Mass/volume] in Urine by Test strip"
        },
        "valueQuantity": {
          "system": "http://unitsofmeasure.org",
          "value": 1.9,
          "unit": "mg/dL",
          "code": "mg/dL"
        },
        "referenceRange": [
          {
            "low": {
              "value": 0.8,
              "code": "mg/dL",
              "system": "http://unitsofmeasure.org"
            }
          },
          {
            "high": {
              "value": 0,
              "code": "mg/dL",
              "system": "http://unitsofmeasure.org"
            }
          }
        ],
        "interpretation": [
          {
            "coding": [
              {
                "code": "H",
                "system": "http://terminology.hl7.org/CodeSystem/v3-ObservationInterpretation",
                "display": "High"
              }
            ]
          }
        ],
        "text": {
          "status": "generated",
          "div": "<div xmlns=\"http://www.w3.org/1999/xhtml\"><table class=\"hl7__eu__lab__report\"><tr><th>Test</th><th>05-Mar-2020</th><th>Reference&#xA0;Range</th><th>Unit</th></tr><tr><td>Glucose [Mass/volume] in Urine by Test strip</td><td>1.9</td><td>0.8 - 0</td><td>H</td><td>mg/dL</td></tr></table></div>"
        },
        "status": "final",
        "subject": {
          "reference": "urn:uuid:17c53d43-c6ee-4f9d-be51-76089f621faf",
          "display": "Pelayo Casal"
        },
        "effectiveDateTime": "2020-03-05T05:38:59Z",
        "specimen": {
          "reference": "urn:uuid:0708ee24-54be-43a7-ac54-f4992fadd3d4"
        }
      }
    },
    {
      "fullUrl": "urn:uuid:1cec0fa7-2bb2-477e-8f4e-f8e6f5858740",
      "resource": {
        "resourceType": "Observation",
        "id": "1cec0fa7-2bb2-477e-8f4e-f8e6f5858740",
        "meta": {
          "profile": [
            "http://hl7.eu/fhir/laboratory/StructureDefinition/Observation-resultslab-eu-lab"
          ]
        },
        "performer": [
          {
            "display": "The Central European Lab"
          }
        ],
        "category": [
          {
            "coding": [
              {
                "system": "http://terminology.hl7.org/CodeSystem/observation-category",
                "code": "laboratory"
              }
            ]
          }
        ],
        "code": {
          "coding": [
            {
              "code": "25428-4",
              "system": "http://loinc.org",
              "display": "Glucose [Presence] in Urine by Test strip"
            }
          ],
          "text": "Glucose [Presence] in Urine by Test strip"
        },
        "text": {
          "status": "generated",
          "div": "<div xmlns=\"http://www.w3.org/1999/xhtml\"><table class=\"hl7__eu__lab__report\"><tr><th>Test</th><th>05-Mar-2020</th><th>Reference&#xA0;Range</th><th>Unit</th></tr><tr><td>Glucose [Presence] in Urine by Test strip</td></tr></table></div>"
        },
        "status": "final",
        "subject": {
          "reference": "urn:uuid:17c53d43-c6ee-4f9d-be51-76089f621faf",
          "display": "Pelayo Casal"
        },
        "effectiveDateTime": "2020-03-05T05:38:59Z",
        "specimen": {
          "reference": "urn:uuid:0708ee24-54be-43a7-ac54-f4992fadd3d4"
        }
      }
    },
    {
      "fullUrl": "urn:uuid:48f51526-e624-4dfb-8892-ffa819405558",
      "resource": {
        "resourceType": "Observation",
        "id": "48f51526-e624-4dfb-8892-ffa819405558",
        "meta": {
          "profile": [
            "http://hl7.eu/fhir/laboratory/StructureDefinition/Observation-resultslab-eu-lab"
          ]
        },
        "performer": [
          {
            "display": "The Central European Lab"
          }
        ],
        "category": [
          {
            "coding": [
              {
                "system": "http://terminology.hl7.org/CodeSystem/observation-category",
                "code": "laboratory"
              }
            ]
          }
        ],
        "code": {
          "coding": [
            {
              "code": "20505-4",
              "system": "http://loinc.org",
              "display": "Bilirubin.total [Mass/volume] in Urine by Test strip"
            }
          ],
          "text": "Bilirubin.total [Mass/volume] in Urine by Test strip"
        },
        "valueQuantity": {
          "system": "http://unitsofmeasure.org",
          "value": 0.4,
          "unit": "mg/dL",
          "code": "mg/dL"
        },
        "referenceRange": [
          {
            "low": {
              "value": 0.2,
              "code": "mg/dL",
              "system": "http://unitsofmeasure.org"
            }
          },
          {
            "high": {
              "value": 1.5,
              "code": "mg/dL",
              "system": "http://unitsofmeasure.org"
            }
          }
        ],
        "text": {
          "status": "generated",
          "div": "<div xmlns=\"http://www.w3.org/1999/xhtml\"><table class=\"hl7__eu__lab__report\"><tr><th>Test</th><th>05-Mar-2020</th><th>Reference&#xA0;Range</th><th>Unit</th></tr><tr><td>Bilirubin.total [Mass/volume] in Urine by Test strip</td><td>0.4</td><td>0.2 - 1.5</td><td></td><td>mg/dL</td></tr></table></div>"
        },
        "status": "final",
        "subject": {
          "reference": "urn:uuid:17c53d43-c6ee-4f9d-be51-76089f621faf",
          "display": "Pelayo Casal"
        },
        "effectiveDateTime": "2020-03-05T05:38:59Z",
        "specimen": {
          "reference": "urn:uuid:0708ee24-54be-43a7-ac54-f4992fadd3d4"
        }
      }
    },
    {
      "fullUrl": "urn:uuid:1c69697c-de46-4e78-8037-a5a68f1e9783",
      "resource": {
        "resourceType": "Observation",
        "id": "1c69697c-de46-4e78-8037-a5a68f1e9783",
        "meta": {
          "profile": [
            "http://hl7.eu/fhir/laboratory/StructureDefinition/Observation-resultslab-eu-lab"
          ]
        },
        "performer": [
          {
            "display": "The Central European Lab"
          }
        ],
        "category": [
          {
            "coding": [
              {
                "system": "http://terminology.hl7.org/CodeSystem/observation-category",
                "code": "laboratory"
              }
            ]
          }
        ],
        "code": {
          "coding": [
            {
              "code": "5770-3",
              "system": "http://loinc.org",
              "display": "Bilirubin.total [Presence] in Urine by Test strip"
            }
          ],
          "text": "Bilirubin.total [Presence] in Urine by Test strip"
        },
        "text": {
          "status": "generated",
          "div": "<div xmlns=\"http://www.w3.org/1999/xhtml\"><table class=\"hl7__eu__lab__report\"><tr><th>Test</th><th>05-Mar-2020</th><th>Reference&#xA0;Range</th><th>Unit</th></tr><tr><td>Bilirubin.total [Presence] in Urine by Test strip</td></tr></table></div>"
        },
        "status": "final",
        "subject": {
          "reference": "urn:uuid:17c53d43-c6ee-4f9d-be51-76089f621faf",
          "display": "Pelayo Casal"
        },
        "effectiveDateTime": "2020-03-05T05:38:59Z",
        "specimen": {
          "reference": "urn:uuid:0708ee24-54be-43a7-ac54-f4992fadd3d4"
        }
      }
    },
    {
      "fullUrl": "urn:uuid:75a259a6-6b5f-4c3b-88f6-f82fc7226ee5",
      "resource": {
        "resourceType": "Observation",
        "id": "75a259a6-6b5f-4c3b-88f6-f82fc7226ee5",
        "meta": {
          "profile": [
            "http://hl7.eu/fhir/laboratory/StructureDefinition/Observation-resultslab-eu-lab"
          ]
        },
        "performer": [
          {
            "display": "The Central European Lab"
          }
        ],
        "category": [
          {
            "coding": [
              {
                "system": "http://terminology.hl7.org/CodeSystem/observation-category",
                "code": "laboratory"
              }
            ]
          }
        ],
        "code": {
          "coding": [
            {
              "code": "5797-6",
              "system": "http://loinc.org",
              "display": "Ketones [Mass/volume] in Urine by Test strip"
            }
          ],
          "text": "Ketones [Mass/volume] in Urine by Test strip"
        },
        "valueQuantity": {
          "system": "http://unitsofmeasure.org",
          "value": 0.6,
          "unit": "mg/dL",
          "code": "mg/dL"
        },
        "referenceRange": [
          {
            "low": {
              "value": 0,
              "code": "mg/dL",
              "system": "http://unitsofmeasure.org"
            }
          },
          {
            "high": {
              "value": 4,
              "code": "mg/dL",
              "system": "http://unitsofmeasure.org"
            }
          }
        ],
        "text": {
          "status": "generated",
          "div": "<div xmlns=\"http://www.w3.org/1999/xhtml\"><table class=\"hl7__eu__lab__report\"><tr><th>Test</th><th>05-Mar-2020</th><th>Reference&#xA0;Range</th><th>Unit</th></tr><tr><td>Ketones [Mass/volume] in Urine by Test strip</td><td>0.6</td><td>0 - 4</td><td></td><td>mg/dL</td></tr></table></div>"
        },
        "status": "final",
        "subject": {
          "reference": "urn:uuid:17c53d43-c6ee-4f9d-be51-76089f621faf",
          "display": "Pelayo Casal"
        },
        "effectiveDateTime": "2020-03-05T05:38:59Z",
        "specimen": {
          "reference": "urn:uuid:0708ee24-54be-43a7-ac54-f4992fadd3d4"
        }
      }
    },
    {
      "fullUrl": "urn:uuid:5f8673ab-52e6-4d29-8e61-72e10fa566db",
      "resource": {
        "resourceType": "Observation",
        "id": "5f8673ab-52e6-4d29-8e61-72e10fa566db",
        "meta": {
          "profile": [
            "http://hl7.eu/fhir/laboratory/StructureDefinition/Observation-resultslab-eu-lab"
          ]
        },
        "performer": [
          {
            "display": "The Central European Lab"
          }
        ],
        "category": [
          {
            "coding": [
              {
                "system": "http://terminology.hl7.org/CodeSystem/observation-category",
                "code": "laboratory"
              }
            ]
          }
        ],
        "code": {
          "coding": [
            {
              "code": "2514-8",
              "system": "http://loinc.org",
              "display": "Ketones [Presence] in Urine by Test strip"
            }
          ],
          "text": "Ketones [Presence] in Urine by Test strip"
        },
        "text": {
          "status": "generated",
          "div": "<div xmlns=\"http://www.w3.org/1999/xhtml\"><table class=\"hl7__eu__lab__report\"><tr><th>Test</th><th>05-Mar-2020</th><th>Reference&#xA0;Range</th><th>Unit</th></tr><tr><td>Ketones [Presence] in Urine by Test strip</td></tr></table></div>"
        },
        "status": "final",
        "subject": {
          "reference": "urn:uuid:17c53d43-c6ee-4f9d-be51-76089f621faf",
          "display": "Pelayo Casal"
        },
        "effectiveDateTime": "2020-03-05T05:38:59Z",
        "specimen": {
          "reference": "urn:uuid:0708ee24-54be-43a7-ac54-f4992fadd3d4"
        }
      }
    },
    {
      "fullUrl": "urn:uuid:a88dcf49-382b-4f2a-a88e-97eb6a2bef57",
      "resource": {
        "resourceType": "Observation",
        "id": "a88dcf49-382b-4f2a-a88e-97eb6a2bef57",
        "meta": {
          "profile": [
            "http://hl7.eu/fhir/laboratory/StructureDefinition/Observation-resultslab-eu-lab"
          ]
        },
        "performer": [
          {
            "display": "The Central European Lab"
          }
        ],
        "category": [
          {
            "coding": [
              {
                "system": "http://terminology.hl7.org/CodeSystem/observation-category",
                "code": "laboratory"
              }
            ]
          }
        ],
        "code": {
          "coding": [
            {
              "code": "5811-5",
              "system": "http://loinc.org",
              "display": "Specific gravity of Urine by Test strip"
            }
          ],
          "text": "Specific gravity of Urine by Test strip"
        },
        "valueQuantity": {
          "system": "http://unitsofmeasure.org",
          "value": 1,
          "unit": "{nominal}",
          "code": "{nominal}"
        },
        "referenceRange": [
          {
            "low": {
              "value": 1.01,
              "code": "g/mL",
              "system": "http://unitsofmeasure.org"
            }
          },
          {
            "high": {
              "value": 1.03,
              "code": "g/mL",
              "system": "http://unitsofmeasure.org"
            }
          }
        ],
        "interpretation": [
          {
            "coding": [
              {
                "code": "L",
                "system": "http://terminology.hl7.org/CodeSystem/v3-ObservationInterpretation",
                "display": "Low"
              }
            ]
          }
        ],
        "text": {
          "status": "generated",
          "div": "<div xmlns=\"http://www.w3.org/1999/xhtml\"><table class=\"hl7__eu__lab__report\"><tr><th>Test</th><th>05-Mar-2020</th><th>Reference&#xA0;Range</th><th>Unit</th></tr><tr><td>Specific gravity of Urine by Test strip</td><td>1.0</td><td>1.01 - 1.03</td><td>L</td><td>{nominal}</td></tr></table></div>"
        },
        "status": "final",
        "subject": {
          "reference": "urn:uuid:17c53d43-c6ee-4f9d-be51-76089f621faf",
          "display": "Pelayo Casal"
        },
        "effectiveDateTime": "2020-03-05T05:38:59Z",
        "specimen": {
          "reference": "urn:uuid:0708ee24-54be-43a7-ac54-f4992fadd3d4"
        }
      }
    },
    {
      "fullUrl": "urn:uuid:0e53360b-f57f-468e-8bdc-35d47c4ff37c",
      "resource": {
        "resourceType": "Observation",
        "id": "0e53360b-f57f-468e-8bdc-35d47c4ff37c",
        "meta": {
          "profile": [
            "http://hl7.eu/fhir/laboratory/StructureDefinition/Observation-resultslab-eu-lab"
          ]
        },
        "performer": [
          {
            "display": "The Central European Lab"
          }
        ],
        "category": [
          {
            "coding": [
              {
                "system": "http://terminology.hl7.org/CodeSystem/observation-category",
                "code": "laboratory"
              }
            ]
          }
        ],
        "code": {
          "coding": [
            {
              "code": "5803-2",
              "system": "http://loinc.org",
              "display": "pH of Urine by Test strip"
            }
          ],
          "text": "pH of Urine by Test strip"
        },
        "valueQuantity": {
          "system": "http://unitsofmeasure.org",
          "value": 6.3,
          "unit": "pH",
          "code": "pH"
        },
        "referenceRange": [
          {
            "low": {
              "value": 4.5,
              "code": "pH",
              "system": "http://unitsofmeasure.org"
            }
          },
          {
            "high": {
              "value": 7.5,
              "code": "pH",
              "system": "http://unitsofmeasure.org"
            }
          }
        ],
        "text": {
          "status": "generated",
          "div": "<div xmlns=\"http://www.w3.org/1999/xhtml\"><table class=\"hl7__eu__lab__report\"><tr><th>Test</th><th>05-Mar-2020</th><th>Reference&#xA0;Range</th><th>Unit</th></tr><tr><td>pH of Urine by Test strip</td><td>6.3</td><td>4.5 - 7.5</td><td></td><td>pH</td></tr></table></div>"
        },
        "status": "final",
        "subject": {
          "reference": "urn:uuid:17c53d43-c6ee-4f9d-be51-76089f621faf",
          "display": "Pelayo Casal"
        },
        "effectiveDateTime": "2020-03-05T05:38:59Z",
        "specimen": {
          "reference": "urn:uuid:0708ee24-54be-43a7-ac54-f4992fadd3d4"
        }
      }
    },
    {
      "fullUrl": "urn:uuid:8f1d8f18-87b3-4482-a67d-a45ac894846e",
      "resource": {
        "resourceType": "Observation",
        "id": "8f1d8f18-87b3-4482-a67d-a45ac894846e",
        "meta": {
          "profile": [
            "http://hl7.eu/fhir/laboratory/StructureDefinition/Observation-resultslab-eu-lab"
          ]
        },
        "performer": [
          {
            "display": "The Central European Lab"
          }
        ],
        "category": [
          {
            "coding": [
              {
                "system": "http://terminology.hl7.org/CodeSystem/observation-category",
                "code": "laboratory"
              }
            ]
          }
        ],
        "code": {
          "coding": [
            {
              "code": "5804-0",
              "system": "http://loinc.org",
              "display": "Protein [Mass/volume] in Urine by Test strip"
            }
          ],
          "text": "Protein [Mass/volume] in Urine by Test strip"
        },
        "valueQuantity": {
          "system": "http://unitsofmeasure.org",
          "value": 189.7,
          "unit": "mg/dL",
          "code": "mg/dL"
        },
        "referenceRange": [
          {
            "low": {
              "value": 0,
              "code": "mg/dL",
              "system": "http://unitsofmeasure.org"
            }
          },
          {
            "high": {
              "value": 150,
              "code": "mg/dL",
              "system": "http://unitsofmeasure.org"
            }
          }
        ],
        "interpretation": [
          {
            "coding": [
              {
                "code": "H",
                "system": "http://terminology.hl7.org/CodeSystem/v3-ObservationInterpretation",
                "display": "High"
              }
            ]
          }
        ],
        "text": {
          "status": "generated",
          "div": "<div xmlns=\"http://www.w3.org/1999/xhtml\"><table class=\"hl7__eu__lab__report\"><tr><th>Test</th><th>05-Mar-2020</th><th>Reference&#xA0;Range</th><th>Unit</th></tr><tr><td>Protein [Mass/volume] in Urine by Test strip</td><td>189.7</td><td>0 - 150</td><td>H</td><td>mg/dL</td></tr></table></div>"
        },
        "status": "final",
        "subject": {
          "reference": "urn:uuid:17c53d43-c6ee-4f9d-be51-76089f621faf",
          "display": "Pelayo Casal"
        },
        "effectiveDateTime": "2020-03-05T05:38:59Z",
        "specimen": {
          "reference": "urn:uuid:0708ee24-54be-43a7-ac54-f4992fadd3d4"
        }
      }
    },
    {
      "fullUrl": "urn:uuid:bd80c431-84ae-45a6-8e04-58cf92041333",
      "resource": {
        "resourceType": "Observation",
        "id": "bd80c431-84ae-45a6-8e04-58cf92041333",
        "meta": {
          "profile": [
            "http://hl7.eu/fhir/laboratory/StructureDefinition/Observation-resultslab-eu-lab"
          ]
        },
        "performer": [
          {
            "display": "The Central European Lab"
          }
        ],
        "category": [
          {
            "coding": [
              {
                "system": "http://terminology.hl7.org/CodeSystem/observation-category",
                "code": "laboratory"
              }
            ]
          }
        ],
        "code": {
          "coding": [
            {
              "code": "20454-5",
              "system": "http://loinc.org",
              "display": "Protein [Presence] in Urine by Test strip"
            }
          ],
          "text": "Protein [Presence] in Urine by Test strip"
        },
        "text": {
          "status": "generated",
          "div": "<div xmlns=\"http://www.w3.org/1999/xhtml\"><table class=\"hl7__eu__lab__report\"><tr><th>Test</th><th>05-Mar-2020</th><th>Reference&#xA0;Range</th><th>Unit</th></tr><tr><td>Protein [Presence] in Urine by Test strip</td></tr></table></div>"
        },
        "status": "final",
        "subject": {
          "reference": "urn:uuid:17c53d43-c6ee-4f9d-be51-76089f621faf",
          "display": "Pelayo Casal"
        },
        "effectiveDateTime": "2020-03-05T05:38:59Z",
        "specimen": {
          "reference": "urn:uuid:0708ee24-54be-43a7-ac54-f4992fadd3d4"
        }
      }
    },
    {
      "fullUrl": "urn:uuid:63514008-7936-4229-9700-1915d05b7fab",
      "resource": {
        "resourceType": "Observation",
        "id": "63514008-7936-4229-9700-1915d05b7fab",
        "meta": {
          "profile": [
            "http://hl7.eu/fhir/laboratory/StructureDefinition/Observation-resultslab-eu-lab"
          ]
        },
        "performer": [
          {
            "display": "The Central European Lab"
          }
        ],
        "category": [
          {
            "coding": [
              {
                "system": "http://terminology.hl7.org/CodeSystem/observation-category",
                "code": "laboratory"
              }
            ]
          }
        ],
        "code": {
          "coding": [
            {
              "code": "5802-4",
              "system": "http://loinc.org",
              "display": "Nitrite [Presence] in Urine by Test strip"
            }
          ],
          "text": "Nitrite [Presence] in Urine by Test strip"
        },
        "text": {
          "status": "generated",
          "div": "<div xmlns=\"http://www.w3.org/1999/xhtml\"><table class=\"hl7__eu__lab__report\"><tr><th>Test</th><th>05-Mar-2020</th><th>Reference&#xA0;Range</th><th>Unit</th></tr><tr><td>Nitrite [Presence] in Urine by Test strip</td></tr></table></div>"
        },
        "status": "final",
        "subject": {
          "reference": "urn:uuid:17c53d43-c6ee-4f9d-be51-76089f621faf",
          "display": "Pelayo Casal"
        },
        "effectiveDateTime": "2020-03-05T05:38:59Z",
        "specimen": {
          "reference": "urn:uuid:0708ee24-54be-43a7-ac54-f4992fadd3d4"
        }
      }
    },
    {
      "fullUrl": "urn:uuid:bfcce68f-61ac-4728-91cf-f2fe7a7fade4",
      "resource": {
        "resourceType": "Observation",
        "id": "bfcce68f-61ac-4728-91cf-f2fe7a7fade4",
        "meta": {
          "profile": [
            "http://hl7.eu/fhir/laboratory/StructureDefinition/Observation-resultslab-eu-lab"
          ]
        },
        "performer": [
          {
            "display": "The Central European Lab"
          }
        ],
        "category": [
          {
            "coding": [
              {
                "system": "http://terminology.hl7.org/CodeSystem/observation-category",
                "code": "laboratory"
              }
            ]
          }
        ],
        "code": {
          "coding": [
            {
              "code": "5794-3",
              "system": "http://loinc.org",
              "display": "Hemoglobin [Presence] in Urine by Test strip"
            }
          ],
          "text": "Hemoglobin [Presence] in Urine by Test strip"
        },
        "text": {
          "status": "generated",
          "div": "<div xmlns=\"http://www.w3.org/1999/xhtml\"><table class=\"hl7__eu__lab__report\"><tr><th>Test</th><th>05-Mar-2020</th><th>Reference&#xA0;Range</th><th>Unit</th></tr><tr><td>Hemoglobin [Presence] in Urine by Test strip</td></tr></table></div>"
        },
        "status": "final",
        "subject": {
          "reference": "urn:uuid:17c53d43-c6ee-4f9d-be51-76089f621faf",
          "display": "Pelayo Casal"
        },
        "effectiveDateTime": "2020-03-05T05:38:59Z",
        "specimen": {
          "reference": "urn:uuid:0708ee24-54be-43a7-ac54-f4992fadd3d4"
        }
      }
    },
    {
      "fullUrl": "urn:uuid:d855467e-ff03-4b97-a14d-d75de02427e3",
      "resource": {
        "resourceType": "Observation",
        "id": "d855467e-ff03-4b97-a14d-d75de02427e3",
        "meta": {
          "profile": [
            "http://hl7.eu/fhir/laboratory/StructureDefinition/Observation-resultslab-eu-lab"
          ]
        },
        "performer": [
          {
            "display": "The Central European Lab"
          }
        ],
        "category": [
          {
            "coding": [
              {
                "system": "http://terminology.hl7.org/CodeSystem/observation-category",
                "code": "laboratory"
              }
            ]
          }
        ],
        "code": {
          "coding": [
            {
              "code": "5799-2",
              "system": "http://loinc.org",
              "display": "Leukocyte esterase [Presence] in Urine by Test strip"
            }
          ],
          "text": "Leukocyte esterase [Presence] in Urine by Test strip"
        },
        "text": {
          "status": "generated",
          "div": "<div xmlns=\"http://www.w3.org/1999/xhtml\"><table class=\"hl7__eu__lab__report\"><tr><th>Test</th><th>05-Mar-2020</th><th>Reference&#xA0;Range</th><th>Unit</th></tr><tr><td>Leukocyte esterase [Presence] in Urine by Test strip</td></tr></table></div>"
        },
        "status": "final",
        "subject": {
          "reference": "urn:uuid:17c53d43-c6ee-4f9d-be51-76089f621faf",
          "display": "Pelayo Casal"
        },
        "effectiveDateTime": "2020-03-05T05:38:59Z",
        "specimen": {
          "reference": "urn:uuid:0708ee24-54be-43a7-ac54-f4992fadd3d4"
        }
      }
    },
    {
      "fullUrl": "urn:uuid:f729926c-c4b8-474a-85f8-80ad7d26fd4f",
      "resource": {
        "resourceType": "Observation",
        "id": "f729926c-c4b8-474a-85f8-80ad7d26fd4f",
        "meta": {
          "profile": [
            "http://hl7.eu/fhir/laboratory/StructureDefinition/Observation-resultslab-eu-lab"
          ]
        },
        "performer": [
          {
            "display": "The Central European Lab"
          }
        ],
        "category": [
          {
            "coding": [
              {
                "system": "http://terminology.hl7.org/CodeSystem/observation-category",
                "code": "laboratory"
              }
            ]
          }
        ],
        "code": {
          "coding": [
            {
              "code": "4548-4",
              "system": "http://loinc.org",
              "display": "Hemoglobin A1c/Hemoglobin.total in Blood"
            }
          ],
          "text": "Hemoglobin A1c/Hemoglobin.total in Blood"
        },
        "valueQuantity": {
          "system": "http://unitsofmeasure.org",
          "value": 2.8,
          "unit": "%",
          "code": "%"
        },
        "referenceRange": [
          {
            "low": {
              "value": 4.5,
              "code": "%",
              "system": "http://unitsofmeasure.org"
            }
          },
          {
            "high": {
              "value": 6.4,
              "code": "%",
              "system": "http://unitsofmeasure.org"
            }
          }
        ],
        "interpretation": [
          {
            "coding": [
              {
                "code": "L",
                "system": "http://terminology.hl7.org/CodeSystem/v3-ObservationInterpretation",
                "display": "Low"
              }
            ]
          }
        ],
        "text": {
          "status": "generated",
          "div": "<div xmlns=\"http://www.w3.org/1999/xhtml\"><table class=\"hl7__eu__lab__report\"><tr><th>Test</th><th>05-Mar-2020</th><th>Reference&#xA0;Range</th><th>Unit</th></tr><tr><td>Hemoglobin A1c/Hemoglobin.total in Blood</td><td>2.8</td><td>4.5 - 6.4</td><td>L</td><td>%</td></tr></table></div>"
        },
        "status": "final",
        "subject": {
          "reference": "urn:uuid:17c53d43-c6ee-4f9d-be51-76089f621faf",
          "display": "Pelayo Casal"
        },
        "effectiveDateTime": "2020-03-05T05:38:59Z",
        "specimen": {
          "reference": "urn:uuid:3d7659f6-29d5-42c7-9247-e6a421461c09"
        }
      }
    },
    {
      "fullUrl": "urn:uuid:9e542d29-f9b1-4052-9917-36c571405e81",
      "resource": {
        "resourceType": "Observation",
        "id": "9e542d29-f9b1-4052-9917-36c571405e81",
        "meta": {
          "profile": [
            "http://hl7.eu/fhir/laboratory/StructureDefinition/Observation-resultslab-eu-lab"
          ]
        },
        "performer": [
          {
            "display": "The Central European Lab"
          }
        ],
        "category": [
          {
            "coding": [
              {
                "system": "http://terminology.hl7.org/CodeSystem/observation-category",
                "code": "laboratory"
              }
            ]
          }
        ],
        "code": {
          "coding": [
            {
              "code": "2339-0",
              "system": "http://loinc.org",
              "display": "Glucose [Mass/volume] in Blood"
            }
          ],
          "text": "Glucose [Mass/volume] in Blood"
        },
        "valueQuantity": {
          "system": "http://unitsofmeasure.org",
          "value": 80.3,
          "unit": "mg/dL",
          "code": "mg/dL"
        },
        "referenceRange": [
          {
            "low": {
              "value": 70,
              "code": "mg/dL",
              "system": "http://unitsofmeasure.org"
            }
          },
          {
            "high": {
              "value": 140,
              "code": "mg/dL",
              "system": "http://unitsofmeasure.org"
            }
          }
        ],
        "text": {
          "status": "generated",
          "div": "<div xmlns=\"http://www.w3.org/1999/xhtml\"><table class=\"hl7__eu__lab__report\"><tr><th>Test</th><th>05-Mar-2020</th><th>Reference&#xA0;Range</th><th>Unit</th></tr><tr><td>Glucose [Mass/volume] in Blood</td><td>80.3</td><td>70 - 140</td><td></td><td>mg/dL</td></tr></table></div>"
        },
        "status": "final",
        "subject": {
          "reference": "urn:uuid:17c53d43-c6ee-4f9d-be51-76089f621faf",
          "display": "Pelayo Casal"
        },
        "effectiveDateTime": "2020-03-05T05:38:59Z",
        "specimen": {
          "reference": "urn:uuid:3d7659f6-29d5-42c7-9247-e6a421461c09"
        }
      }
    },
    {
      "fullUrl": "urn:uuid:001cd9d2-96e1-4e1a-8b89-7f2db97c60ed",
      "resource": {
        "resourceType": "Observation",
        "id": "001cd9d2-96e1-4e1a-8b89-7f2db97c60ed",
        "meta": {
          "profile": [
            "http://hl7.eu/fhir/laboratory/StructureDefinition/Observation-resultslab-eu-lab"
          ]
        },
        "performer": [
          {
            "display": "The Central European Lab"
          }
        ],
        "category": [
          {
            "coding": [
              {
                "system": "http://terminology.hl7.org/CodeSystem/observation-category",
                "code": "laboratory"
              }
            ]
          }
        ],
        "code": {
          "coding": [
            {
              "code": "6299-2",
              "system": "http://loinc.org",
              "display": "Urea nitrogen [Mass/volume] in Blood"
            }
          ],
          "text": "Urea nitrogen [Mass/volume] in Blood"
        },
        "valueQuantity": {
          "system": "http://unitsofmeasure.org",
          "value": 8.4,
          "unit": "mg/dL",
          "code": "mg/dL"
        },
        "referenceRange": [
          {
            "low": {
              "value": 7,
              "code": "mg/dL",
              "system": "http://unitsofmeasure.org"
            }
          },
          {
            "high": {
              "value": 25,
              "code": "mg/dL",
              "system": "http://unitsofmeasure.org"
            }
          }
        ],
        "text": {
          "status": "generated",
          "div": "<div xmlns=\"http://www.w3.org/1999/xhtml\"><table class=\"hl7__eu__lab__report\"><tr><th>Test</th><th>05-Mar-2020</th><th>Reference&#xA0;Range</th><th>Unit</th></tr><tr><td>Urea nitrogen [Mass/volume] in Blood</td><td>8.4</td><td>7 - 25</td><td></td><td>mg/dL</td></tr></table></div>"
        },
        "status": "final",
        "subject": {
          "reference": "urn:uuid:17c53d43-c6ee-4f9d-be51-76089f621faf",
          "display": "Pelayo Casal"
        },
        "effectiveDateTime": "2020-03-05T05:38:59Z",
        "specimen": {
          "reference": "urn:uuid:3d7659f6-29d5-42c7-9247-e6a421461c09"
        }
      }
    },
    {
      "fullUrl": "urn:uuid:e8f61f11-533b-4ca3-9165-d5846f47503c",
      "resource": {
        "resourceType": "Observation",
        "id": "e8f61f11-533b-4ca3-9165-d5846f47503c",
        "meta": {
          "profile": [
            "http://hl7.eu/fhir/laboratory/StructureDefinition/Observation-resultslab-eu-lab"
          ]
        },
        "performer": [
          {
            "display": "The Central European Lab"
          }
        ],
        "category": [
          {
            "coding": [
              {
                "system": "http://terminology.hl7.org/CodeSystem/observation-category",
                "code": "laboratory"
              }
            ]
          }
        ],
        "code": {
          "coding": [
            {
              "code": "38483-4",
              "system": "http://loinc.org",
              "display": "Creatinine [Mass/volume] in Blood"
            }
          ],
          "text": "Creatinine [Mass/volume] in Blood"
        },
        "valueQuantity": {
          "system": "http://unitsofmeasure.org",
          "value": 1.6,
          "unit": "mg/dL",
          "code": "mg/dL"
        },
        "referenceRange": [
          {
            "low": {
              "value": 0.9,
              "code": "mg/dL",
              "system": "http://unitsofmeasure.org"
            }
          },
          {
            "high": {
              "value": 1.3,
              "code": "mg/dL",
              "system": "http://unitsofmeasure.org"
            }
          }
        ],
        "interpretation": [
          {
            "coding": [
              {
                "code": "H",
                "system": "http://terminology.hl7.org/CodeSystem/v3-ObservationInterpretation",
                "display": "High"
              }
            ]
          }
        ],
        "text": {
          "status": "generated",
          "div": "<div xmlns=\"http://www.w3.org/1999/xhtml\"><table class=\"hl7__eu__lab__report\"><tr><th>Test</th><th>05-Mar-2020</th><th>Reference&#xA0;Range</th><th>Unit</th></tr><tr><td>Creatinine [Mass/volume] in Blood</td><td>1.6</td><td>0.9 - 1.3</td><td>H</td><td>mg/dL</td></tr></table></div>"
        },
        "status": "final",
        "subject": {
          "reference": "urn:uuid:17c53d43-c6ee-4f9d-be51-76089f621faf",
          "display": "Pelayo Casal"
        },
        "effectiveDateTime": "2020-03-05T05:38:59Z",
        "specimen": {
          "reference": "urn:uuid:3d7659f6-29d5-42c7-9247-e6a421461c09"
        }
      }
    },
    {
      "fullUrl": "urn:uuid:29a3ffad-b173-4374-ba4b-a83f477d62f7",
      "resource": {
        "resourceType": "Observation",
        "id": "29a3ffad-b173-4374-ba4b-a83f477d62f7",
        "meta": {
          "profile": [
            "http://hl7.eu/fhir/laboratory/StructureDefinition/Observation-resultslab-eu-lab"
          ]
        },
        "performer": [
          {
            "display": "The Central European Lab"
          }
        ],
        "category": [
          {
            "coding": [
              {
                "system": "http://terminology.hl7.org/CodeSystem/observation-category",
                "code": "laboratory"
              }
            ]
          }
        ],
        "code": {
          "coding": [
            {
              "code": "49765-1",
              "system": "http://loinc.org",
              "display": "Calcium [Mass/volume] in Blood"
            }
          ],
          "text": "Calcium [Mass/volume] in Blood"
        },
        "valueQuantity": {
          "system": "http://unitsofmeasure.org",
          "value": 9.6,
          "unit": "mg/dL",
          "code": "mg/dL"
        },
        "referenceRange": [
          {
            "low": {
              "value": 8.6,
              "code": "mg/dL",
              "system": "http://unitsofmeasure.org"
            }
          },
          {
            "high": {
              "value": 10.2,
              "code": "mg/dL",
              "system": "http://unitsofmeasure.org"
            }
          }
        ],
        "text": {
          "status": "generated",
          "div": "<div xmlns=\"http://www.w3.org/1999/xhtml\"><table class=\"hl7__eu__lab__report\"><tr><th>Test</th><th>05-Mar-2020</th><th>Reference&#xA0;Range</th><th>Unit</th></tr><tr><td>Calcium [Mass/volume] in Blood</td><td>9.6</td><td>8.6 - 10.2</td><td></td><td>mg/dL</td></tr></table></div>"
        },
        "status": "final",
        "subject": {
          "reference": "urn:uuid:17c53d43-c6ee-4f9d-be51-76089f621faf",
          "display": "Pelayo Casal"
        },
        "effectiveDateTime": "2020-03-05T05:38:59Z",
        "specimen": {
          "reference": "urn:uuid:3d7659f6-29d5-42c7-9247-e6a421461c09"
        }
      }
    },
    {
      "fullUrl": "urn:uuid:e0955431-470e-4694-a252-43802f112497",
      "resource": {
        "resourceType": "Observation",
        "id": "e0955431-470e-4694-a252-43802f112497",
        "meta": {
          "profile": [
            "http://hl7.eu/fhir/laboratory/StructureDefinition/Observation-resultslab-eu-lab"
          ]
        },
        "performer": [
          {
            "display": "The Central European Lab"
          }
        ],
        "category": [
          {
            "coding": [
              {
                "system": "http://terminology.hl7.org/CodeSystem/observation-category",
                "code": "laboratory"
              }
            ]
          }
        ],
        "code": {
          "coding": [
            {
              "code": "2947-0",
              "system": "http://loinc.org",
              "display": "Sodium [Moles/volume] in Blood"
            }
          ],
          "text": "Sodium [Moles/volume] in Blood"
        },
        "valueQuantity": {
          "system": "http://unitsofmeasure.org",
          "value": 138.4,
          "unit": "mmol/L",
          "code": "mmol/L"
        },
        "referenceRange": [
          {
            "low": {
              "value": 135,
              "code": "mmol/L",
              "system": "http://unitsofmeasure.org"
            }
          },
          {
            "high": {
              "value": 145,
              "code": "mmol/L",
              "system": "http://unitsofmeasure.org"
            }
          }
        ],
        "text": {
          "status": "generated",
          "div": "<div xmlns=\"http://www.w3.org/1999/xhtml\"><table class=\"hl7__eu__lab__report\"><tr><th>Test</th><th>05-Mar-2020</th><th>Reference&#xA0;Range</th><th>Unit</th></tr><tr><td>Sodium [Moles/volume] in Blood</td><td>138.4</td><td>135 - 145</td><td></td><td>mmol/L</td></tr></table></div>"
        },
        "status": "final",
        "subject": {
          "reference": "urn:uuid:17c53d43-c6ee-4f9d-be51-76089f621faf",
          "display": "Pelayo Casal"
        },
        "effectiveDateTime": "2020-03-05T05:38:59Z",
        "specimen": {
          "reference": "urn:uuid:3d7659f6-29d5-42c7-9247-e6a421461c09"
        }
      }
    },
    {
      "fullUrl": "urn:uuid:cd1546fa-8c9d-41ea-84ab-844dc894a386",
      "resource": {
        "resourceType": "Observation",
        "id": "cd1546fa-8c9d-41ea-84ab-844dc894a386",
        "meta": {
          "profile": [
            "http://hl7.eu/fhir/laboratory/StructureDefinition/Observation-resultslab-eu-lab"
          ]
        },
        "performer": [
          {
            "display": "The Central European Lab"
          }
        ],
        "category": [
          {
            "coding": [
              {
                "system": "http://terminology.hl7.org/CodeSystem/observation-category",
                "code": "laboratory"
              }
            ]
          }
        ],
        "code": {
          "coding": [
            {
              "code": "6298-4",
              "system": "http://loinc.org",
              "display": "Potassium [Moles/volume] in Blood"
            }
          ],
          "text": "Potassium [Moles/volume] in Blood"
        },
        "valueQuantity": {
          "system": "http://unitsofmeasure.org",
          "value": 5.1,
          "unit": "mmol/L",
          "code": "mmol/L"
        },
        "referenceRange": [
          {
            "low": {
              "value": 3.5,
              "code": "mmol/L",
              "system": "http://unitsofmeasure.org"
            }
          },
          {
            "high": {
              "value": 5.1,
              "code": "mmol/L",
              "system": "http://unitsofmeasure.org"
            }
          }
        ],
        "text": {
          "status": "generated",
          "div": "<div xmlns=\"http://www.w3.org/1999/xhtml\"><table class=\"hl7__eu__lab__report\"><tr><th>Test</th><th>05-Mar-2020</th><th>Reference&#xA0;Range</th><th>Unit</th></tr><tr><td>Potassium [Moles/volume] in Blood</td><td>5.1</td><td>3.5 - 5.1</td><td></td><td>mmol/L</td></tr></table></div>"
        },
        "status": "final",
        "subject": {
          "reference": "urn:uuid:17c53d43-c6ee-4f9d-be51-76089f621faf",
          "display": "Pelayo Casal"
        },
        "effectiveDateTime": "2020-03-05T05:38:59Z",
        "specimen": {
          "reference": "urn:uuid:3d7659f6-29d5-42c7-9247-e6a421461c09"
        }
      }
    },
    {
      "fullUrl": "urn:uuid:19ae6263-a1e2-4fd8-9419-e69060e4f0c6",
      "resource": {
        "resourceType": "Observation",
        "id": "19ae6263-a1e2-4fd8-9419-e69060e4f0c6",
        "meta": {
          "profile": [
            "http://hl7.eu/fhir/laboratory/StructureDefinition/Observation-resultslab-eu-lab"
          ]
        },
        "performer": [
          {
            "display": "The Central European Lab"
          }
        ],
        "category": [
          {
            "coding": [
              {
                "system": "http://terminology.hl7.org/CodeSystem/observation-category",
                "code": "laboratory"
              }
            ]
          }
        ],
        "code": {
          "coding": [
            {
              "code": "2069-3",
              "system": "http://loinc.org",
              "display": "Chloride [Moles/volume] in Blood"
            }
          ],
          "text": "Chloride [Moles/volume] in Blood"
        },
        "valueQuantity": {
          "system": "http://unitsofmeasure.org",
          "value": 103.9,
          "unit": "mmol/L",
          "code": "mmol/L"
        },
        "referenceRange": [
          {
            "low": {
              "value": 98,
              "code": "mmol/L",
              "system": "http://unitsofmeasure.org"
            }
          },
          {
            "high": {
              "value": 108,
              "code": "mmol/L",
              "system": "http://unitsofmeasure.org"
            }
          }
        ],
        "text": {
          "status": "generated",
          "div": "<div xmlns=\"http://www.w3.org/1999/xhtml\"><table class=\"hl7__eu__lab__report\"><tr><th>Test</th><th>05-Mar-2020</th><th>Reference&#xA0;Range</th><th>Unit</th></tr><tr><td>Chloride [Moles/volume] in Blood</td><td>103.9</td><td>98 - 108</td><td></td><td>mmol/L</td></tr></table></div>"
        },
        "status": "final",
        "subject": {
          "reference": "urn:uuid:17c53d43-c6ee-4f9d-be51-76089f621faf",
          "display": "Pelayo Casal"
        },
        "effectiveDateTime": "2020-03-05T05:38:59Z",
        "specimen": {
          "reference": "urn:uuid:3d7659f6-29d5-42c7-9247-e6a421461c09"
        }
      }
    },
    {
      "fullUrl": "urn:uuid:9eaf95cd-f17f-47b4-8205-ac929332e789",
      "resource": {
        "resourceType": "Observation",
        "id": "9eaf95cd-f17f-47b4-8205-ac929332e789",
        "meta": {
          "profile": [
            "http://hl7.eu/fhir/laboratory/StructureDefinition/Observation-resultslab-eu-lab"
          ]
        },
        "performer": [
          {
            "display": "The Central European Lab"
          }
        ],
        "category": [
          {
            "coding": [
              {
                "system": "http://terminology.hl7.org/CodeSystem/observation-category",
                "code": "laboratory"
              }
            ]
          }
        ],
        "code": {
          "coding": [
            {
              "code": "20565-8",
              "system": "http://loinc.org",
              "display": "Carbon dioxide, total [Moles/volume] in Blood"
            }
          ],
          "text": "Carbon dioxide, total [Moles/volume] in Blood"
        },
        "valueQuantity": {
          "system": "http://unitsofmeasure.org",
          "value": 20.5,
          "unit": "mmol/L",
          "code": "mmol/L"
        },
        "referenceRange": [
          {
            "low": {
              "value": 22,
              "code": "mmol/L",
              "system": "http://unitsofmeasure.org"
            }
          },
          {
            "high": {
              "value": 32,
              "code": "mmol/L",
              "system": "http://unitsofmeasure.org"
            }
          }
        ],
        "interpretation": [
          {
            "coding": [
              {
                "code": "L",
                "system": "http://terminology.hl7.org/CodeSystem/v3-ObservationInterpretation",
                "display": "Low"
              }
            ]
          }
        ],
        "text": {
          "status": "generated",
          "div": "<div xmlns=\"http://www.w3.org/1999/xhtml\"><table class=\"hl7__eu__lab__report\"><tr><th>Test</th><th>05-Mar-2020</th><th>Reference&#xA0;Range</th><th>Unit</th></tr><tr><td>Carbon dioxide, total [Moles/volume] in Blood</td><td>20.5</td><td>22 - 32</td><td>L</td><td>mmol/L</td></tr></table></div>"
        },
        "status": "final",
        "subject": {
          "reference": "urn:uuid:17c53d43-c6ee-4f9d-be51-76089f621faf",
          "display": "Pelayo Casal"
        },
        "effectiveDateTime": "2020-03-05T05:38:59Z",
        "specimen": {
          "reference": "urn:uuid:3d7659f6-29d5-42c7-9247-e6a421461c09"
        }
      }
    },
    {
      "fullUrl": "urn:uuid:81f76ead-043f-4037-9907-7d9b05ecfaea",
      "resource": {
        "resourceType": "Device",
        "id": "81f76ead-043f-4037-9907-7d9b05ecfaea",
        "deviceName": [
          {
            "name": "SYNDERAI Synthetic Generator",
            "type": "manufacturer-name"
          }
        ],
        "version": [
          {
            "value": "5.0"
          }
        ],
        "text": {
          "status": "generated",
          "div": "<div xmlns=\"http://www.w3.org/1999/xhtml\">SYNDERAI Synthetic Generator v5.0</div>"
        },
        "status": "active\"",
        "distinctIdentifier": "synderai-generator-50",
        "manufacturer": "SYNDERAI Project"
      }
    },
    {
      "fullUrl": "urn:uuid:0b6c9a79-d7e6-4475-ba64-1742414c61c0",
      "resource": {
        "resourceType": "Provenance",
        "id": "0b6c9a79-d7e6-4475-ba64-1742414c61c0",
        "target": [
          {
            "reference": "Patient/17c53d43-c6ee-4f9d-be51-76089f621faf"
          },
          {
            "reference": "Bundle/38a88b4e-4f6c-4082-8bd4-fe5a26fb8f31"
          },
          {
            "reference": "Composition/fd9715ab-f2ba-459f-bbc7-58aed4bc440c"
          },
          {
            "reference": "PractitionerRole/77174c6d-68f3-4edd-bcfa-a4f7bdea3e60"
          },
          {
            "reference": "Practitioner/93808959-aeb3-4365-bdf5-b728259b6bd7"
          },
          {
            "reference": "PractitionerRole/b5224152-d4fc-4f54-b385-30d0d4a45ddb"
          },
          {
            "reference": "Organization/ac1fd7c9-54dc-4183-a987-f4c26c8fd2a3"
          }
        ],
        "activity": {
          "text": "Synthetic Example Data Generation"
        },
        "policy": [
          "https://synderai.net/synderai-synthetic-data-policy"
        ],
        "agent": [
          {
            "type": {
              "text": "author"
            },
            "who": {
              "reference": "Device/81f76ead-043f-4037-9907-7d9b05ecfaea"
            }
          }
        ],
        "reason": [
          {
            "text": "Interoperability Testing and Training (non-clinical use)"
          }
        ],
        "text": {
          "status": "generated",
          "div": "<div xmlns=\"http://www.w3.org/1999/xhtml\">Provenance for SYNDERAI Synthetic Example Data Resource</div>"
        },
        "recorded": "2020-03-05T06:38:59Z"
      }
    },
    {
      "fullUrl": "urn:uuid:77174c6d-68f3-4edd-bcfa-a4f7bdea3e60",
      "resource": {
        "resourceType": "PractitionerRole",
        "id": "77174c6d-68f3-4edd-bcfa-a4f7bdea3e60",
        "meta": {
          "profile": [
            "http://hl7.eu/fhir/base/StructureDefinition/practitionerRole-eu"
          ]
        },
        "text": {
          "status": "generated",
          "div": "<div xmlns=\"http://www.w3.org/1999/xhtml\">Laboratory Role Id: 77174c6d-68f3-4edd-bcfa-a4f7bdea3e60</div>"
        },
        "practitioner": {
          "reference": "urn:uuid:93808959-aeb3-4365-bdf5-b728259b6bd7"
        }
      }
    },
    {
      "fullUrl": "urn:uuid:93808959-aeb3-4365-bdf5-b728259b6bd7",
      "resource": {
        "resourceType": "Practitioner",
        "id": "93808959-aeb3-4365-bdf5-b728259b6bd7",
        "meta": {
          "profile": [
            "http://hl7.eu/fhir/base/StructureDefinition/practitioner-eu"
          ]
        },
        "identifier": [
          {
            "assigner": {
              "display": "HL7 Europe"
            },
            "system": "urn:oid:2.16.840.1.113883.2.51.999",
            "value": "f3c2ab90-3961-4daf-8789-c520c80b41bb"
          }
        ],
        "name": [
          {
            "prefix": [
              "dr"
            ],
            "given": [
              "Ex"
            ],
            "family": "Ample"
          }
        ],
        "address": [
          {
            "line": [
              "Laboratoire Central Européenne",
              "Boulevard du Jardin Botanique 32"
            ],
            "postalCode": "1000",
            "city": "Brussels",
            "country": "Belgium"
          }
        ],
        "text": {
          "status": "generated",
          "div": "<div xmlns=\"http://www.w3.org/1999/xhtml\">Laboratory: Laboratoire Central Européenne, 1000 Brussels, Belgium</div>"
        }
      }
    }
  ],
  "type": "document",
  "timestamp": "2020-03-05T06:38:59Z"
}
