{
  "resourceType": "Bundle",
  "id": "2f3dd8e9-e566-4b63-9b34-e69faa376e46",
  "meta": {
    "profile": [
      "http://hl7.eu/fhir/laboratory/StructureDefinition/Bundle-eu-lab"
    ]
  },
  "identifier": {
    "assigner": {
      "display": "HL7 Europe"
    },
    "system": "urn:oid:2.16.840.1.113883.2.51.999",
    "value": "c09e96eb-dc49-4e4f-a5f3-2672e612cf0b"
  },
  "entry": [
    {
      "fullUrl": "urn:uuid:1aa18407-fcf7-49ce-a39c-b5deee258cc7",
      "resource": {
        "resourceType": "Composition",
        "id": "1aa18407-fcf7-49ce-a39c-b5deee258cc7",
        "meta": {
          "profile": [
            "http://hl7.eu/fhir/laboratory/StructureDefinition/Composition-eu-lab"
          ]
        },
        "identifier": {
          "assigner": {
            "display": "HL7 Europe"
          },
          "system": "urn:oid:2.16.840.1.113883.2.51.999",
          "value": "b08bb54c-4238-415f-b4a0-c1f2d9f64a34"
        },
        "author": [
          {
            "reference": "urn:uuid:dc219b4f-258f-4467-a596-f74dce98a02e"
          }
        ],
        "category": [
          {
            "coding": [
              {
                "code": "26436-6",
                "system": "http://loinc.org",
                "display": "Laboratory studies (set)"
              }
            ]
          }
        ],
        "type": {
          "coding": [
            {
              "code": "11502-2",
              "system": "http://loinc.org",
              "display": "Laboratory report"
            }
          ],
          "text": "Laboratory Report"
        },
        "section": [
          {
            "code": {
              "coding": [
                {
                  "code": "26436-6",
                  "system": "http://loinc.org",
                  "display": "Laboratory studies (set)"
                }
              ],
              "text": "Laboratory studies"
            },
            "section": [
              {
                "code": {
                  "coding": [
                    {
                      "code": "$18719-5",
                      "system": "http://loinc.org",
                      "display": "Chemistry studies (set)"
                    }
                  ],
                  "text": "Chemistry"
                },
                "entry": [
                  {
                    "reference": "urn:uuid:87a67468-cff7-4a58-bddb-acae463ea44f"
                  },
                  {
                    "reference": "urn:uuid:63a5f946-8809-438a-a665-97f3a001fa54"
                  },
                  {
                    "reference": "urn:uuid:ef899520-2ced-46fb-881c-70495b684024"
                  },
                  {
                    "reference": "urn:uuid:b8faa674-17fa-4071-82a3-9a8a582c563f"
                  },
                  {
                    "reference": "urn:uuid:9d45d44b-fcbc-4c39-970d-079a91d73116"
                  },
                  {
                    "reference": "urn:uuid:e948297d-03e7-4304-b1dc-407a32f655c1"
                  },
                  {
                    "reference": "urn:uuid:fe3f4f38-78c6-4a9f-96e5-1bdfd278a42c"
                  },
                  {
                    "reference": "urn:uuid:45377373-a8af-4647-8e3e-f728f98f558f"
                  },
                  {
                    "reference": "urn:uuid:e031618b-2db7-4f05-8226-ea4aea85bf74"
                  },
                  {
                    "reference": "urn:uuid:5bb5bbc3-96a7-4318-a5c5-91b967b3abfc"
                  },
                  {
                    "reference": "urn:uuid:faae6328-4d7c-44fc-896b-0fe850e94d9e"
                  },
                  {
                    "reference": "urn:uuid:4ce5412e-0069-4ef2-a431-6f72d07d5bd1"
                  },
                  {
                    "reference": "urn:uuid:ccdd1dbc-a824-4d61-a251-ffde78879570"
                  },
                  {
                    "reference": "urn:uuid:11064c6f-25dd-42d4-ab47-bde1b8672962"
                  },
                  {
                    "reference": "urn:uuid:21c97344-3763-4219-9fee-573e5279adc5"
                  },
                  {
                    "reference": "urn:uuid:42c5a3db-7cc5-4f70-b7bb-30d1a4ef0175"
                  },
                  {
                    "reference": "urn:uuid:f8737606-b0b9-434c-a442-4b50093f78ee"
                  },
                  {
                    "reference": "urn:uuid:019bdca3-30d8-49fe-b137-3baeca5a588b"
                  }
                ],
                "text": {
                  "status": "generated",
                  "div": "<div xmlns=\"http://www.w3.org/1999/xhtml\"><h3>Chemistry</h3><table class=\"hl7__eu__lab__report\"><thead><tr><th>Test</th><th>07-FEB-2020</th><th>Reference&#xA0;Range</th><th>Unit</th></tr></thead><tbody><tr><td>Glucose [Mass/volume] in Serum or Plasma</td><td>83.4</td><td>70 - 140</td><td>mg/dL</td></tr><tr><td>Urea nitrogen [Mass/volume] in Serum or Plasma</td><td>12.4</td><td>7 - 20</td><td>mg/dL</td></tr><tr><td>Creatinine [Mass/volume] in Serum or Plasma</td><td><strong>2.1 H</strong></td><td>0.9 - 1.3</td><td>mg/dL</td></tr><tr><td>Calcium [Mass/volume] in Serum or Plasma</td><td>9.2</td><td>8.5 - 10.5</td><td>mg/dL</td></tr><tr><td>Sodium [Moles/volume] in Serum or Plasma</td><td>142.6</td><td>135 - 145</td><td>mmol/L</td></tr><tr><td>Potassium [Moles/volume] in Serum or Plasma</td><td>4.2</td><td>3.5 - 5.3</td><td>mmol/L</td></tr><tr><td>Chloride [Moles/volume] in Serum or Plasma</td><td>105.9</td><td>98 - 107</td><td>mmol/L</td></tr><tr><td>Carbon dioxide, total [Moles/volume] in Serum or Plasma</td><td>22.9</td><td>22 - 33</td><td>mmol/L</td></tr><tr><td>Ketones [Presence] in Urine by Test strip</td><td>Urine ketone test = ++</td><td></td><td></td></tr><tr><td>Hemoglobin A1c/Hemoglobin.total in Blood</td><td><strong>3.0 L</strong></td><td>4.3 - 6</td><td>%</td></tr><tr><td>Glucose [Mass/volume] in Blood</td><td>83.4</td><td>70 - 140</td><td>mg/dL</td></tr><tr><td>Urea nitrogen [Mass/volume] in Blood</td><td>12.4</td><td>7 - 20</td><td>mg/dL</td></tr><tr><td>Creatinine [Mass/volume] in Blood</td><td><strong>4.6 H</strong></td><td>0.9 - 1.3</td><td>mg/dL</td></tr><tr><td>Calcium [Mass/volume] in Blood</td><td>9.2</td><td>8.5 - 10.5</td><td>mg/dL</td></tr><tr><td>Sodium [Moles/volume] in Blood</td><td>142.6</td><td>135 - 145</td><td>mmol/L</td></tr><tr><td>Potassium [Moles/volume] in Blood</td><td>4.2</td><td>3.5 - 5.1</td><td>mmol/L</td></tr><tr><td>Chloride [Moles/volume] in Blood</td><td>105.9</td><td>98 - 108</td><td>mmol/L</td></tr><tr><td>Carbon dioxide, total [Moles/volume] in Blood</td><td>22.9</td><td>22 - 29</td><td>mmol/L</td></tr></tbody></table></div>"
                },
                "title": "Chemistry"
              },
              {
                "code": {
                  "coding": [
                    {
                      "code": "$18729-4",
                      "system": "http://loinc.org",
                      "display": "Urinalysis studies (set)"
                    }
                  ],
                  "text": "Urinalysis"
                },
                "entry": [
                  {
                    "reference": "urn:uuid:a2ac558c-2c7b-4cc3-9e1f-b5bca226a64f"
                  },
                  {
                    "reference": "urn:uuid:17929367-bf93-4455-8f61-5fcda9a23738"
                  },
                  {
                    "reference": "urn:uuid:6bed7030-9300-4a99-8c72-5a2031685100"
                  },
                  {
                    "reference": "urn:uuid:044f8187-eda5-45e4-8a95-d41bd13652c8"
                  },
                  {
                    "reference": "urn:uuid:64de608d-52d7-4f68-8355-1eb7e6b5edd3"
                  },
                  {
                    "reference": "urn:uuid:04bb38bb-ddab-41ca-91a1-e27c84329a48"
                  },
                  {
                    "reference": "urn:uuid:f55428d8-fd24-42f2-adac-d4f4360aa395"
                  },
                  {
                    "reference": "urn:uuid:0fd47f1c-c1f6-494b-bfaf-a3e62d0c8457"
                  },
                  {
                    "reference": "urn:uuid:312f5d07-e6ea-4b04-9764-cbc3695699ac"
                  },
                  {
                    "reference": "urn:uuid:1dad0f7b-84d4-406b-af47-81facffcbd75"
                  },
                  {
                    "reference": "urn:uuid:82b98d8d-8ede-44a7-9041-f19099aeeb70"
                  },
                  {
                    "reference": "urn:uuid:acccaa05-8da7-4fe0-90e7-9545f3c442cc"
                  }
                ],
                "text": {
                  "status": "generated",
                  "div": "<div xmlns=\"http://www.w3.org/1999/xhtml\"><h3>Urinalysis</h3><table class=\"hl7__eu__lab__report\"><thead><tr><th>Test</th><th>07-FEB-2020</th><th>Reference&#xA0;Range</th><th>Unit</th></tr></thead><tbody><tr><td>Glucose [Mass/volume] in Urine by Test strip</td><td><strong>1.5 H</strong></td><td>0 - 0.8</td><td>mg/dL</td></tr><tr><td>Glucose [Presence] in Urine by Test strip</td><td>++</td><td></td><td></td></tr><tr><td>Bilirubin.total [Mass/volume] in Urine by Test strip</td><td>1.2</td><td>0 - 1.9</td><td>mg/dL</td></tr><tr><td>Bilirubin.total [Presence] in Urine by Test strip</td><td>Finding of bilirubin in urine</td><td></td><td></td></tr><tr><td>Ketones [Mass/volume] in Urine by Test strip</td><td>0.1</td><td>0 - 3</td><td>mg/dL</td></tr><tr><td>Specific gravity of Urine by Test strip</td><td><strong>1.0 L</strong></td><td>1.01 - 1.03</td><td>{nominal}</td></tr><tr><td>pH of Urine by Test strip</td><td>6.6</td><td>4.5 - 7.5</td><td>pH</td></tr><tr><td>Protein [Mass/volume] in Urine by Test strip</td><td><strong>346.9 H</strong></td><td>0 - 149</td><td>mg/dL</td></tr><tr><td>Protein [Presence] in Urine by Test strip</td><td>Urine protein test = ++</td><td></td><td></td></tr><tr><td>Nitrite [Presence] in Urine by Test strip</td><td>Urine nitrite negative</td><td></td><td></td></tr><tr><td>Hemoglobin [Presence] in Urine by Test strip</td><td>Urine blood test = negative</td><td></td><td></td></tr><tr><td>Leukocyte esterase [Presence] in Urine by Test strip</td><td>Urine leukocyte test negative</td><td></td><td></td></tr></tbody></table></div>"
                },
                "title": "Urinalysis"
              },
              {
                "code": {
                  "coding": [
                    {
                      "code": "$LP7846-1",
                      "system": "http://loinc.org",
                      "display": "Specimen information"
                    }
                  ],
                  "text": "Specimen information"
                },
                "entry": [
                  {
                    "reference": "urn:uuid:02a9e3f5-16dd-4358-b781-d8477e19e6cd"
                  },
                  {
                    "reference": "urn:uuid:64a00327-754d-4c69-894c-6130d0a1e748"
                  },
                  {
                    "reference": "urn:uuid:c21d3007-b82f-472b-8d13-24f611e972a6"
                  },
                  {
                    "reference": "urn:uuid:2ffba0f1-f53f-4ad6-8e19-a4968847e926"
                  }
                ],
                "text": {
                  "status": "generated",
                  "div": "<div xmlns=\"http://www.w3.org/1999/xhtml\"><h3>Specimen information</h3><table class=\"hl7__eu__lab__report\"><thead><tr><th>Test</th><th>07-FEB-2020</th><th>Specimen</th><th></th></tr></thead><tbody><tr><td>Appearance of Urine</td><td>Cloudy urine</td><td>Urine</td><td></td></tr><tr><td>Odor of Urine</td><td>Urine smell ammoniacal</td><td>Urine</td><td></td></tr><tr><td>Clarity of Urine</td><td>Translucent</td><td>Urine</td><td></td></tr><tr><td>Color of Urine</td><td>Brown color</td><td>Urine</td><td></td></tr></tbody></table></div>"
                },
                "title": "Specimen information"
              }
            ],
            "title": "Laboratory Report"
          },
          {
            "text": {
              "status": "generated",
              "div": "<div xmlns=\"http://www.w3.org/1999/xhtml\"><h3>Annotation</h3><table class=\"hl7__eu__lab__report\"><tr><th>Conclusion and Recommendations based on this report and previous findings known to us</th></tr><tr><td>The patient shows significantly elevated creatinine, indicating impaired renal function, and marked proteinuria, suggesting possible nephropathy. Urine is dilute (low specific gravity), with glucosuria and ketonuria, but low HbA1c excludes chronic hyperglycemia. Urine is cloudy, brown, and ammoniacal, but no evidence of infection (negative nitrites/leukocytes). Findings are consistent with acute or chronic kidney injury, possibly with tubular dysfunction. Clinical correlation and further nephrological evaluation are recommended.</td></tr></table></div>"
            },
            "code": {
              "coding": [
                {
                  "system": "http://loinc.org",
                  "code": "48767-8",
                  "display": "Annotation comment"
                }
              ]
            },
            "title": "Annotation comment"
          }
        ],
        "status": "final",
        "subject": {
          "reference": "urn:uuid:ab01d3c8-1229-4f29-9256-9a95409cc9ec",
          "display": "Victor Lagarde"
        },
        "date": "2020-02-07T05:48:18Z",
        "title": "Laboratory Report",
        "confidentiality": "N"
      }
    },
    {
      "fullUrl": "urn:uuid:f9a04eb4-1a0e-4e17-b145-1ca39e3ce22b",
      "resource": {
        "resourceType": "DiagnosticReport",
        "id": "f9a04eb4-1a0e-4e17-b145-1ca39e3ce22b",
        "meta": {
          "profile": [
            "http://hl7.eu/fhir/laboratory/StructureDefinition/DiagnosticReport-eu-lab"
          ]
        },
        "identifier": [
          {
            "assigner": {
              "display": "HL7 Europe"
            },
            "system": "urn:oid:2.16.840.1.113883.2.51.999",
            "value": "51198841-f5f4-4a41-8631-fdb295edf702"
          }
        ],
        "extension": [
          {
            "url": "http://hl7.org/fhir/5.0/StructureDefinition/extension-DiagnosticReport.composition",
            "valueReference": {
              "reference": "urn:uuid:b08bb54c-4238-415f-b4a0-c1f2d9f64a34"
            }
          }
        ],
        "category": [
          {
            "coding": [
              {
                "code": "26436-6",
                "system": "http://loinc.org",
                "display": "Laboratory studies (set)"
              }
            ]
          }
        ],
        "specimen": [
          {
            "reference": "urn:uuid:eb6b04cc-a71c-4578-875b-cf375e47d927"
          },
          {
            "reference": "urn:uuid:3ce7a6f7-1ffa-4c33-a3e1-b2b8d1743bbd"
          },
          {
            "reference": "urn:uuid:d3ec382a-2644-412b-b59a-bb4a98223a95"
          }
        ],
        "result": [
          {
            "reference": "urn:uuid:87a67468-cff7-4a58-bddb-acae463ea44f"
          },
          {
            "reference": "urn:uuid:63a5f946-8809-438a-a665-97f3a001fa54"
          },
          {
            "reference": "urn:uuid:ef899520-2ced-46fb-881c-70495b684024"
          },
          {
            "reference": "urn:uuid:b8faa674-17fa-4071-82a3-9a8a582c563f"
          },
          {
            "reference": "urn:uuid:9d45d44b-fcbc-4c39-970d-079a91d73116"
          },
          {
            "reference": "urn:uuid:e948297d-03e7-4304-b1dc-407a32f655c1"
          },
          {
            "reference": "urn:uuid:fe3f4f38-78c6-4a9f-96e5-1bdfd278a42c"
          },
          {
            "reference": "urn:uuid:45377373-a8af-4647-8e3e-f728f98f558f"
          },
          {
            "reference": "urn:uuid:02a9e3f5-16dd-4358-b781-d8477e19e6cd"
          },
          {
            "reference": "urn:uuid:64a00327-754d-4c69-894c-6130d0a1e748"
          },
          {
            "reference": "urn:uuid:c21d3007-b82f-472b-8d13-24f611e972a6"
          },
          {
            "reference": "urn:uuid:2ffba0f1-f53f-4ad6-8e19-a4968847e926"
          },
          {
            "reference": "urn:uuid:a2ac558c-2c7b-4cc3-9e1f-b5bca226a64f"
          },
          {
            "reference": "urn:uuid:17929367-bf93-4455-8f61-5fcda9a23738"
          },
          {
            "reference": "urn:uuid:6bed7030-9300-4a99-8c72-5a2031685100"
          },
          {
            "reference": "urn:uuid:044f8187-eda5-45e4-8a95-d41bd13652c8"
          },
          {
            "reference": "urn:uuid:64de608d-52d7-4f68-8355-1eb7e6b5edd3"
          },
          {
            "reference": "urn:uuid:e031618b-2db7-4f05-8226-ea4aea85bf74"
          },
          {
            "reference": "urn:uuid:04bb38bb-ddab-41ca-91a1-e27c84329a48"
          },
          {
            "reference": "urn:uuid:f55428d8-fd24-42f2-adac-d4f4360aa395"
          },
          {
            "reference": "urn:uuid:0fd47f1c-c1f6-494b-bfaf-a3e62d0c8457"
          },
          {
            "reference": "urn:uuid:312f5d07-e6ea-4b04-9764-cbc3695699ac"
          },
          {
            "reference": "urn:uuid:1dad0f7b-84d4-406b-af47-81facffcbd75"
          },
          {
            "reference": "urn:uuid:82b98d8d-8ede-44a7-9041-f19099aeeb70"
          },
          {
            "reference": "urn:uuid:acccaa05-8da7-4fe0-90e7-9545f3c442cc"
          },
          {
            "reference": "urn:uuid:5bb5bbc3-96a7-4318-a5c5-91b967b3abfc"
          },
          {
            "reference": "urn:uuid:faae6328-4d7c-44fc-896b-0fe850e94d9e"
          },
          {
            "reference": "urn:uuid:4ce5412e-0069-4ef2-a431-6f72d07d5bd1"
          },
          {
            "reference": "urn:uuid:ccdd1dbc-a824-4d61-a251-ffde78879570"
          },
          {
            "reference": "urn:uuid:11064c6f-25dd-42d4-ab47-bde1b8672962"
          },
          {
            "reference": "urn:uuid:21c97344-3763-4219-9fee-573e5279adc5"
          },
          {
            "reference": "urn:uuid:42c5a3db-7cc5-4f70-b7bb-30d1a4ef0175"
          },
          {
            "reference": "urn:uuid:f8737606-b0b9-434c-a442-4b50093f78ee"
          },
          {
            "reference": "urn:uuid:019bdca3-30d8-49fe-b137-3baeca5a588b"
          }
        ],
        "status": "registered",
        "code": {
          "coding": [
            {
              "code": "11502-2",
              "system": "http://loinc.org",
              "display": "Laboratory report"
            }
          ]
        },
        "subject": {
          "reference": "urn:uuid:ab01d3c8-1229-4f29-9256-9a95409cc9ec",
          "display": "Victor Lagarde"
        }
      }
    },
    {
      "fullUrl": "urn:uuid:ab01d3c8-1229-4f29-9256-9a95409cc9ec",
      "resource": {
        "resourceType": "Patient",
        "id": "ab01d3c8-1229-4f29-9256-9a95409cc9ec",
        "meta": {
          "security": [
            {
              "system": "http://terminology.hl7.org/CodeSystem/v3-ActReason",
              "code": "HTEST"
            },
            {
              "system": "http://terminology.hl7.org/CodeSystem/v3-ActReason",
              "code": "TRAIN"
            }
          ],
          "tag": [
            {
              "system": "https://synderai.net/fhir/CodeSystem/tags",
              "code": "synthetic",
              "display": "SYNDERAI Synthetic data"
            }
          ],
          "profile": [
            "http://hl7.eu/fhir/base/StructureDefinition/patient-eu-core"
          ]
        },
        "identifier": [
          {
            "type": {
              "coding": [
                {
                  "code": "PT",
                  "system": "http://terminology.hl7.org/CodeSystem/v2-0203"
                }
              ]
            },
            "system": "http://ec.europa.eu/identifier/eci",
            "value": "9925-001801-9"
          },
          {
            "type": {
              "coding": [
                {
                  "code": "MR",
                  "system": "http://terminology.hl7.org/CodeSystem/v2-0203"
                }
              ]
            },
            "system": "http://local.setting.eu/identifier",
            "value": "22c2dfd0-ac57-8833-2532-848f180896a4"
          }
        ],
        "name": [
          {
            "family": "Lagarde"
          },
          {
            "given": [
              "Victor"
            ]
          },
          {
            "text": "Victor Lagarde"
          }
        ],
        "address": [
          {
            "line": [
              "avenue Robert"
            ],
            "use": "home",
            "type": "physical",
            "postalCode": "80300",
            "city": "Albert",
            "country": "France"
          }
        ],
        "telecom": [
          {
            "system": "phone",
            "value": "0177941801"
          }
        ],
        "extension": [
          {
            "url": "http://hl7.org/fhir/StructureDefinition/patient-nationality",
            "valueCodeableConcept": {
              "coding": [
                {
                  "code": "FR",
                  "system": "http://hl7.org/fhir/ValueSet/country"
                }
              ]
            }
          }
        ],
        "text": {
          "status": "generated",
          "div": "<div xmlns=\"http://www.w3.org/1999/xhtml\"><table class=\"hl7__ips\"><tr><td>Victor Lagarde</td><td>male</td><td>31-Aug-1939</td></tr></table></div>"
        },
        "gender": "male",
        "birthDate": "1939-08-31"
      }
    },
    {
      "fullUrl": "urn:uuid:dc1c52ff-a5b5-4257-8422-dde50595ec82",
      "resource": {
        "resourceType": "ServiceRequest",
        "id": "dc1c52ff-a5b5-4257-8422-dde50595ec82",
        "meta": {
          "profile": [
            "http://hl7.eu/fhir/laboratory/StructureDefinition/ServiceRequest-eu-lab"
          ]
        },
        "identifier": [
          {
            "system": "http://example.org",
            "value": "7faaf035-1859-4b21-b3ed-c05a5f144a29"
          }
        ],
        "specimen": [
          {
            "reference": "urn:uuid:eb6b04cc-a71c-4578-875b-cf375e47d927"
          },
          {
            "reference": "urn:uuid:3ce7a6f7-1ffa-4c33-a3e1-b2b8d1743bbd"
          },
          {
            "reference": "urn:uuid:d3ec382a-2644-412b-b59a-bb4a98223a95"
          }
        ],
        "reasonCode": [
          {
            "coding": [
              {
                "code": "433144002",
                "system": "http://snomed.info/sct",
                "display": "Chronic kidney disease stage 3"
              }
            ]
          },
          {
            "coding": [
              {
                "code": "157141000119108",
                "system": "http://snomed.info/sct",
                "display": "Proteinuria due to type 2 diabetes mellitus"
              }
            ]
          },
          {
            "coding": [
              {
                "code": "431856006",
                "system": "http://snomed.info/sct",
                "display": "Chronic kidney disease stage 2"
              }
            ]
          },
          {
            "coding": [
              {
                "code": "90781000119102",
                "system": "http://snomed.info/sct",
                "display": "Microalbuminuria due to type 2 diabetes mellitus"
              }
            ]
          },
          {
            "coding": [
              {
                "code": "127013003",
                "system": "http://snomed.info/sct",
                "display": "Disorder of kidney due to diabetes mellitus"
              }
            ]
          },
          {
            "coding": [
              {
                "code": "431855005",
                "system": "http://snomed.info/sct",
                "display": "Chronic kidney disease stage 1"
              }
            ]
          },
          {
            "coding": [
              {
                "code": "55822004",
                "system": "http://snomed.info/sct",
                "display": "Hyperlipidemia"
              }
            ]
          },
          {
            "coding": [
              {
                "code": "59621000",
                "system": "http://snomed.info/sct",
                "display": "Essential hypertension"
              }
            ]
          },
          {
            "coding": [
              {
                "code": "237602007",
                "system": "http://snomed.info/sct",
                "display": "Metabolic syndrome X"
              }
            ]
          },
          {
            "coding": [
              {
                "code": "414545008",
                "system": "http://snomed.info/sct",
                "display": "Ischemic heart disease"
              }
            ]
          },
          {
            "coding": [
              {
                "code": "40055000",
                "system": "http://snomed.info/sct",
                "display": "Chronic sinusitis"
              }
            ]
          },
          {
            "coding": [
              {
                "code": "15777000",
                "system": "http://snomed.info/sct",
                "display": "Prediabetes"
              }
            ]
          },
          {
            "coding": [
              {
                "code": "271737000",
                "system": "http://snomed.info/sct",
                "display": "Anemia"
              }
            ]
          }
        ],
        "status": "active",
        "intent": "order",
        "code": {
          "coding": [
            {
              "code": "108252007",
              "system": "http://snomed.info/sct",
              "display": "Laboratory procedure"
            }
          ]
        },
        "subject": {
          "reference": "urn:uuid:ab01d3c8-1229-4f29-9256-9a95409cc9ec",
          "display": "Victor Lagarde"
        },
        "requester": {
          "reference": "urn:uuid:20448231-4afe-4295-a5b0-30f3c6ac4bff"
        }
      }
    },
    {
      "fullUrl": "urn:uuid:20448231-4afe-4295-a5b0-30f3c6ac4bff",
      "resource": {
        "resourceType": "PractitionerRole",
        "id": "20448231-4afe-4295-a5b0-30f3c6ac4bff",
        "meta": {
          "profile": [
            "http://hl7.eu/fhir/base/StructureDefinition/practitionerRole-eu"
          ]
        },
        "text": {
          "status": "generated",
          "div": "<div xmlns=\"http://www.w3.org/1999/xhtml\">Provider Role Id: 20448231-4afe-4295-a5b0-30f3c6ac4bff</div>"
        },
        "organization": {
          "reference": "urn:uuid:81e8bff4-75c1-4c0c-9c2b-e7c2034615e2"
        }
      }
    },
    {
      "fullUrl": "urn:uuid:81e8bff4-75c1-4c0c-9c2b-e7c2034615e2",
      "resource": {
        "resourceType": "Organization",
        "id": "81e8bff4-75c1-4c0c-9c2b-e7c2034615e2",
        "meta": {
          "profile": [
            "http://hl7.eu/fhir/base/StructureDefinition/organization-eu"
          ]
        },
        "identifier": [
          {
            "assigner": {
              "display": "HL7 Europe"
            },
            "system": "urn:oid:2.16.840.1.113883.2.51.999",
            "value": "b4cec4bf-d3e7-4393-b48a-bfcb2e309905"
          }
        ],
        "address": [
          {
            "city": "Auxerre",
            "postalCode": "89000",
            "country": "France"
          }
        ],
        "text": {
          "status": "generated",
          "div": "<div xmlns=\"http://www.w3.org/1999/xhtml\">Provider Organization: Thiriot Didier (Cardiologie)</div>"
        },
        "name": "Thiriot Didier (Cardiologie)"
      }
    },
    {
      "fullUrl": "urn:uuid:eb6b04cc-a71c-4578-875b-cf375e47d927",
      "resource": {
        "resourceType": "Specimen",
        "id": "eb6b04cc-a71c-4578-875b-cf375e47d927",
        "meta": {
          "profile": [
            "http://hl7.eu/fhir/laboratory/StructureDefinition/Specimen-eu-lab"
          ]
        },
        "collection": {
          "collectedDateTime": "2020-02-07"
        },
        "text": {
          "status": "generated",
          "div": "<div xmlns=\"http://www.w3.org/1999/xhtml\"><table class=\"hl7__eu__lab__report\"><tr><th>Specimen</th><th>Collection Date</th></tr><tr><td>Acellular blood (serum or plasma) specimen</td><td><span class=\"nb\">07-Feb-2020</span></td></tr></table></div>"
        },
        "type": {
          "coding": [
            {
              "code": "122592007",
              "system": "http://snomed.info/sct",
              "display": "Acellular blood (serum or plasma) specimen"
            }
          ]
        }
      }
    },
    {
      "fullUrl": "urn:uuid:3ce7a6f7-1ffa-4c33-a3e1-b2b8d1743bbd",
      "resource": {
        "resourceType": "Specimen",
        "id": "3ce7a6f7-1ffa-4c33-a3e1-b2b8d1743bbd",
        "meta": {
          "profile": [
            "http://hl7.eu/fhir/laboratory/StructureDefinition/Specimen-eu-lab"
          ]
        },
        "collection": {
          "collectedDateTime": "2020-02-07"
        },
        "text": {
          "status": "generated",
          "div": "<div xmlns=\"http://www.w3.org/1999/xhtml\"><table class=\"hl7__eu__lab__report\"><tr><th>Specimen</th><th>Collection Date</th></tr><tr><td>Urine specimen</td><td><span class=\"nb\">07-Feb-2020</span></td></tr></table></div>"
        },
        "type": {
          "coding": [
            {
              "code": "122575003",
              "system": "http://snomed.info/sct",
              "display": "Urine specimen"
            }
          ]
        }
      }
    },
    {
      "fullUrl": "urn:uuid:d3ec382a-2644-412b-b59a-bb4a98223a95",
      "resource": {
        "resourceType": "Specimen",
        "id": "d3ec382a-2644-412b-b59a-bb4a98223a95",
        "meta": {
          "profile": [
            "http://hl7.eu/fhir/laboratory/StructureDefinition/Specimen-eu-lab"
          ]
        },
        "collection": {
          "collectedDateTime": "2020-02-07"
        },
        "text": {
          "status": "generated",
          "div": "<div xmlns=\"http://www.w3.org/1999/xhtml\"><table class=\"hl7__eu__lab__report\"><tr><th>Specimen</th><th>Collection Date</th></tr><tr><td>Whole blood specimen (specimen)</td><td><span class=\"nb\">07-Feb-2020</span></td></tr></table></div>"
        },
        "type": {
          "coding": [
            {
              "code": "258580003",
              "system": "http://snomed.info/sct",
              "display": "Whole blood specimen (specimen)"
            }
          ]
        }
      }
    },
    {
      "fullUrl": "urn:uuid:87a67468-cff7-4a58-bddb-acae463ea44f",
      "resource": {
        "resourceType": "Observation",
        "id": "87a67468-cff7-4a58-bddb-acae463ea44f",
        "meta": {
          "profile": [
            "http://hl7.eu/fhir/laboratory/StructureDefinition/Observation-resultslab-eu-lab"
          ]
        },
        "performer": [
          {
            "display": "The Central European Lab"
          }
        ],
        "category": [
          {
            "coding": [
              {
                "system": "http://terminology.hl7.org/CodeSystem/observation-category",
                "code": "laboratory"
              }
            ]
          }
        ],
        "code": {
          "coding": [
            {
              "code": "2345-7",
              "system": "http://loinc.org",
              "display": "Glucose [Mass/volume] in Serum or Plasma"
            }
          ],
          "text": "Glucose [Mass/volume] in Serum or Plasma"
        },
        "valueQuantity": {
          "system": "http://unitsofmeasure.org",
          "value": 83.4,
          "unit": "mg/dL",
          "code": "mg/dL"
        },
        "referenceRange": [
          {
            "low": {
              "value": 70,
              "code": "mg/dL",
              "system": "http://unitsofmeasure.org"
            }
          },
          {
            "high": {
              "value": 140,
              "code": "mg/dL",
              "system": "http://unitsofmeasure.org"
            }
          }
        ],
        "text": {
          "status": "generated",
          "div": "<div xmlns=\"http://www.w3.org/1999/xhtml\"><table class=\"hl7__eu__lab__report\"><tr><th>Test</th><th>07-Feb-2020</th><th>Reference&#xA0;Range</th><th>Unit</th></tr><tr><td>Glucose [Mass/volume] in Serum or Plasma</td><td>83.4</td><td>70 - 140</td><td></td><td>mg/dL</td></tr></table></div>"
        },
        "status": "final",
        "subject": {
          "reference": "urn:uuid:ab01d3c8-1229-4f29-9256-9a95409cc9ec",
          "display": "Victor Lagarde"
        },
        "effectiveDateTime": "2020-02-07T04:48:18Z",
        "specimen": {
          "reference": "urn:uuid:eb6b04cc-a71c-4578-875b-cf375e47d927"
        }
      }
    },
    {
      "fullUrl": "urn:uuid:63a5f946-8809-438a-a665-97f3a001fa54",
      "resource": {
        "resourceType": "Observation",
        "id": "63a5f946-8809-438a-a665-97f3a001fa54",
        "meta": {
          "profile": [
            "http://hl7.eu/fhir/laboratory/StructureDefinition/Observation-resultslab-eu-lab"
          ]
        },
        "performer": [
          {
            "display": "The Central European Lab"
          }
        ],
        "category": [
          {
            "coding": [
              {
                "system": "http://terminology.hl7.org/CodeSystem/observation-category",
                "code": "laboratory"
              }
            ]
          }
        ],
        "code": {
          "coding": [
            {
              "code": "3094-0",
              "system": "http://loinc.org",
              "display": "Urea nitrogen [Mass/volume] in Serum or Plasma"
            }
          ],
          "text": "Urea nitrogen [Mass/volume] in Serum or Plasma"
        },
        "valueQuantity": {
          "system": "http://unitsofmeasure.org",
          "value": 12.4,
          "unit": "mg/dL",
          "code": "mg/dL"
        },
        "referenceRange": [
          {
            "low": {
              "value": 7,
              "code": "mg/dL",
              "system": "http://unitsofmeasure.org"
            }
          },
          {
            "high": {
              "value": 20,
              "code": "mg/dL",
              "system": "http://unitsofmeasure.org"
            }
          }
        ],
        "text": {
          "status": "generated",
          "div": "<div xmlns=\"http://www.w3.org/1999/xhtml\"><table class=\"hl7__eu__lab__report\"><tr><th>Test</th><th>07-Feb-2020</th><th>Reference&#xA0;Range</th><th>Unit</th></tr><tr><td>Urea nitrogen [Mass/volume] in Serum or Plasma</td><td>12.4</td><td>7 - 20</td><td></td><td>mg/dL</td></tr></table></div>"
        },
        "status": "final",
        "subject": {
          "reference": "urn:uuid:ab01d3c8-1229-4f29-9256-9a95409cc9ec",
          "display": "Victor Lagarde"
        },
        "effectiveDateTime": "2020-02-07T04:48:18Z",
        "specimen": {
          "reference": "urn:uuid:eb6b04cc-a71c-4578-875b-cf375e47d927"
        }
      }
    },
    {
      "fullUrl": "urn:uuid:ef899520-2ced-46fb-881c-70495b684024",
      "resource": {
        "resourceType": "Observation",
        "id": "ef899520-2ced-46fb-881c-70495b684024",
        "meta": {
          "profile": [
            "http://hl7.eu/fhir/laboratory/StructureDefinition/Observation-resultslab-eu-lab"
          ]
        },
        "performer": [
          {
            "display": "The Central European Lab"
          }
        ],
        "category": [
          {
            "coding": [
              {
                "system": "http://terminology.hl7.org/CodeSystem/observation-category",
                "code": "laboratory"
              }
            ]
          }
        ],
        "code": {
          "coding": [
            {
              "code": "2160-0",
              "system": "http://loinc.org",
              "display": "Creatinine [Mass/volume] in Serum or Plasma"
            }
          ],
          "text": "Creatinine [Mass/volume] in Serum or Plasma"
        },
        "valueQuantity": {
          "system": "http://unitsofmeasure.org",
          "value": 2.1,
          "unit": "mg/dL",
          "code": "mg/dL"
        },
        "referenceRange": [
          {
            "low": {
              "value": 0.9,
              "code": "mg/dL",
              "system": "http://unitsofmeasure.org"
            }
          },
          {
            "high": {
              "value": 1.3,
              "code": "mg/dL",
              "system": "http://unitsofmeasure.org"
            }
          }
        ],
        "interpretation": [
          {
            "coding": [
              {
                "code": "H",
                "system": "http://terminology.hl7.org/CodeSystem/v3-ObservationInterpretation",
                "display": "High"
              }
            ]
          }
        ],
        "text": {
          "status": "generated",
          "div": "<div xmlns=\"http://www.w3.org/1999/xhtml\"><table class=\"hl7__eu__lab__report\"><tr><th>Test</th><th>07-Feb-2020</th><th>Reference&#xA0;Range</th><th>Unit</th></tr><tr><td>Creatinine [Mass/volume] in Serum or Plasma</td><td>2.1</td><td>0.9 - 1.3</td><td>H</td><td>mg/dL</td></tr></table></div>"
        },
        "status": "final",
        "subject": {
          "reference": "urn:uuid:ab01d3c8-1229-4f29-9256-9a95409cc9ec",
          "display": "Victor Lagarde"
        },
        "effectiveDateTime": "2020-02-07T04:48:18Z",
        "specimen": {
          "reference": "urn:uuid:eb6b04cc-a71c-4578-875b-cf375e47d927"
        }
      }
    },
    {
      "fullUrl": "urn:uuid:b8faa674-17fa-4071-82a3-9a8a582c563f",
      "resource": {
        "resourceType": "Observation",
        "id": "b8faa674-17fa-4071-82a3-9a8a582c563f",
        "meta": {
          "profile": [
            "http://hl7.eu/fhir/laboratory/StructureDefinition/Observation-resultslab-eu-lab"
          ]
        },
        "performer": [
          {
            "display": "The Central European Lab"
          }
        ],
        "category": [
          {
            "coding": [
              {
                "system": "http://terminology.hl7.org/CodeSystem/observation-category",
                "code": "laboratory"
              }
            ]
          }
        ],
        "code": {
          "coding": [
            {
              "code": "17861-6",
              "system": "http://loinc.org",
              "display": "Calcium [Mass/volume] in Serum or Plasma"
            }
          ],
          "text": "Calcium [Mass/volume] in Serum or Plasma"
        },
        "valueQuantity": {
          "system": "http://unitsofmeasure.org",
          "value": 9.2,
          "unit": "mg/dL",
          "code": "mg/dL"
        },
        "referenceRange": [
          {
            "low": {
              "value": 8.5,
              "code": "mg/dL",
              "system": "http://unitsofmeasure.org"
            }
          },
          {
            "high": {
              "value": 10.5,
              "code": "mg/dL",
              "system": "http://unitsofmeasure.org"
            }
          }
        ],
        "text": {
          "status": "generated",
          "div": "<div xmlns=\"http://www.w3.org/1999/xhtml\"><table class=\"hl7__eu__lab__report\"><tr><th>Test</th><th>07-Feb-2020</th><th>Reference&#xA0;Range</th><th>Unit</th></tr><tr><td>Calcium [Mass/volume] in Serum or Plasma</td><td>9.2</td><td>8.5 - 10.5</td><td></td><td>mg/dL</td></tr></table></div>"
        },
        "status": "final",
        "subject": {
          "reference": "urn:uuid:ab01d3c8-1229-4f29-9256-9a95409cc9ec",
          "display": "Victor Lagarde"
        },
        "effectiveDateTime": "2020-02-07T04:48:18Z",
        "specimen": {
          "reference": "urn:uuid:eb6b04cc-a71c-4578-875b-cf375e47d927"
        }
      }
    },
    {
      "fullUrl": "urn:uuid:9d45d44b-fcbc-4c39-970d-079a91d73116",
      "resource": {
        "resourceType": "Observation",
        "id": "9d45d44b-fcbc-4c39-970d-079a91d73116",
        "meta": {
          "profile": [
            "http://hl7.eu/fhir/laboratory/StructureDefinition/Observation-resultslab-eu-lab"
          ]
        },
        "performer": [
          {
            "display": "The Central European Lab"
          }
        ],
        "category": [
          {
            "coding": [
              {
                "system": "http://terminology.hl7.org/CodeSystem/observation-category",
                "code": "laboratory"
              }
            ]
          }
        ],
        "code": {
          "coding": [
            {
              "code": "2951-2",
              "system": "http://loinc.org",
              "display": "Sodium [Moles/volume] in Serum or Plasma"
            }
          ],
          "text": "Sodium [Moles/volume] in Serum or Plasma"
        },
        "valueQuantity": {
          "system": "http://unitsofmeasure.org",
          "value": 142.6,
          "unit": "mmol/L",
          "code": "mmol/L"
        },
        "referenceRange": [
          {
            "low": {
              "value": 135,
              "code": "mmol/L",
              "system": "http://unitsofmeasure.org"
            }
          },
          {
            "high": {
              "value": 145,
              "code": "mmol/L",
              "system": "http://unitsofmeasure.org"
            }
          }
        ],
        "text": {
          "status": "generated",
          "div": "<div xmlns=\"http://www.w3.org/1999/xhtml\"><table class=\"hl7__eu__lab__report\"><tr><th>Test</th><th>07-Feb-2020</th><th>Reference&#xA0;Range</th><th>Unit</th></tr><tr><td>Sodium [Moles/volume] in Serum or Plasma</td><td>142.6</td><td>135 - 145</td><td></td><td>mmol/L</td></tr></table></div>"
        },
        "status": "final",
        "subject": {
          "reference": "urn:uuid:ab01d3c8-1229-4f29-9256-9a95409cc9ec",
          "display": "Victor Lagarde"
        },
        "effectiveDateTime": "2020-02-07T04:48:18Z",
        "specimen": {
          "reference": "urn:uuid:eb6b04cc-a71c-4578-875b-cf375e47d927"
        }
      }
    },
    {
      "fullUrl": "urn:uuid:e948297d-03e7-4304-b1dc-407a32f655c1",
      "resource": {
        "resourceType": "Observation",
        "id": "e948297d-03e7-4304-b1dc-407a32f655c1",
        "meta": {
          "profile": [
            "http://hl7.eu/fhir/laboratory/StructureDefinition/Observation-resultslab-eu-lab"
          ]
        },
        "performer": [
          {
            "display": "The Central European Lab"
          }
        ],
        "category": [
          {
            "coding": [
              {
                "system": "http://terminology.hl7.org/CodeSystem/observation-category",
                "code": "laboratory"
              }
            ]
          }
        ],
        "code": {
          "coding": [
            {
              "code": "2823-3",
              "system": "http://loinc.org",
              "display": "Potassium [Moles/volume] in Serum or Plasma"
            }
          ],
          "text": "Potassium [Moles/volume] in Serum or Plasma"
        },
        "valueQuantity": {
          "system": "http://unitsofmeasure.org",
          "value": 4.2,
          "unit": "mmol/L",
          "code": "mmol/L"
        },
        "referenceRange": [
          {
            "low": {
              "value": 3.5,
              "code": "mmol/L",
              "system": "http://unitsofmeasure.org"
            }
          },
          {
            "high": {
              "value": 5.3,
              "code": "mmol/L",
              "system": "http://unitsofmeasure.org"
            }
          }
        ],
        "text": {
          "status": "generated",
          "div": "<div xmlns=\"http://www.w3.org/1999/xhtml\"><table class=\"hl7__eu__lab__report\"><tr><th>Test</th><th>07-Feb-2020</th><th>Reference&#xA0;Range</th><th>Unit</th></tr><tr><td>Potassium [Moles/volume] in Serum or Plasma</td><td>4.2</td><td>3.5 - 5.3</td><td></td><td>mmol/L</td></tr></table></div>"
        },
        "status": "final",
        "subject": {
          "reference": "urn:uuid:ab01d3c8-1229-4f29-9256-9a95409cc9ec",
          "display": "Victor Lagarde"
        },
        "effectiveDateTime": "2020-02-07T04:48:18Z",
        "specimen": {
          "reference": "urn:uuid:eb6b04cc-a71c-4578-875b-cf375e47d927"
        }
      }
    },
    {
      "fullUrl": "urn:uuid:fe3f4f38-78c6-4a9f-96e5-1bdfd278a42c",
      "resource": {
        "resourceType": "Observation",
        "id": "fe3f4f38-78c6-4a9f-96e5-1bdfd278a42c",
        "meta": {
          "profile": [
            "http://hl7.eu/fhir/laboratory/StructureDefinition/Observation-resultslab-eu-lab"
          ]
        },
        "performer": [
          {
            "display": "The Central European Lab"
          }
        ],
        "category": [
          {
            "coding": [
              {
                "system": "http://terminology.hl7.org/CodeSystem/observation-category",
                "code": "laboratory"
              }
            ]
          }
        ],
        "code": {
          "coding": [
            {
              "code": "2075-0",
              "system": "http://loinc.org",
              "display": "Chloride [Moles/volume] in Serum or Plasma"
            }
          ],
          "text": "Chloride [Moles/volume] in Serum or Plasma"
        },
        "valueQuantity": {
          "system": "http://unitsofmeasure.org",
          "value": 105.9,
          "unit": "mmol/L",
          "code": "mmol/L"
        },
        "referenceRange": [
          {
            "low": {
              "value": 98,
              "code": "mmol/L",
              "system": "http://unitsofmeasure.org"
            }
          },
          {
            "high": {
              "value": 107,
              "code": "mmol/L",
              "system": "http://unitsofmeasure.org"
            }
          }
        ],
        "text": {
          "status": "generated",
          "div": "<div xmlns=\"http://www.w3.org/1999/xhtml\"><table class=\"hl7__eu__lab__report\"><tr><th>Test</th><th>07-Feb-2020</th><th>Reference&#xA0;Range</th><th>Unit</th></tr><tr><td>Chloride [Moles/volume] in Serum or Plasma</td><td>105.9</td><td>98 - 107</td><td></td><td>mmol/L</td></tr></table></div>"
        },
        "status": "final",
        "subject": {
          "reference": "urn:uuid:ab01d3c8-1229-4f29-9256-9a95409cc9ec",
          "display": "Victor Lagarde"
        },
        "effectiveDateTime": "2020-02-07T04:48:18Z",
        "specimen": {
          "reference": "urn:uuid:eb6b04cc-a71c-4578-875b-cf375e47d927"
        }
      }
    },
    {
      "fullUrl": "urn:uuid:45377373-a8af-4647-8e3e-f728f98f558f",
      "resource": {
        "resourceType": "Observation",
        "id": "45377373-a8af-4647-8e3e-f728f98f558f",
        "meta": {
          "profile": [
            "http://hl7.eu/fhir/laboratory/StructureDefinition/Observation-resultslab-eu-lab"
          ]
        },
        "performer": [
          {
            "display": "The Central European Lab"
          }
        ],
        "category": [
          {
            "coding": [
              {
                "system": "http://terminology.hl7.org/CodeSystem/observation-category",
                "code": "laboratory"
              }
            ]
          }
        ],
        "code": {
          "coding": [
            {
              "code": "2028-9",
              "system": "http://loinc.org",
              "display": "Carbon dioxide, total [Moles/volume] in Serum or Plasma"
            }
          ],
          "text": "Carbon dioxide, total [Moles/volume] in Serum or Plasma"
        },
        "valueQuantity": {
          "system": "http://unitsofmeasure.org",
          "value": 22.9,
          "unit": "mmol/L",
          "code": "mmol/L"
        },
        "referenceRange": [
          {
            "low": {
              "value": 22,
              "code": "mmol/L",
              "system": "http://unitsofmeasure.org"
            }
          },
          {
            "high": {
              "value": 33,
              "code": "mmol/L",
              "system": "http://unitsofmeasure.org"
            }
          }
        ],
        "text": {
          "status": "generated",
          "div": "<div xmlns=\"http://www.w3.org/1999/xhtml\"><table class=\"hl7__eu__lab__report\"><tr><th>Test</th><th>07-Feb-2020</th><th>Reference&#xA0;Range</th><th>Unit</th></tr><tr><td>Carbon dioxide, total [Moles/volume] in Serum or Plasma</td><td>22.9</td><td>22 - 33</td><td></td><td>mmol/L</td></tr></table></div>"
        },
        "status": "final",
        "subject": {
          "reference": "urn:uuid:ab01d3c8-1229-4f29-9256-9a95409cc9ec",
          "display": "Victor Lagarde"
        },
        "effectiveDateTime": "2020-02-07T04:48:18Z",
        "specimen": {
          "reference": "urn:uuid:eb6b04cc-a71c-4578-875b-cf375e47d927"
        }
      }
    },
    {
      "fullUrl": "urn:uuid:02a9e3f5-16dd-4358-b781-d8477e19e6cd",
      "resource": {
        "resourceType": "Observation",
        "id": "02a9e3f5-16dd-4358-b781-d8477e19e6cd",
        "meta": {
          "profile": [
            "http://hl7.eu/fhir/laboratory/StructureDefinition/Observation-resultslab-eu-lab"
          ]
        },
        "performer": [
          {
            "display": "The Central European Lab"
          }
        ],
        "category": [
          {
            "coding": [
              {
                "system": "http://terminology.hl7.org/CodeSystem/observation-category",
                "code": "laboratory"
              }
            ]
          }
        ],
        "code": {
          "coding": [
            {
              "code": "5767-9",
              "system": "http://loinc.org",
              "display": "Appearance of Urine"
            }
          ],
          "text": "Appearance of Urine"
        },
        "text": {
          "status": "generated",
          "div": "<div xmlns=\"http://www.w3.org/1999/xhtml\"><table class=\"hl7__eu__lab__report\"><tr><th>Test</th><th>07-Feb-2020</th><th>Reference&#xA0;Range</th><th>Unit</th></tr><tr><td>Appearance of Urine</td></tr></table></div>"
        },
        "status": "final",
        "subject": {
          "reference": "urn:uuid:ab01d3c8-1229-4f29-9256-9a95409cc9ec",
          "display": "Victor Lagarde"
        },
        "effectiveDateTime": "2020-02-07T04:48:18Z",
        "specimen": {
          "reference": "urn:uuid:3ce7a6f7-1ffa-4c33-a3e1-b2b8d1743bbd"
        }
      }
    },
    {
      "fullUrl": "urn:uuid:64a00327-754d-4c69-894c-6130d0a1e748",
      "resource": {
        "resourceType": "Observation",
        "id": "64a00327-754d-4c69-894c-6130d0a1e748",
        "meta": {
          "profile": [
            "http://hl7.eu/fhir/laboratory/StructureDefinition/Observation-resultslab-eu-lab"
          ]
        },
        "performer": [
          {
            "display": "The Central European Lab"
          }
        ],
        "category": [
          {
            "coding": [
              {
                "system": "http://terminology.hl7.org/CodeSystem/observation-category",
                "code": "laboratory"
              }
            ]
          }
        ],
        "code": {
          "coding": [
            {
              "code": "34533-0",
              "system": "http://loinc.org",
              "display": "Odor of Urine"
            }
          ],
          "text": "Odor of Urine"
        },
        "text": {
          "status": "generated",
          "div": "<div xmlns=\"http://www.w3.org/1999/xhtml\"><table class=\"hl7__eu__lab__report\"><tr><th>Test</th><th>07-Feb-2020</th><th>Reference&#xA0;Range</th><th>Unit</th></tr><tr><td>Odor of Urine</td></tr></table></div>"
        },
        "status": "final",
        "subject": {
          "reference": "urn:uuid:ab01d3c8-1229-4f29-9256-9a95409cc9ec",
          "display": "Victor Lagarde"
        },
        "effectiveDateTime": "2020-02-07T04:48:18Z",
        "specimen": {
          "reference": "urn:uuid:3ce7a6f7-1ffa-4c33-a3e1-b2b8d1743bbd"
        }
      }
    },
    {
      "fullUrl": "urn:uuid:c21d3007-b82f-472b-8d13-24f611e972a6",
      "resource": {
        "resourceType": "Observation",
        "id": "c21d3007-b82f-472b-8d13-24f611e972a6",
        "meta": {
          "profile": [
            "http://hl7.eu/fhir/laboratory/StructureDefinition/Observation-resultslab-eu-lab"
          ]
        },
        "performer": [
          {
            "display": "The Central European Lab"
          }
        ],
        "category": [
          {
            "coding": [
              {
                "system": "http://terminology.hl7.org/CodeSystem/observation-category",
                "code": "laboratory"
              }
            ]
          }
        ],
        "code": {
          "coding": [
            {
              "code": "32167-9",
              "system": "http://loinc.org",
              "display": "Clarity of Urine"
            }
          ],
          "text": "Clarity of Urine"
        },
        "text": {
          "status": "generated",
          "div": "<div xmlns=\"http://www.w3.org/1999/xhtml\"><table class=\"hl7__eu__lab__report\"><tr><th>Test</th><th>07-Feb-2020</th><th>Reference&#xA0;Range</th><th>Unit</th></tr><tr><td>Clarity of Urine</td></tr></table></div>"
        },
        "status": "final",
        "subject": {
          "reference": "urn:uuid:ab01d3c8-1229-4f29-9256-9a95409cc9ec",
          "display": "Victor Lagarde"
        },
        "effectiveDateTime": "2020-02-07T04:48:18Z",
        "specimen": {
          "reference": "urn:uuid:3ce7a6f7-1ffa-4c33-a3e1-b2b8d1743bbd"
        }
      }
    },
    {
      "fullUrl": "urn:uuid:2ffba0f1-f53f-4ad6-8e19-a4968847e926",
      "resource": {
        "resourceType": "Observation",
        "id": "2ffba0f1-f53f-4ad6-8e19-a4968847e926",
        "meta": {
          "profile": [
            "http://hl7.eu/fhir/laboratory/StructureDefinition/Observation-resultslab-eu-lab"
          ]
        },
        "performer": [
          {
            "display": "The Central European Lab"
          }
        ],
        "category": [
          {
            "coding": [
              {
                "system": "http://terminology.hl7.org/CodeSystem/observation-category",
                "code": "laboratory"
              }
            ]
          }
        ],
        "code": {
          "coding": [
            {
              "code": "5778-6",
              "system": "http://loinc.org",
              "display": "Color of Urine"
            }
          ],
          "text": "Color of Urine"
        },
        "text": {
          "status": "generated",
          "div": "<div xmlns=\"http://www.w3.org/1999/xhtml\"><table class=\"hl7__eu__lab__report\"><tr><th>Test</th><th>07-Feb-2020</th><th>Reference&#xA0;Range</th><th>Unit</th></tr><tr><td>Color of Urine</td></tr></table></div>"
        },
        "status": "final",
        "subject": {
          "reference": "urn:uuid:ab01d3c8-1229-4f29-9256-9a95409cc9ec",
          "display": "Victor Lagarde"
        },
        "effectiveDateTime": "2020-02-07T04:48:18Z",
        "specimen": {
          "reference": "urn:uuid:3ce7a6f7-1ffa-4c33-a3e1-b2b8d1743bbd"
        }
      }
    },
    {
      "fullUrl": "urn:uuid:a2ac558c-2c7b-4cc3-9e1f-b5bca226a64f",
      "resource": {
        "resourceType": "Observation",
        "id": "a2ac558c-2c7b-4cc3-9e1f-b5bca226a64f",
        "meta": {
          "profile": [
            "http://hl7.eu/fhir/laboratory/StructureDefinition/Observation-resultslab-eu-lab"
          ]
        },
        "performer": [
          {
            "display": "The Central European Lab"
          }
        ],
        "category": [
          {
            "coding": [
              {
                "system": "http://terminology.hl7.org/CodeSystem/observation-category",
                "code": "laboratory"
              }
            ]
          }
        ],
        "code": {
          "coding": [
            {
              "code": "5792-7",
              "system": "http://loinc.org",
              "display": "Glucose [Mass/volume] in Urine by Test strip"
            }
          ],
          "text": "Glucose [Mass/volume] in Urine by Test strip"
        },
        "valueQuantity": {
          "system": "http://unitsofmeasure.org",
          "value": 1.5,
          "unit": "mg/dL",
          "code": "mg/dL"
        },
        "referenceRange": [
          {
            "low": {
              "value": 0,
              "code": "mg/dL",
              "system": "http://unitsofmeasure.org"
            }
          },
          {
            "high": {
              "value": 0.8,
              "code": "mg/dL",
              "system": "http://unitsofmeasure.org"
            }
          }
        ],
        "interpretation": [
          {
            "coding": [
              {
                "code": "H",
                "system": "http://terminology.hl7.org/CodeSystem/v3-ObservationInterpretation",
                "display": "High"
              }
            ]
          }
        ],
        "text": {
          "status": "generated",
          "div": "<div xmlns=\"http://www.w3.org/1999/xhtml\"><table class=\"hl7__eu__lab__report\"><tr><th>Test</th><th>07-Feb-2020</th><th>Reference&#xA0;Range</th><th>Unit</th></tr><tr><td>Glucose [Mass/volume] in Urine by Test strip</td><td>1.5</td><td>0 - 0.8</td><td>H</td><td>mg/dL</td></tr></table></div>"
        },
        "status": "final",
        "subject": {
          "reference": "urn:uuid:ab01d3c8-1229-4f29-9256-9a95409cc9ec",
          "display": "Victor Lagarde"
        },
        "effectiveDateTime": "2020-02-07T04:48:18Z",
        "specimen": {
          "reference": "urn:uuid:3ce7a6f7-1ffa-4c33-a3e1-b2b8d1743bbd"
        }
      }
    },
    {
      "fullUrl": "urn:uuid:17929367-bf93-4455-8f61-5fcda9a23738",
      "resource": {
        "resourceType": "Observation",
        "id": "17929367-bf93-4455-8f61-5fcda9a23738",
        "meta": {
          "profile": [
            "http://hl7.eu/fhir/laboratory/StructureDefinition/Observation-resultslab-eu-lab"
          ]
        },
        "performer": [
          {
            "display": "The Central European Lab"
          }
        ],
        "category": [
          {
            "coding": [
              {
                "system": "http://terminology.hl7.org/CodeSystem/observation-category",
                "code": "laboratory"
              }
            ]
          }
        ],
        "code": {
          "coding": [
            {
              "code": "25428-4",
              "system": "http://loinc.org",
              "display": "Glucose [Presence] in Urine by Test strip"
            }
          ],
          "text": "Glucose [Presence] in Urine by Test strip"
        },
        "text": {
          "status": "generated",
          "div": "<div xmlns=\"http://www.w3.org/1999/xhtml\"><table class=\"hl7__eu__lab__report\"><tr><th>Test</th><th>07-Feb-2020</th><th>Reference&#xA0;Range</th><th>Unit</th></tr><tr><td>Glucose [Presence] in Urine by Test strip</td></tr></table></div>"
        },
        "status": "final",
        "subject": {
          "reference": "urn:uuid:ab01d3c8-1229-4f29-9256-9a95409cc9ec",
          "display": "Victor Lagarde"
        },
        "effectiveDateTime": "2020-02-07T04:48:18Z",
        "specimen": {
          "reference": "urn:uuid:3ce7a6f7-1ffa-4c33-a3e1-b2b8d1743bbd"
        }
      }
    },
    {
      "fullUrl": "urn:uuid:6bed7030-9300-4a99-8c72-5a2031685100",
      "resource": {
        "resourceType": "Observation",
        "id": "6bed7030-9300-4a99-8c72-5a2031685100",
        "meta": {
          "profile": [
            "http://hl7.eu/fhir/laboratory/StructureDefinition/Observation-resultslab-eu-lab"
          ]
        },
        "performer": [
          {
            "display": "The Central European Lab"
          }
        ],
        "category": [
          {
            "coding": [
              {
                "system": "http://terminology.hl7.org/CodeSystem/observation-category",
                "code": "laboratory"
              }
            ]
          }
        ],
        "code": {
          "coding": [
            {
              "code": "20505-4",
              "system": "http://loinc.org",
              "display": "Bilirubin.total [Mass/volume] in Urine by Test strip"
            }
          ],
          "text": "Bilirubin.total [Mass/volume] in Urine by Test strip"
        },
        "valueQuantity": {
          "system": "http://unitsofmeasure.org",
          "value": 1.2,
          "unit": "mg/dL",
          "code": "mg/dL"
        },
        "referenceRange": [
          {
            "low": {
              "value": 0,
              "code": "mg/dL",
              "system": "http://unitsofmeasure.org"
            }
          },
          {
            "high": {
              "value": 1.9,
              "code": "mg/dL",
              "system": "http://unitsofmeasure.org"
            }
          }
        ],
        "text": {
          "status": "generated",
          "div": "<div xmlns=\"http://www.w3.org/1999/xhtml\"><table class=\"hl7__eu__lab__report\"><tr><th>Test</th><th>07-Feb-2020</th><th>Reference&#xA0;Range</th><th>Unit</th></tr><tr><td>Bilirubin.total [Mass/volume] in Urine by Test strip</td><td>1.2</td><td>0 - 1.9</td><td></td><td>mg/dL</td></tr></table></div>"
        },
        "status": "final",
        "subject": {
          "reference": "urn:uuid:ab01d3c8-1229-4f29-9256-9a95409cc9ec",
          "display": "Victor Lagarde"
        },
        "effectiveDateTime": "2020-02-07T04:48:18Z",
        "specimen": {
          "reference": "urn:uuid:3ce7a6f7-1ffa-4c33-a3e1-b2b8d1743bbd"
        }
      }
    },
    {
      "fullUrl": "urn:uuid:044f8187-eda5-45e4-8a95-d41bd13652c8",
      "resource": {
        "resourceType": "Observation",
        "id": "044f8187-eda5-45e4-8a95-d41bd13652c8",
        "meta": {
          "profile": [
            "http://hl7.eu/fhir/laboratory/StructureDefinition/Observation-resultslab-eu-lab"
          ]
        },
        "performer": [
          {
            "display": "The Central European Lab"
          }
        ],
        "category": [
          {
            "coding": [
              {
                "system": "http://terminology.hl7.org/CodeSystem/observation-category",
                "code": "laboratory"
              }
            ]
          }
        ],
        "code": {
          "coding": [
            {
              "code": "5770-3",
              "system": "http://loinc.org",
              "display": "Bilirubin.total [Presence] in Urine by Test strip"
            }
          ],
          "text": "Bilirubin.total [Presence] in Urine by Test strip"
        },
        "text": {
          "status": "generated",
          "div": "<div xmlns=\"http://www.w3.org/1999/xhtml\"><table class=\"hl7__eu__lab__report\"><tr><th>Test</th><th>07-Feb-2020</th><th>Reference&#xA0;Range</th><th>Unit</th></tr><tr><td>Bilirubin.total [Presence] in Urine by Test strip</td></tr></table></div>"
        },
        "status": "final",
        "subject": {
          "reference": "urn:uuid:ab01d3c8-1229-4f29-9256-9a95409cc9ec",
          "display": "Victor Lagarde"
        },
        "effectiveDateTime": "2020-02-07T04:48:18Z",
        "specimen": {
          "reference": "urn:uuid:3ce7a6f7-1ffa-4c33-a3e1-b2b8d1743bbd"
        }
      }
    },
    {
      "fullUrl": "urn:uuid:64de608d-52d7-4f68-8355-1eb7e6b5edd3",
      "resource": {
        "resourceType": "Observation",
        "id": "64de608d-52d7-4f68-8355-1eb7e6b5edd3",
        "meta": {
          "profile": [
            "http://hl7.eu/fhir/laboratory/StructureDefinition/Observation-resultslab-eu-lab"
          ]
        },
        "performer": [
          {
            "display": "The Central European Lab"
          }
        ],
        "category": [
          {
            "coding": [
              {
                "system": "http://terminology.hl7.org/CodeSystem/observation-category",
                "code": "laboratory"
              }
            ]
          }
        ],
        "code": {
          "coding": [
            {
              "code": "5797-6",
              "system": "http://loinc.org",
              "display": "Ketones [Mass/volume] in Urine by Test strip"
            }
          ],
          "text": "Ketones [Mass/volume] in Urine by Test strip"
        },
        "valueQuantity": {
          "system": "http://unitsofmeasure.org",
          "value": 0.1,
          "unit": "mg/dL",
          "code": "mg/dL"
        },
        "referenceRange": [
          {
            "low": {
              "value": 0,
              "code": "mg/dL",
              "system": "http://unitsofmeasure.org"
            }
          },
          {
            "high": {
              "value": 3,
              "code": "mg/dL",
              "system": "http://unitsofmeasure.org"
            }
          }
        ],
        "text": {
          "status": "generated",
          "div": "<div xmlns=\"http://www.w3.org/1999/xhtml\"><table class=\"hl7__eu__lab__report\"><tr><th>Test</th><th>07-Feb-2020</th><th>Reference&#xA0;Range</th><th>Unit</th></tr><tr><td>Ketones [Mass/volume] in Urine by Test strip</td><td>0.1</td><td>0 - 3</td><td></td><td>mg/dL</td></tr></table></div>"
        },
        "status": "final",
        "subject": {
          "reference": "urn:uuid:ab01d3c8-1229-4f29-9256-9a95409cc9ec",
          "display": "Victor Lagarde"
        },
        "effectiveDateTime": "2020-02-07T04:48:18Z",
        "specimen": {
          "reference": "urn:uuid:3ce7a6f7-1ffa-4c33-a3e1-b2b8d1743bbd"
        }
      }
    },
    {
      "fullUrl": "urn:uuid:e031618b-2db7-4f05-8226-ea4aea85bf74",
      "resource": {
        "resourceType": "Observation",
        "id": "e031618b-2db7-4f05-8226-ea4aea85bf74",
        "meta": {
          "profile": [
            "http://hl7.eu/fhir/laboratory/StructureDefinition/Observation-resultslab-eu-lab"
          ]
        },
        "performer": [
          {
            "display": "The Central European Lab"
          }
        ],
        "category": [
          {
            "coding": [
              {
                "system": "http://terminology.hl7.org/CodeSystem/observation-category",
                "code": "laboratory"
              }
            ]
          }
        ],
        "code": {
          "coding": [
            {
              "code": "2514-8",
              "system": "http://loinc.org",
              "display": "Ketones [Presence] in Urine by Test strip"
            }
          ],
          "text": "Ketones [Presence] in Urine by Test strip"
        },
        "text": {
          "status": "generated",
          "div": "<div xmlns=\"http://www.w3.org/1999/xhtml\"><table class=\"hl7__eu__lab__report\"><tr><th>Test</th><th>07-Feb-2020</th><th>Reference&#xA0;Range</th><th>Unit</th></tr><tr><td>Ketones [Presence] in Urine by Test strip</td></tr></table></div>"
        },
        "status": "final",
        "subject": {
          "reference": "urn:uuid:ab01d3c8-1229-4f29-9256-9a95409cc9ec",
          "display": "Victor Lagarde"
        },
        "effectiveDateTime": "2020-02-07T04:48:18Z",
        "specimen": {
          "reference": "urn:uuid:3ce7a6f7-1ffa-4c33-a3e1-b2b8d1743bbd"
        }
      }
    },
    {
      "fullUrl": "urn:uuid:04bb38bb-ddab-41ca-91a1-e27c84329a48",
      "resource": {
        "resourceType": "Observation",
        "id": "04bb38bb-ddab-41ca-91a1-e27c84329a48",
        "meta": {
          "profile": [
            "http://hl7.eu/fhir/laboratory/StructureDefinition/Observation-resultslab-eu-lab"
          ]
        },
        "performer": [
          {
            "display": "The Central European Lab"
          }
        ],
        "category": [
          {
            "coding": [
              {
                "system": "http://terminology.hl7.org/CodeSystem/observation-category",
                "code": "laboratory"
              }
            ]
          }
        ],
        "code": {
          "coding": [
            {
              "code": "5811-5",
              "system": "http://loinc.org",
              "display": "Specific gravity of Urine by Test strip"
            }
          ],
          "text": "Specific gravity of Urine by Test strip"
        },
        "valueQuantity": {
          "system": "http://unitsofmeasure.org",
          "value": 1,
          "unit": "{nominal}",
          "code": "{nominal}"
        },
        "referenceRange": [
          {
            "low": {
              "value": 1.01,
              "code": "g/mL",
              "system": "http://unitsofmeasure.org"
            }
          },
          {
            "high": {
              "value": 1.03,
              "code": "g/mL",
              "system": "http://unitsofmeasure.org"
            }
          }
        ],
        "interpretation": [
          {
            "coding": [
              {
                "code": "L",
                "system": "http://terminology.hl7.org/CodeSystem/v3-ObservationInterpretation",
                "display": "Low"
              }
            ]
          }
        ],
        "text": {
          "status": "generated",
          "div": "<div xmlns=\"http://www.w3.org/1999/xhtml\"><table class=\"hl7__eu__lab__report\"><tr><th>Test</th><th>07-Feb-2020</th><th>Reference&#xA0;Range</th><th>Unit</th></tr><tr><td>Specific gravity of Urine by Test strip</td><td>1.0</td><td>1.01 - 1.03</td><td>L</td><td>{nominal}</td></tr></table></div>"
        },
        "status": "final",
        "subject": {
          "reference": "urn:uuid:ab01d3c8-1229-4f29-9256-9a95409cc9ec",
          "display": "Victor Lagarde"
        },
        "effectiveDateTime": "2020-02-07T04:48:18Z",
        "specimen": {
          "reference": "urn:uuid:3ce7a6f7-1ffa-4c33-a3e1-b2b8d1743bbd"
        }
      }
    },
    {
      "fullUrl": "urn:uuid:f55428d8-fd24-42f2-adac-d4f4360aa395",
      "resource": {
        "resourceType": "Observation",
        "id": "f55428d8-fd24-42f2-adac-d4f4360aa395",
        "meta": {
          "profile": [
            "http://hl7.eu/fhir/laboratory/StructureDefinition/Observation-resultslab-eu-lab"
          ]
        },
        "performer": [
          {
            "display": "The Central European Lab"
          }
        ],
        "category": [
          {
            "coding": [
              {
                "system": "http://terminology.hl7.org/CodeSystem/observation-category",
                "code": "laboratory"
              }
            ]
          }
        ],
        "code": {
          "coding": [
            {
              "code": "5803-2",
              "system": "http://loinc.org",
              "display": "pH of Urine by Test strip"
            }
          ],
          "text": "pH of Urine by Test strip"
        },
        "valueQuantity": {
          "system": "http://unitsofmeasure.org",
          "value": 6.6,
          "unit": "pH",
          "code": "pH"
        },
        "referenceRange": [
          {
            "low": {
              "value": 4.5,
              "code": "pH",
              "system": "http://unitsofmeasure.org"
            }
          },
          {
            "high": {
              "value": 7.5,
              "code": "pH",
              "system": "http://unitsofmeasure.org"
            }
          }
        ],
        "text": {
          "status": "generated",
          "div": "<div xmlns=\"http://www.w3.org/1999/xhtml\"><table class=\"hl7__eu__lab__report\"><tr><th>Test</th><th>07-Feb-2020</th><th>Reference&#xA0;Range</th><th>Unit</th></tr><tr><td>pH of Urine by Test strip</td><td>6.6</td><td>4.5 - 7.5</td><td></td><td>pH</td></tr></table></div>"
        },
        "status": "final",
        "subject": {
          "reference": "urn:uuid:ab01d3c8-1229-4f29-9256-9a95409cc9ec",
          "display": "Victor Lagarde"
        },
        "effectiveDateTime": "2020-02-07T04:48:18Z",
        "specimen": {
          "reference": "urn:uuid:3ce7a6f7-1ffa-4c33-a3e1-b2b8d1743bbd"
        }
      }
    },
    {
      "fullUrl": "urn:uuid:0fd47f1c-c1f6-494b-bfaf-a3e62d0c8457",
      "resource": {
        "resourceType": "Observation",
        "id": "0fd47f1c-c1f6-494b-bfaf-a3e62d0c8457",
        "meta": {
          "profile": [
            "http://hl7.eu/fhir/laboratory/StructureDefinition/Observation-resultslab-eu-lab"
          ]
        },
        "performer": [
          {
            "display": "The Central European Lab"
          }
        ],
        "category": [
          {
            "coding": [
              {
                "system": "http://terminology.hl7.org/CodeSystem/observation-category",
                "code": "laboratory"
              }
            ]
          }
        ],
        "code": {
          "coding": [
            {
              "code": "5804-0",
              "system": "http://loinc.org",
              "display": "Protein [Mass/volume] in Urine by Test strip"
            }
          ],
          "text": "Protein [Mass/volume] in Urine by Test strip"
        },
        "valueQuantity": {
          "system": "http://unitsofmeasure.org",
          "value": 346.9,
          "unit": "mg/dL",
          "code": "mg/dL"
        },
        "referenceRange": [
          {
            "low": {
              "value": 0,
              "code": "mg/dL",
              "system": "http://unitsofmeasure.org"
            }
          },
          {
            "high": {
              "value": 149,
              "code": "mg/dL",
              "system": "http://unitsofmeasure.org"
            }
          }
        ],
        "interpretation": [
          {
            "coding": [
              {
                "code": "H",
                "system": "http://terminology.hl7.org/CodeSystem/v3-ObservationInterpretation",
                "display": "High"
              }
            ]
          }
        ],
        "text": {
          "status": "generated",
          "div": "<div xmlns=\"http://www.w3.org/1999/xhtml\"><table class=\"hl7__eu__lab__report\"><tr><th>Test</th><th>07-Feb-2020</th><th>Reference&#xA0;Range</th><th>Unit</th></tr><tr><td>Protein [Mass/volume] in Urine by Test strip</td><td>346.9</td><td>0 - 149</td><td>H</td><td>mg/dL</td></tr></table></div>"
        },
        "status": "final",
        "subject": {
          "reference": "urn:uuid:ab01d3c8-1229-4f29-9256-9a95409cc9ec",
          "display": "Victor Lagarde"
        },
        "effectiveDateTime": "2020-02-07T04:48:18Z",
        "specimen": {
          "reference": "urn:uuid:3ce7a6f7-1ffa-4c33-a3e1-b2b8d1743bbd"
        }
      }
    },
    {
      "fullUrl": "urn:uuid:312f5d07-e6ea-4b04-9764-cbc3695699ac",
      "resource": {
        "resourceType": "Observation",
        "id": "312f5d07-e6ea-4b04-9764-cbc3695699ac",
        "meta": {
          "profile": [
            "http://hl7.eu/fhir/laboratory/StructureDefinition/Observation-resultslab-eu-lab"
          ]
        },
        "performer": [
          {
            "display": "The Central European Lab"
          }
        ],
        "category": [
          {
            "coding": [
              {
                "system": "http://terminology.hl7.org/CodeSystem/observation-category",
                "code": "laboratory"
              }
            ]
          }
        ],
        "code": {
          "coding": [
            {
              "code": "20454-5",
              "system": "http://loinc.org",
              "display": "Protein [Presence] in Urine by Test strip"
            }
          ],
          "text": "Protein [Presence] in Urine by Test strip"
        },
        "text": {
          "status": "generated",
          "div": "<div xmlns=\"http://www.w3.org/1999/xhtml\"><table class=\"hl7__eu__lab__report\"><tr><th>Test</th><th>07-Feb-2020</th><th>Reference&#xA0;Range</th><th>Unit</th></tr><tr><td>Protein [Presence] in Urine by Test strip</td></tr></table></div>"
        },
        "status": "final",
        "subject": {
          "reference": "urn:uuid:ab01d3c8-1229-4f29-9256-9a95409cc9ec",
          "display": "Victor Lagarde"
        },
        "effectiveDateTime": "2020-02-07T04:48:18Z",
        "specimen": {
          "reference": "urn:uuid:3ce7a6f7-1ffa-4c33-a3e1-b2b8d1743bbd"
        }
      }
    },
    {
      "fullUrl": "urn:uuid:1dad0f7b-84d4-406b-af47-81facffcbd75",
      "resource": {
        "resourceType": "Observation",
        "id": "1dad0f7b-84d4-406b-af47-81facffcbd75",
        "meta": {
          "profile": [
            "http://hl7.eu/fhir/laboratory/StructureDefinition/Observation-resultslab-eu-lab"
          ]
        },
        "performer": [
          {
            "display": "The Central European Lab"
          }
        ],
        "category": [
          {
            "coding": [
              {
                "system": "http://terminology.hl7.org/CodeSystem/observation-category",
                "code": "laboratory"
              }
            ]
          }
        ],
        "code": {
          "coding": [
            {
              "code": "5802-4",
              "system": "http://loinc.org",
              "display": "Nitrite [Presence] in Urine by Test strip"
            }
          ],
          "text": "Nitrite [Presence] in Urine by Test strip"
        },
        "text": {
          "status": "generated",
          "div": "<div xmlns=\"http://www.w3.org/1999/xhtml\"><table class=\"hl7__eu__lab__report\"><tr><th>Test</th><th>07-Feb-2020</th><th>Reference&#xA0;Range</th><th>Unit</th></tr><tr><td>Nitrite [Presence] in Urine by Test strip</td></tr></table></div>"
        },
        "status": "final",
        "subject": {
          "reference": "urn:uuid:ab01d3c8-1229-4f29-9256-9a95409cc9ec",
          "display": "Victor Lagarde"
        },
        "effectiveDateTime": "2020-02-07T04:48:18Z",
        "specimen": {
          "reference": "urn:uuid:3ce7a6f7-1ffa-4c33-a3e1-b2b8d1743bbd"
        }
      }
    },
    {
      "fullUrl": "urn:uuid:82b98d8d-8ede-44a7-9041-f19099aeeb70",
      "resource": {
        "resourceType": "Observation",
        "id": "82b98d8d-8ede-44a7-9041-f19099aeeb70",
        "meta": {
          "profile": [
            "http://hl7.eu/fhir/laboratory/StructureDefinition/Observation-resultslab-eu-lab"
          ]
        },
        "performer": [
          {
            "display": "The Central European Lab"
          }
        ],
        "category": [
          {
            "coding": [
              {
                "system": "http://terminology.hl7.org/CodeSystem/observation-category",
                "code": "laboratory"
              }
            ]
          }
        ],
        "code": {
          "coding": [
            {
              "code": "5794-3",
              "system": "http://loinc.org",
              "display": "Hemoglobin [Presence] in Urine by Test strip"
            }
          ],
          "text": "Hemoglobin [Presence] in Urine by Test strip"
        },
        "text": {
          "status": "generated",
          "div": "<div xmlns=\"http://www.w3.org/1999/xhtml\"><table class=\"hl7__eu__lab__report\"><tr><th>Test</th><th>07-Feb-2020</th><th>Reference&#xA0;Range</th><th>Unit</th></tr><tr><td>Hemoglobin [Presence] in Urine by Test strip</td></tr></table></div>"
        },
        "status": "final",
        "subject": {
          "reference": "urn:uuid:ab01d3c8-1229-4f29-9256-9a95409cc9ec",
          "display": "Victor Lagarde"
        },
        "effectiveDateTime": "2020-02-07T04:48:18Z",
        "specimen": {
          "reference": "urn:uuid:3ce7a6f7-1ffa-4c33-a3e1-b2b8d1743bbd"
        }
      }
    },
    {
      "fullUrl": "urn:uuid:acccaa05-8da7-4fe0-90e7-9545f3c442cc",
      "resource": {
        "resourceType": "Observation",
        "id": "acccaa05-8da7-4fe0-90e7-9545f3c442cc",
        "meta": {
          "profile": [
            "http://hl7.eu/fhir/laboratory/StructureDefinition/Observation-resultslab-eu-lab"
          ]
        },
        "performer": [
          {
            "display": "The Central European Lab"
          }
        ],
        "category": [
          {
            "coding": [
              {
                "system": "http://terminology.hl7.org/CodeSystem/observation-category",
                "code": "laboratory"
              }
            ]
          }
        ],
        "code": {
          "coding": [
            {
              "code": "5799-2",
              "system": "http://loinc.org",
              "display": "Leukocyte esterase [Presence] in Urine by Test strip"
            }
          ],
          "text": "Leukocyte esterase [Presence] in Urine by Test strip"
        },
        "text": {
          "status": "generated",
          "div": "<div xmlns=\"http://www.w3.org/1999/xhtml\"><table class=\"hl7__eu__lab__report\"><tr><th>Test</th><th>07-Feb-2020</th><th>Reference&#xA0;Range</th><th>Unit</th></tr><tr><td>Leukocyte esterase [Presence] in Urine by Test strip</td></tr></table></div>"
        },
        "status": "final",
        "subject": {
          "reference": "urn:uuid:ab01d3c8-1229-4f29-9256-9a95409cc9ec",
          "display": "Victor Lagarde"
        },
        "effectiveDateTime": "2020-02-07T04:48:18Z",
        "specimen": {
          "reference": "urn:uuid:3ce7a6f7-1ffa-4c33-a3e1-b2b8d1743bbd"
        }
      }
    },
    {
      "fullUrl": "urn:uuid:5bb5bbc3-96a7-4318-a5c5-91b967b3abfc",
      "resource": {
        "resourceType": "Observation",
        "id": "5bb5bbc3-96a7-4318-a5c5-91b967b3abfc",
        "meta": {
          "profile": [
            "http://hl7.eu/fhir/laboratory/StructureDefinition/Observation-resultslab-eu-lab"
          ]
        },
        "performer": [
          {
            "display": "The Central European Lab"
          }
        ],
        "category": [
          {
            "coding": [
              {
                "system": "http://terminology.hl7.org/CodeSystem/observation-category",
                "code": "laboratory"
              }
            ]
          }
        ],
        "code": {
          "coding": [
            {
              "code": "4548-4",
              "system": "http://loinc.org",
              "display": "Hemoglobin A1c/Hemoglobin.total in Blood"
            }
          ],
          "text": "Hemoglobin A1c/Hemoglobin.total in Blood"
        },
        "valueQuantity": {
          "system": "http://unitsofmeasure.org",
          "value": 3,
          "unit": "%",
          "code": "%"
        },
        "referenceRange": [
          {
            "low": {
              "value": 4.3,
              "code": "%",
              "system": "http://unitsofmeasure.org"
            }
          },
          {
            "high": {
              "value": 6,
              "code": "%",
              "system": "http://unitsofmeasure.org"
            }
          }
        ],
        "interpretation": [
          {
            "coding": [
              {
                "code": "L",
                "system": "http://terminology.hl7.org/CodeSystem/v3-ObservationInterpretation",
                "display": "Low"
              }
            ]
          }
        ],
        "text": {
          "status": "generated",
          "div": "<div xmlns=\"http://www.w3.org/1999/xhtml\"><table class=\"hl7__eu__lab__report\"><tr><th>Test</th><th>07-Feb-2020</th><th>Reference&#xA0;Range</th><th>Unit</th></tr><tr><td>Hemoglobin A1c/Hemoglobin.total in Blood</td><td>3.0</td><td>4.3 - 6</td><td>L</td><td>%</td></tr></table></div>"
        },
        "status": "final",
        "subject": {
          "reference": "urn:uuid:ab01d3c8-1229-4f29-9256-9a95409cc9ec",
          "display": "Victor Lagarde"
        },
        "effectiveDateTime": "2020-02-07T04:48:18Z",
        "specimen": {
          "reference": "urn:uuid:d3ec382a-2644-412b-b59a-bb4a98223a95"
        }
      }
    },
    {
      "fullUrl": "urn:uuid:faae6328-4d7c-44fc-896b-0fe850e94d9e",
      "resource": {
        "resourceType": "Observation",
        "id": "faae6328-4d7c-44fc-896b-0fe850e94d9e",
        "meta": {
          "profile": [
            "http://hl7.eu/fhir/laboratory/StructureDefinition/Observation-resultslab-eu-lab"
          ]
        },
        "performer": [
          {
            "display": "The Central European Lab"
          }
        ],
        "category": [
          {
            "coding": [
              {
                "system": "http://terminology.hl7.org/CodeSystem/observation-category",
                "code": "laboratory"
              }
            ]
          }
        ],
        "code": {
          "coding": [
            {
              "code": "2339-0",
              "system": "http://loinc.org",
              "display": "Glucose [Mass/volume] in Blood"
            }
          ],
          "text": "Glucose [Mass/volume] in Blood"
        },
        "valueQuantity": {
          "system": "http://unitsofmeasure.org",
          "value": 83.4,
          "unit": "mg/dL",
          "code": "mg/dL"
        },
        "referenceRange": [
          {
            "low": {
              "value": 70,
              "code": "mg/dL",
              "system": "http://unitsofmeasure.org"
            }
          },
          {
            "high": {
              "value": 140,
              "code": "mg/dL",
              "system": "http://unitsofmeasure.org"
            }
          }
        ],
        "text": {
          "status": "generated",
          "div": "<div xmlns=\"http://www.w3.org/1999/xhtml\"><table class=\"hl7__eu__lab__report\"><tr><th>Test</th><th>07-Feb-2020</th><th>Reference&#xA0;Range</th><th>Unit</th></tr><tr><td>Glucose [Mass/volume] in Blood</td><td>83.4</td><td>70 - 140</td><td></td><td>mg/dL</td></tr></table></div>"
        },
        "status": "final",
        "subject": {
          "reference": "urn:uuid:ab01d3c8-1229-4f29-9256-9a95409cc9ec",
          "display": "Victor Lagarde"
        },
        "effectiveDateTime": "2020-02-07T04:48:18Z",
        "specimen": {
          "reference": "urn:uuid:d3ec382a-2644-412b-b59a-bb4a98223a95"
        }
      }
    },
    {
      "fullUrl": "urn:uuid:4ce5412e-0069-4ef2-a431-6f72d07d5bd1",
      "resource": {
        "resourceType": "Observation",
        "id": "4ce5412e-0069-4ef2-a431-6f72d07d5bd1",
        "meta": {
          "profile": [
            "http://hl7.eu/fhir/laboratory/StructureDefinition/Observation-resultslab-eu-lab"
          ]
        },
        "performer": [
          {
            "display": "The Central European Lab"
          }
        ],
        "category": [
          {
            "coding": [
              {
                "system": "http://terminology.hl7.org/CodeSystem/observation-category",
                "code": "laboratory"
              }
            ]
          }
        ],
        "code": {
          "coding": [
            {
              "code": "6299-2",
              "system": "http://loinc.org",
              "display": "Urea nitrogen [Mass/volume] in Blood"
            }
          ],
          "text": "Urea nitrogen [Mass/volume] in Blood"
        },
        "valueQuantity": {
          "system": "http://unitsofmeasure.org",
          "value": 12.4,
          "unit": "mg/dL",
          "code": "mg/dL"
        },
        "referenceRange": [
          {
            "low": {
              "value": 7,
              "code": "mg/dL",
              "system": "http://unitsofmeasure.org"
            }
          },
          {
            "high": {
              "value": 20,
              "code": "mg/dL",
              "system": "http://unitsofmeasure.org"
            }
          }
        ],
        "text": {
          "status": "generated",
          "div": "<div xmlns=\"http://www.w3.org/1999/xhtml\"><table class=\"hl7__eu__lab__report\"><tr><th>Test</th><th>07-Feb-2020</th><th>Reference&#xA0;Range</th><th>Unit</th></tr><tr><td>Urea nitrogen [Mass/volume] in Blood</td><td>12.4</td><td>7 - 20</td><td></td><td>mg/dL</td></tr></table></div>"
        },
        "status": "final",
        "subject": {
          "reference": "urn:uuid:ab01d3c8-1229-4f29-9256-9a95409cc9ec",
          "display": "Victor Lagarde"
        },
        "effectiveDateTime": "2020-02-07T04:48:18Z",
        "specimen": {
          "reference": "urn:uuid:d3ec382a-2644-412b-b59a-bb4a98223a95"
        }
      }
    },
    {
      "fullUrl": "urn:uuid:ccdd1dbc-a824-4d61-a251-ffde78879570",
      "resource": {
        "resourceType": "Observation",
        "id": "ccdd1dbc-a824-4d61-a251-ffde78879570",
        "meta": {
          "profile": [
            "http://hl7.eu/fhir/laboratory/StructureDefinition/Observation-resultslab-eu-lab"
          ]
        },
        "performer": [
          {
            "display": "The Central European Lab"
          }
        ],
        "category": [
          {
            "coding": [
              {
                "system": "http://terminology.hl7.org/CodeSystem/observation-category",
                "code": "laboratory"
              }
            ]
          }
        ],
        "code": {
          "coding": [
            {
              "code": "38483-4",
              "system": "http://loinc.org",
              "display": "Creatinine [Mass/volume] in Blood"
            }
          ],
          "text": "Creatinine [Mass/volume] in Blood"
        },
        "valueQuantity": {
          "system": "http://unitsofmeasure.org",
          "value": 4.6,
          "unit": "mg/dL",
          "code": "mg/dL"
        },
        "referenceRange": [
          {
            "low": {
              "value": 0.9,
              "code": "mg/dL",
              "system": "http://unitsofmeasure.org"
            }
          },
          {
            "high": {
              "value": 1.3,
              "code": "mg/dL",
              "system": "http://unitsofmeasure.org"
            }
          }
        ],
        "interpretation": [
          {
            "coding": [
              {
                "code": "H",
                "system": "http://terminology.hl7.org/CodeSystem/v3-ObservationInterpretation",
                "display": "High"
              }
            ]
          }
        ],
        "text": {
          "status": "generated",
          "div": "<div xmlns=\"http://www.w3.org/1999/xhtml\"><table class=\"hl7__eu__lab__report\"><tr><th>Test</th><th>07-Feb-2020</th><th>Reference&#xA0;Range</th><th>Unit</th></tr><tr><td>Creatinine [Mass/volume] in Blood</td><td>4.6</td><td>0.9 - 1.3</td><td>H</td><td>mg/dL</td></tr></table></div>"
        },
        "status": "final",
        "subject": {
          "reference": "urn:uuid:ab01d3c8-1229-4f29-9256-9a95409cc9ec",
          "display": "Victor Lagarde"
        },
        "effectiveDateTime": "2020-02-07T04:48:18Z",
        "specimen": {
          "reference": "urn:uuid:d3ec382a-2644-412b-b59a-bb4a98223a95"
        }
      }
    },
    {
      "fullUrl": "urn:uuid:11064c6f-25dd-42d4-ab47-bde1b8672962",
      "resource": {
        "resourceType": "Observation",
        "id": "11064c6f-25dd-42d4-ab47-bde1b8672962",
        "meta": {
          "profile": [
            "http://hl7.eu/fhir/laboratory/StructureDefinition/Observation-resultslab-eu-lab"
          ]
        },
        "performer": [
          {
            "display": "The Central European Lab"
          }
        ],
        "category": [
          {
            "coding": [
              {
                "system": "http://terminology.hl7.org/CodeSystem/observation-category",
                "code": "laboratory"
              }
            ]
          }
        ],
        "code": {
          "coding": [
            {
              "code": "49765-1",
              "system": "http://loinc.org",
              "display": "Calcium [Mass/volume] in Blood"
            }
          ],
          "text": "Calcium [Mass/volume] in Blood"
        },
        "valueQuantity": {
          "system": "http://unitsofmeasure.org",
          "value": 9.2,
          "unit": "mg/dL",
          "code": "mg/dL"
        },
        "referenceRange": [
          {
            "low": {
              "value": 8.5,
              "code": "mg/dL",
              "system": "http://unitsofmeasure.org"
            }
          },
          {
            "high": {
              "value": 10.5,
              "code": "mg/dL",
              "system": "http://unitsofmeasure.org"
            }
          }
        ],
        "text": {
          "status": "generated",
          "div": "<div xmlns=\"http://www.w3.org/1999/xhtml\"><table class=\"hl7__eu__lab__report\"><tr><th>Test</th><th>07-Feb-2020</th><th>Reference&#xA0;Range</th><th>Unit</th></tr><tr><td>Calcium [Mass/volume] in Blood</td><td>9.2</td><td>8.5 - 10.5</td><td></td><td>mg/dL</td></tr></table></div>"
        },
        "status": "final",
        "subject": {
          "reference": "urn:uuid:ab01d3c8-1229-4f29-9256-9a95409cc9ec",
          "display": "Victor Lagarde"
        },
        "effectiveDateTime": "2020-02-07T04:48:18Z",
        "specimen": {
          "reference": "urn:uuid:d3ec382a-2644-412b-b59a-bb4a98223a95"
        }
      }
    },
    {
      "fullUrl": "urn:uuid:21c97344-3763-4219-9fee-573e5279adc5",
      "resource": {
        "resourceType": "Observation",
        "id": "21c97344-3763-4219-9fee-573e5279adc5",
        "meta": {
          "profile": [
            "http://hl7.eu/fhir/laboratory/StructureDefinition/Observation-resultslab-eu-lab"
          ]
        },
        "performer": [
          {
            "display": "The Central European Lab"
          }
        ],
        "category": [
          {
            "coding": [
              {
                "system": "http://terminology.hl7.org/CodeSystem/observation-category",
                "code": "laboratory"
              }
            ]
          }
        ],
        "code": {
          "coding": [
            {
              "code": "2947-0",
              "system": "http://loinc.org",
              "display": "Sodium [Moles/volume] in Blood"
            }
          ],
          "text": "Sodium [Moles/volume] in Blood"
        },
        "valueQuantity": {
          "system": "http://unitsofmeasure.org",
          "value": 142.6,
          "unit": "mmol/L",
          "code": "mmol/L"
        },
        "referenceRange": [
          {
            "low": {
              "value": 135,
              "code": "mmol/L",
              "system": "http://unitsofmeasure.org"
            }
          },
          {
            "high": {
              "value": 145,
              "code": "mmol/L",
              "system": "http://unitsofmeasure.org"
            }
          }
        ],
        "text": {
          "status": "generated",
          "div": "<div xmlns=\"http://www.w3.org/1999/xhtml\"><table class=\"hl7__eu__lab__report\"><tr><th>Test</th><th>07-Feb-2020</th><th>Reference&#xA0;Range</th><th>Unit</th></tr><tr><td>Sodium [Moles/volume] in Blood</td><td>142.6</td><td>135 - 145</td><td></td><td>mmol/L</td></tr></table></div>"
        },
        "status": "final",
        "subject": {
          "reference": "urn:uuid:ab01d3c8-1229-4f29-9256-9a95409cc9ec",
          "display": "Victor Lagarde"
        },
        "effectiveDateTime": "2020-02-07T04:48:18Z",
        "specimen": {
          "reference": "urn:uuid:d3ec382a-2644-412b-b59a-bb4a98223a95"
        }
      }
    },
    {
      "fullUrl": "urn:uuid:42c5a3db-7cc5-4f70-b7bb-30d1a4ef0175",
      "resource": {
        "resourceType": "Observation",
        "id": "42c5a3db-7cc5-4f70-b7bb-30d1a4ef0175",
        "meta": {
          "profile": [
            "http://hl7.eu/fhir/laboratory/StructureDefinition/Observation-resultslab-eu-lab"
          ]
        },
        "performer": [
          {
            "display": "The Central European Lab"
          }
        ],
        "category": [
          {
            "coding": [
              {
                "system": "http://terminology.hl7.org/CodeSystem/observation-category",
                "code": "laboratory"
              }
            ]
          }
        ],
        "code": {
          "coding": [
            {
              "code": "6298-4",
              "system": "http://loinc.org",
              "display": "Potassium [Moles/volume] in Blood"
            }
          ],
          "text": "Potassium [Moles/volume] in Blood"
        },
        "valueQuantity": {
          "system": "http://unitsofmeasure.org",
          "value": 4.2,
          "unit": "mmol/L",
          "code": "mmol/L"
        },
        "referenceRange": [
          {
            "low": {
              "value": 3.5,
              "code": "mmol/L",
              "system": "http://unitsofmeasure.org"
            }
          },
          {
            "high": {
              "value": 5.1,
              "code": "mmol/L",
              "system": "http://unitsofmeasure.org"
            }
          }
        ],
        "text": {
          "status": "generated",
          "div": "<div xmlns=\"http://www.w3.org/1999/xhtml\"><table class=\"hl7__eu__lab__report\"><tr><th>Test</th><th>07-Feb-2020</th><th>Reference&#xA0;Range</th><th>Unit</th></tr><tr><td>Potassium [Moles/volume] in Blood</td><td>4.2</td><td>3.5 - 5.1</td><td></td><td>mmol/L</td></tr></table></div>"
        },
        "status": "final",
        "subject": {
          "reference": "urn:uuid:ab01d3c8-1229-4f29-9256-9a95409cc9ec",
          "display": "Victor Lagarde"
        },
        "effectiveDateTime": "2020-02-07T04:48:18Z",
        "specimen": {
          "reference": "urn:uuid:d3ec382a-2644-412b-b59a-bb4a98223a95"
        }
      }
    },
    {
      "fullUrl": "urn:uuid:f8737606-b0b9-434c-a442-4b50093f78ee",
      "resource": {
        "resourceType": "Observation",
        "id": "f8737606-b0b9-434c-a442-4b50093f78ee",
        "meta": {
          "profile": [
            "http://hl7.eu/fhir/laboratory/StructureDefinition/Observation-resultslab-eu-lab"
          ]
        },
        "performer": [
          {
            "display": "The Central European Lab"
          }
        ],
        "category": [
          {
            "coding": [
              {
                "system": "http://terminology.hl7.org/CodeSystem/observation-category",
                "code": "laboratory"
              }
            ]
          }
        ],
        "code": {
          "coding": [
            {
              "code": "2069-3",
              "system": "http://loinc.org",
              "display": "Chloride [Moles/volume] in Blood"
            }
          ],
          "text": "Chloride [Moles/volume] in Blood"
        },
        "valueQuantity": {
          "system": "http://unitsofmeasure.org",
          "value": 105.9,
          "unit": "mmol/L",
          "code": "mmol/L"
        },
        "referenceRange": [
          {
            "low": {
              "value": 98,
              "code": "mmol/L",
              "system": "http://unitsofmeasure.org"
            }
          },
          {
            "high": {
              "value": 108,
              "code": "mmol/L",
              "system": "http://unitsofmeasure.org"
            }
          }
        ],
        "text": {
          "status": "generated",
          "div": "<div xmlns=\"http://www.w3.org/1999/xhtml\"><table class=\"hl7__eu__lab__report\"><tr><th>Test</th><th>07-Feb-2020</th><th>Reference&#xA0;Range</th><th>Unit</th></tr><tr><td>Chloride [Moles/volume] in Blood</td><td>105.9</td><td>98 - 108</td><td></td><td>mmol/L</td></tr></table></div>"
        },
        "status": "final",
        "subject": {
          "reference": "urn:uuid:ab01d3c8-1229-4f29-9256-9a95409cc9ec",
          "display": "Victor Lagarde"
        },
        "effectiveDateTime": "2020-02-07T04:48:18Z",
        "specimen": {
          "reference": "urn:uuid:d3ec382a-2644-412b-b59a-bb4a98223a95"
        }
      }
    },
    {
      "fullUrl": "urn:uuid:019bdca3-30d8-49fe-b137-3baeca5a588b",
      "resource": {
        "resourceType": "Observation",
        "id": "019bdca3-30d8-49fe-b137-3baeca5a588b",
        "meta": {
          "profile": [
            "http://hl7.eu/fhir/laboratory/StructureDefinition/Observation-resultslab-eu-lab"
          ]
        },
        "performer": [
          {
            "display": "The Central European Lab"
          }
        ],
        "category": [
          {
            "coding": [
              {
                "system": "http://terminology.hl7.org/CodeSystem/observation-category",
                "code": "laboratory"
              }
            ]
          }
        ],
        "code": {
          "coding": [
            {
              "code": "20565-8",
              "system": "http://loinc.org",
              "display": "Carbon dioxide, total [Moles/volume] in Blood"
            }
          ],
          "text": "Carbon dioxide, total [Moles/volume] in Blood"
        },
        "valueQuantity": {
          "system": "http://unitsofmeasure.org",
          "value": 22.9,
          "unit": "mmol/L",
          "code": "mmol/L"
        },
        "referenceRange": [
          {
            "low": {
              "value": 22,
              "code": "mmol/L",
              "system": "http://unitsofmeasure.org"
            }
          },
          {
            "high": {
              "value": 29,
              "code": "mmol/L",
              "system": "http://unitsofmeasure.org"
            }
          }
        ],
        "text": {
          "status": "generated",
          "div": "<div xmlns=\"http://www.w3.org/1999/xhtml\"><table class=\"hl7__eu__lab__report\"><tr><th>Test</th><th>07-Feb-2020</th><th>Reference&#xA0;Range</th><th>Unit</th></tr><tr><td>Carbon dioxide, total [Moles/volume] in Blood</td><td>22.9</td><td>22 - 29</td><td></td><td>mmol/L</td></tr></table></div>"
        },
        "status": "final",
        "subject": {
          "reference": "urn:uuid:ab01d3c8-1229-4f29-9256-9a95409cc9ec",
          "display": "Victor Lagarde"
        },
        "effectiveDateTime": "2020-02-07T04:48:18Z",
        "specimen": {
          "reference": "urn:uuid:d3ec382a-2644-412b-b59a-bb4a98223a95"
        }
      }
    },
    {
      "fullUrl": "urn:uuid:8fd00acf-ebe2-4070-b356-6f7f1a0b9026",
      "resource": {
        "resourceType": "Device",
        "id": "8fd00acf-ebe2-4070-b356-6f7f1a0b9026",
        "deviceName": [
          {
            "name": "SYNDERAI Synthetic Generator",
            "type": "manufacturer-name"
          }
        ],
        "version": [
          {
            "value": "5.0"
          }
        ],
        "text": {
          "status": "generated",
          "div": "<div xmlns=\"http://www.w3.org/1999/xhtml\">SYNDERAI Synthetic Generator v5.0</div>"
        },
        "status": "active\"",
        "distinctIdentifier": "synderai-generator-50",
        "manufacturer": "SYNDERAI Project"
      }
    },
    {
      "fullUrl": "urn:uuid:b06cd21c-0c61-47cf-bc40-864cb1953a7e",
      "resource": {
        "resourceType": "Provenance",
        "id": "b06cd21c-0c61-47cf-bc40-864cb1953a7e",
        "target": [
          {
            "reference": "Patient/ab01d3c8-1229-4f29-9256-9a95409cc9ec"
          },
          {
            "reference": "Bundle/2f3dd8e9-e566-4b63-9b34-e69faa376e46"
          },
          {
            "reference": "Composition/1aa18407-fcf7-49ce-a39c-b5deee258cc7"
          },
          {
            "reference": "PractitionerRole/dc219b4f-258f-4467-a596-f74dce98a02e"
          },
          {
            "reference": "Practitioner/53af9826-336d-4aec-bf4c-ff72b134805a"
          },
          {
            "reference": "PractitionerRole/20448231-4afe-4295-a5b0-30f3c6ac4bff"
          },
          {
            "reference": "Organization/81e8bff4-75c1-4c0c-9c2b-e7c2034615e2"
          }
        ],
        "activity": {
          "text": "Synthetic Example Data Generation"
        },
        "policy": [
          "https://synderai.net/synderai-synthetic-data-policy"
        ],
        "agent": [
          {
            "type": {
              "text": "author"
            },
            "who": {
              "reference": "Device/8fd00acf-ebe2-4070-b356-6f7f1a0b9026"
            }
          }
        ],
        "reason": [
          {
            "text": "Interoperability Testing and Training (non-clinical use)"
          }
        ],
        "text": {
          "status": "generated",
          "div": "<div xmlns=\"http://www.w3.org/1999/xhtml\">Provenance for SYNDERAI Synthetic Example Data Resource</div>"
        },
        "recorded": "2020-02-07T05:48:18Z"
      }
    },
    {
      "fullUrl": "urn:uuid:dc219b4f-258f-4467-a596-f74dce98a02e",
      "resource": {
        "resourceType": "PractitionerRole",
        "id": "dc219b4f-258f-4467-a596-f74dce98a02e",
        "meta": {
          "profile": [
            "http://hl7.eu/fhir/base/StructureDefinition/practitionerRole-eu"
          ]
        },
        "text": {
          "status": "generated",
          "div": "<div xmlns=\"http://www.w3.org/1999/xhtml\">Laboratory Role Id: dc219b4f-258f-4467-a596-f74dce98a02e</div>"
        },
        "practitioner": {
          "reference": "urn:uuid:53af9826-336d-4aec-bf4c-ff72b134805a"
        }
      }
    },
    {
      "fullUrl": "urn:uuid:53af9826-336d-4aec-bf4c-ff72b134805a",
      "resource": {
        "resourceType": "Practitioner",
        "id": "53af9826-336d-4aec-bf4c-ff72b134805a",
        "meta": {
          "profile": [
            "http://hl7.eu/fhir/base/StructureDefinition/practitioner-eu"
          ]
        },
        "identifier": [
          {
            "assigner": {
              "display": "HL7 Europe"
            },
            "system": "urn:oid:2.16.840.1.113883.2.51.999",
            "value": "6be65808-d1a6-42ef-bb58-973b81a1b21f"
          }
        ],
        "name": [
          {
            "prefix": [
              "dr"
            ],
            "given": [
              "Ex"
            ],
            "family": "Ample"
          }
        ],
        "address": [
          {
            "line": [
              "Laboratoire Central Européenne",
              "Boulevard du Jardin Botanique 32"
            ],
            "postalCode": "1000",
            "city": "Brussels",
            "country": "Belgium"
          }
        ],
        "text": {
          "status": "generated",
          "div": "<div xmlns=\"http://www.w3.org/1999/xhtml\">Laboratory: Laboratoire Central Européenne, 1000 Brussels, Belgium</div>"
        }
      }
    }
  ],
  "type": "document",
  "timestamp": "2020-02-07T05:48:18Z"
}
