{
  "resourceType": "Bundle",
  "id": "d1ba62b9-c062-4a6e-9884-840f1f78f155",
  "meta": {
    "profile": [
      "http://hl7.eu/fhir/laboratory/StructureDefinition/Bundle-eu-lab"
    ]
  },
  "identifier": {
    "assigner": {
      "display": "HL7 Europe"
    },
    "system": "urn:oid:2.16.840.1.113883.2.51.999",
    "value": "20c1bc48-546b-4295-bb84-ce9982ec4d00"
  },
  "entry": [
    {
      "fullUrl": "urn:uuid:c89216aa-0891-4ce6-a854-f2b9ae20b6e7",
      "resource": {
        "resourceType": "Composition",
        "id": "c89216aa-0891-4ce6-a854-f2b9ae20b6e7",
        "meta": {
          "profile": [
            "http://hl7.eu/fhir/laboratory/StructureDefinition/Composition-eu-lab"
          ]
        },
        "identifier": {
          "assigner": {
            "display": "HL7 Europe"
          },
          "system": "urn:oid:2.16.840.1.113883.2.51.999",
          "value": "f8288ff8-ea8f-415f-96f1-6f6785996e25"
        },
        "author": [
          {
            "reference": "urn:uuid:d4e256c2-4ee5-436e-9a2b-3381a01187f8"
          }
        ],
        "category": [
          {
            "coding": [
              {
                "code": "26436-6",
                "system": "http://loinc.org",
                "display": "Laboratory studies (set)"
              }
            ]
          }
        ],
        "type": {
          "coding": [
            {
              "code": "11502-2",
              "system": "http://loinc.org",
              "display": "Laboratory report"
            }
          ],
          "text": "Laboratory Report"
        },
        "section": [
          {
            "code": {
              "coding": [
                {
                  "code": "26436-6",
                  "system": "http://loinc.org",
                  "display": "Laboratory studies (set)"
                }
              ],
              "text": "Laboratory studies"
            },
            "section": [
              {
                "code": {
                  "coding": [
                    {
                      "code": "$18719-5",
                      "system": "http://loinc.org",
                      "display": "Chemistry studies (set)"
                    }
                  ],
                  "text": "Chemistry"
                },
                "entry": [
                  {
                    "reference": "urn:uuid:0cc318a3-c877-420b-a64f-b9c57a6db5c8"
                  },
                  {
                    "reference": "urn:uuid:dd8bdcbd-36f0-4f92-b3d1-6dbae2dea757"
                  },
                  {
                    "reference": "urn:uuid:1195ebb4-86da-45e7-87db-58f38275597d"
                  },
                  {
                    "reference": "urn:uuid:f33e89b5-787d-42d1-8049-721d48ae6278"
                  },
                  {
                    "reference": "urn:uuid:39f2b01d-0b55-4a30-ae0d-4d2cd29fa214"
                  },
                  {
                    "reference": "urn:uuid:10c87dbb-1030-40bf-a2d2-01bc691be3c6"
                  },
                  {
                    "reference": "urn:uuid:628a418f-8c14-493b-a3ed-a551e17fedc7"
                  },
                  {
                    "reference": "urn:uuid:c0f24693-b428-44c8-bf6d-925f10f1edae"
                  },
                  {
                    "reference": "urn:uuid:ed3fba6e-993f-4b52-a50e-c58deee64a89"
                  },
                  {
                    "reference": "urn:uuid:1ff0c266-99b7-4dcc-9cde-c5d31a6f1dee"
                  },
                  {
                    "reference": "urn:uuid:4eb3c7cf-e59c-4bb6-9fe9-2e48a18b9698"
                  },
                  {
                    "reference": "urn:uuid:1c62d49e-da9a-4ad9-b4b8-a78d185116a0"
                  },
                  {
                    "reference": "urn:uuid:9db74947-8e84-4fbc-9afc-73d770747a12"
                  },
                  {
                    "reference": "urn:uuid:27d988e5-1d42-4cfc-be2d-98f8d73183f0"
                  },
                  {
                    "reference": "urn:uuid:fd00cf1a-00eb-4d47-8d3b-78872735c6c5"
                  },
                  {
                    "reference": "urn:uuid:5e584471-b82b-440e-ab50-350663a57339"
                  },
                  {
                    "reference": "urn:uuid:fce3a0f8-0c73-44ee-af42-fbea0743858f"
                  },
                  {
                    "reference": "urn:uuid:2c6ec7c2-d794-4bbe-ba94-b7b456f647d5"
                  },
                  {
                    "reference": "urn:uuid:74bcd075-3fbb-40f8-a243-a76093857aa9"
                  }
                ],
                "text": {
                  "status": "generated",
                  "div": "<div xmlns=\"http://www.w3.org/1999/xhtml\"><h3>Chemistry</h3><table class=\"hl7__eu__lab__report\"><thead><tr><th>Test</th><th>27-MAY-2019</th><th>Reference&#xA0;Range</th><th>Unit</th></tr></thead><tbody><tr><td>Glucose [Mass/volume] in Blood</td><td>92.3</td><td>70 - 140</td><td>mg/dL</td></tr><tr><td>Urea nitrogen [Mass/volume] in Blood</td><td>9.7</td><td>7 - 20</td><td>mg/dL</td></tr><tr><td>Creatinine [Mass/volume] in Blood</td><td><strong>3.2 H</strong></td><td>0.6 - 1.3</td><td>mg/dL</td></tr><tr><td>Calcium [Mass/volume] in Blood</td><td>8.8</td><td>8.5 - 10.5</td><td>mg/dL</td></tr><tr><td>Sodium [Moles/volume] in Blood</td><td>143.7</td><td>135 - 145</td><td>mmol/L</td></tr><tr><td>Potassium [Moles/volume] in Blood</td><td>4.5</td><td>3.6 - 5.1</td><td>mmol/L</td></tr><tr><td>Chloride [Moles/volume] in Blood</td><td><strong>111.0 H</strong></td><td>98 - 107</td><td>mmol/L</td></tr><tr><td>Carbon dioxide, total [Moles/volume] in Blood</td><td>25.7</td><td>22 - 32</td><td>mmol/L</td></tr><tr><td>Protein [Mass/volume] in Serum or Plasma</td><td>7.0</td><td>6 - 8.3</td><td>g/dL</td></tr><tr><td>Albumin [Mass/volume] in Serum or Plasma</td><td>3.7</td><td>3.5 - 5</td><td>g/dL</td></tr><tr><td>Globulin [Mass/volume] in Serum by calculation</td><td>2.3</td><td>2 - 3.9</td><td>g/L</td></tr><tr><td>Bilirubin.total [Mass/volume] in Serum or Plasma</td><td>0.8</td><td>0.3 - 1.2</td><td>mg/dL</td></tr><tr><td>Alkaline phosphatase [Enzymatic activity/volume] in Serum or Plasma</td><td>84.4</td><td>32 - 150</td><td>U/L</td></tr><tr><td>Alanine aminotransferase [Enzymatic activity/volume] in Serum or Plasma</td><td><strong>54.1 H</strong></td><td>13 - 32</td><td>U/L</td></tr><tr><td>Aspartate aminotransferase [Enzymatic activity/volume] in Serum or Plasma</td><td>33.9</td><td>10 - 40</td><td>U/L</td></tr><tr><td>Cholesterol [Mass/volume] in Serum or Plasma</td><td>171.9</td><td>130 - 200</td><td>mg/dL</td></tr><tr><td>Triglyceride [Mass/volume] in Serum or Plasma</td><td>120.2</td><td>0 - 199</td><td>mg/dL</td></tr><tr><td>Cholesterol in LDL [Mass/volume] in Serum or Plasma by Direct assay</td><td><strong>145.9 H</strong></td><td>0 - 130</td><td>mg/dL</td></tr><tr><td>Cholesterol in HDL [Mass/volume] in Serum or Plasma</td><td>62.5</td><td>50 - 100</td><td>mg/dL</td></tr></tbody></table></div>"
                },
                "title": "Chemistry"
              }
            ],
            "title": "Laboratory Report"
          },
          {
            "text": {
              "status": "generated",
              "div": "<div xmlns=\"http://www.w3.org/1999/xhtml\"><h3>Annotation</h3><table class=\"hl7__eu__lab__report\"><tr><th>Conclusion and Recommendations based on this report and previous findings known to us</th></tr><tr><td>The patient shows elevated creatinine, suggesting impaired renal function, and high chloride, which may indicate electrolyte imbalance. ALT is mildly elevated, possibly reflecting mild liver involvement. LDL cholesterol is above target, increasing cardiovascular risk. Other parameters, including glucose, albumin, and electrolytes, are within normal limits. Renal and liver function should be further evaluated and cardiovascular risk factors addressed.</td></tr></table></div>"
            },
            "code": {
              "coding": [
                {
                  "system": "http://loinc.org",
                  "code": "48767-8",
                  "display": "Annotation comment"
                }
              ]
            },
            "title": "Annotation comment"
          }
        ],
        "status": "final",
        "subject": {
          "reference": "urn:uuid:0efb57c3-844d-442b-9532-2f725accf626",
          "display": "Aniela Prażmo"
        },
        "date": "2019-05-27T15:25:25Z",
        "title": "Laboratory Report",
        "confidentiality": "N"
      }
    },
    {
      "fullUrl": "urn:uuid:be7ca07f-6492-4189-acef-e7e5ce650a51",
      "resource": {
        "resourceType": "DiagnosticReport",
        "id": "be7ca07f-6492-4189-acef-e7e5ce650a51",
        "meta": {
          "profile": [
            "http://hl7.eu/fhir/laboratory/StructureDefinition/DiagnosticReport-eu-lab"
          ]
        },
        "identifier": [
          {
            "assigner": {
              "display": "HL7 Europe"
            },
            "system": "urn:oid:2.16.840.1.113883.2.51.999",
            "value": "bcf4e0ab-b7f0-4a9a-802c-188ca16cb250"
          }
        ],
        "extension": [
          {
            "url": "http://hl7.org/fhir/5.0/StructureDefinition/extension-DiagnosticReport.composition",
            "valueReference": {
              "reference": "urn:uuid:f8288ff8-ea8f-415f-96f1-6f6785996e25"
            }
          }
        ],
        "category": [
          {
            "coding": [
              {
                "code": "26436-6",
                "system": "http://loinc.org",
                "display": "Laboratory studies (set)"
              }
            ]
          }
        ],
        "specimen": [
          {
            "reference": "urn:uuid:db19627d-7530-4861-ad8a-3197bf694dee"
          },
          {
            "reference": "urn:uuid:cd6f7b85-3495-43c3-a811-c3a9da6fceec"
          },
          {
            "reference": "urn:uuid:7eaade10-9eb2-4ff7-bdaa-21fe9e16b2ba"
          }
        ],
        "result": [
          {
            "reference": "urn:uuid:0cc318a3-c877-420b-a64f-b9c57a6db5c8"
          },
          {
            "reference": "urn:uuid:dd8bdcbd-36f0-4f92-b3d1-6dbae2dea757"
          },
          {
            "reference": "urn:uuid:1195ebb4-86da-45e7-87db-58f38275597d"
          },
          {
            "reference": "urn:uuid:f33e89b5-787d-42d1-8049-721d48ae6278"
          },
          {
            "reference": "urn:uuid:39f2b01d-0b55-4a30-ae0d-4d2cd29fa214"
          },
          {
            "reference": "urn:uuid:10c87dbb-1030-40bf-a2d2-01bc691be3c6"
          },
          {
            "reference": "urn:uuid:628a418f-8c14-493b-a3ed-a551e17fedc7"
          },
          {
            "reference": "urn:uuid:c0f24693-b428-44c8-bf6d-925f10f1edae"
          },
          {
            "reference": "urn:uuid:ed3fba6e-993f-4b52-a50e-c58deee64a89"
          },
          {
            "reference": "urn:uuid:1ff0c266-99b7-4dcc-9cde-c5d31a6f1dee"
          },
          {
            "reference": "urn:uuid:4eb3c7cf-e59c-4bb6-9fe9-2e48a18b9698"
          },
          {
            "reference": "urn:uuid:1c62d49e-da9a-4ad9-b4b8-a78d185116a0"
          },
          {
            "reference": "urn:uuid:9db74947-8e84-4fbc-9afc-73d770747a12"
          },
          {
            "reference": "urn:uuid:27d988e5-1d42-4cfc-be2d-98f8d73183f0"
          },
          {
            "reference": "urn:uuid:fd00cf1a-00eb-4d47-8d3b-78872735c6c5"
          },
          {
            "reference": "urn:uuid:5e584471-b82b-440e-ab50-350663a57339"
          },
          {
            "reference": "urn:uuid:fce3a0f8-0c73-44ee-af42-fbea0743858f"
          },
          {
            "reference": "urn:uuid:2c6ec7c2-d794-4bbe-ba94-b7b456f647d5"
          },
          {
            "reference": "urn:uuid:74bcd075-3fbb-40f8-a243-a76093857aa9"
          }
        ],
        "status": "registered",
        "code": {
          "coding": [
            {
              "code": "11502-2",
              "system": "http://loinc.org",
              "display": "Laboratory report"
            }
          ]
        },
        "subject": {
          "reference": "urn:uuid:0efb57c3-844d-442b-9532-2f725accf626",
          "display": "Aniela Prażmo"
        }
      }
    },
    {
      "fullUrl": "urn:uuid:0efb57c3-844d-442b-9532-2f725accf626",
      "resource": {
        "resourceType": "Patient",
        "id": "0efb57c3-844d-442b-9532-2f725accf626",
        "meta": {
          "security": [
            {
              "system": "http://terminology.hl7.org/CodeSystem/v3-ActReason",
              "code": "HTEST"
            },
            {
              "system": "http://terminology.hl7.org/CodeSystem/v3-ActReason",
              "code": "TRAIN"
            }
          ],
          "tag": [
            {
              "system": "https://synderai.net/fhir/CodeSystem/tags",
              "code": "synthetic",
              "display": "SYNDERAI Synthetic data"
            }
          ],
          "profile": [
            "http://hl7.eu/fhir/base/StructureDefinition/patient-eu-core"
          ]
        },
        "identifier": [
          {
            "type": {
              "coding": [
                {
                  "code": "PT",
                  "system": "http://terminology.hl7.org/CodeSystem/v2-0203"
                }
              ]
            },
            "system": "http://ec.europa.eu/identifier/eci",
            "value": "9657-869171-7"
          },
          {
            "type": {
              "coding": [
                {
                  "code": "MR",
                  "system": "http://terminology.hl7.org/CodeSystem/v2-0203"
                }
              ]
            },
            "system": "http://local.setting.eu/identifier",
            "value": "ab00158c-e2d0-01e4-6cf5-730949937551"
          }
        ],
        "name": [
          {
            "family": "Prażmo"
          },
          {
            "given": [
              "Aniela"
            ]
          },
          {
            "text": "Aniela Prażmo"
          }
        ],
        "address": [
          {
            "line": [
              "pl. Kołłątaja 62/43"
            ],
            "use": "home",
            "type": "physical",
            "postalCode": "97-200",
            "city": "Tomaszów Mazowiecki",
            "country": "Poland"
          }
        ],
        "telecom": [
          {
            "system": "phone",
            "value": "+48 782 809 233"
          }
        ],
        "extension": [
          {
            "url": "http://hl7.org/fhir/StructureDefinition/patient-nationality",
            "valueCodeableConcept": {
              "coding": [
                {
                  "code": "PL",
                  "system": "http://hl7.org/fhir/ValueSet/country"
                }
              ]
            }
          }
        ],
        "text": {
          "status": "generated",
          "div": "<div xmlns=\"http://www.w3.org/1999/xhtml\"><table class=\"hl7__ips\"><tr><td>Aniela Prażmo</td><td>female</td><td>08-Feb-1941</td></tr></table></div>"
        },
        "gender": "female",
        "birthDate": "1941-02-08"
      }
    },
    {
      "fullUrl": "urn:uuid:54035a22-64c7-467e-b29b-4b61dcabcd6b",
      "resource": {
        "resourceType": "ServiceRequest",
        "id": "54035a22-64c7-467e-b29b-4b61dcabcd6b",
        "meta": {
          "profile": [
            "http://hl7.eu/fhir/laboratory/StructureDefinition/ServiceRequest-eu-lab"
          ]
        },
        "identifier": [
          {
            "system": "http://example.org",
            "value": "4ebc952e-0b7b-4610-b238-daac4997238d"
          }
        ],
        "specimen": [
          {
            "reference": "urn:uuid:db19627d-7530-4861-ad8a-3197bf694dee"
          },
          {
            "reference": "urn:uuid:cd6f7b85-3495-43c3-a811-c3a9da6fceec"
          },
          {
            "reference": "urn:uuid:7eaade10-9eb2-4ff7-bdaa-21fe9e16b2ba"
          }
        ],
        "reasonCode": [
          {
            "coding": [
              {
                "code": "64859006",
                "system": "http://snomed.info/sct",
                "display": "Osteoporosis"
              }
            ]
          },
          {
            "coding": [
              {
                "code": "55822004",
                "system": "http://snomed.info/sct",
                "display": "Hyperlipidemia"
              }
            ]
          },
          {
            "coding": [
              {
                "code": "414545008",
                "system": "http://snomed.info/sct",
                "display": "Ischemic heart disease"
              }
            ]
          },
          {
            "coding": [
              {
                "code": "59621000",
                "system": "http://snomed.info/sct",
                "display": "Essential hypertension"
              }
            ]
          },
          {
            "coding": [
              {
                "code": "40055000",
                "system": "http://snomed.info/sct",
                "display": "Chronic sinusitis"
              }
            ]
          }
        ],
        "status": "active",
        "intent": "order",
        "code": {
          "coding": [
            {
              "code": "108252007",
              "system": "http://snomed.info/sct",
              "display": "Laboratory procedure"
            }
          ]
        },
        "subject": {
          "reference": "urn:uuid:0efb57c3-844d-442b-9532-2f725accf626",
          "display": "Aniela Prażmo"
        },
        "requester": {
          "reference": "urn:uuid:755b468d-57b4-4d81-bac7-49fae7e2ab4f"
        }
      }
    },
    {
      "fullUrl": "urn:uuid:755b468d-57b4-4d81-bac7-49fae7e2ab4f",
      "resource": {
        "resourceType": "PractitionerRole",
        "id": "755b468d-57b4-4d81-bac7-49fae7e2ab4f",
        "meta": {
          "profile": [
            "http://hl7.eu/fhir/base/StructureDefinition/practitionerRole-eu"
          ]
        },
        "text": {
          "status": "generated",
          "div": "<div xmlns=\"http://www.w3.org/1999/xhtml\">Provider Role Id: 755b468d-57b4-4d81-bac7-49fae7e2ab4f</div>"
        },
        "organization": {
          "reference": "urn:uuid:c28c4049-cdbb-4453-af82-41aa6cc78d3a"
        }
      }
    },
    {
      "fullUrl": "urn:uuid:c28c4049-cdbb-4453-af82-41aa6cc78d3a",
      "resource": {
        "resourceType": "Organization",
        "id": "c28c4049-cdbb-4453-af82-41aa6cc78d3a",
        "meta": {
          "profile": [
            "http://hl7.eu/fhir/base/StructureDefinition/organization-eu"
          ]
        },
        "identifier": [
          {
            "assigner": {
              "display": "HL7 Europe"
            },
            "system": "urn:oid:2.16.840.1.113883.2.51.999",
            "value": "e1269142-eac5-4349-9157-d4a4bb4bfac6"
          }
        ],
        "address": [
          {
            "city": "Tomaszów Mazowiecki",
            "postalCode": "97-200",
            "country": "Poland"
          }
        ],
        "text": {
          "status": "generated",
          "div": "<div xmlns=\"http://www.w3.org/1999/xhtml\">Provider Organization: Poradnia rehabilitacyjna</div>"
        },
        "name": "Poradnia rehabilitacyjna"
      }
    },
    {
      "fullUrl": "urn:uuid:db19627d-7530-4861-ad8a-3197bf694dee",
      "resource": {
        "resourceType": "Specimen",
        "id": "db19627d-7530-4861-ad8a-3197bf694dee",
        "meta": {
          "profile": [
            "http://hl7.eu/fhir/laboratory/StructureDefinition/Specimen-eu-lab"
          ]
        },
        "collection": {
          "collectedDateTime": "2019-05-27"
        },
        "text": {
          "status": "generated",
          "div": "<div xmlns=\"http://www.w3.org/1999/xhtml\"><table class=\"hl7__eu__lab__report\"><tr><th>Specimen</th><th>Collection Date</th></tr><tr><td>Whole blood specimen (specimen)</td><td><span class=\"nb\">27-May-2019</span></td></tr></table></div>"
        },
        "type": {
          "coding": [
            {
              "code": "258580003",
              "system": "http://snomed.info/sct",
              "display": "Whole blood specimen (specimen)"
            }
          ]
        }
      }
    },
    {
      "fullUrl": "urn:uuid:cd6f7b85-3495-43c3-a811-c3a9da6fceec",
      "resource": {
        "resourceType": "Specimen",
        "id": "cd6f7b85-3495-43c3-a811-c3a9da6fceec",
        "meta": {
          "profile": [
            "http://hl7.eu/fhir/laboratory/StructureDefinition/Specimen-eu-lab"
          ]
        },
        "collection": {
          "collectedDateTime": "2019-05-27"
        },
        "text": {
          "status": "generated",
          "div": "<div xmlns=\"http://www.w3.org/1999/xhtml\"><table class=\"hl7__eu__lab__report\"><tr><th>Specimen</th><th>Collection Date</th></tr><tr><td>Acellular blood (serum or plasma) specimen</td><td><span class=\"nb\">27-May-2019</span></td></tr></table></div>"
        },
        "type": {
          "coding": [
            {
              "code": "122592007",
              "system": "http://snomed.info/sct",
              "display": "Acellular blood (serum or plasma) specimen"
            }
          ]
        }
      }
    },
    {
      "fullUrl": "urn:uuid:7eaade10-9eb2-4ff7-bdaa-21fe9e16b2ba",
      "resource": {
        "resourceType": "Specimen",
        "id": "7eaade10-9eb2-4ff7-bdaa-21fe9e16b2ba",
        "meta": {
          "profile": [
            "http://hl7.eu/fhir/laboratory/StructureDefinition/Specimen-eu-lab"
          ]
        },
        "collection": {
          "collectedDateTime": "2019-05-27"
        },
        "text": {
          "status": "generated",
          "div": "<div xmlns=\"http://www.w3.org/1999/xhtml\"><table class=\"hl7__eu__lab__report\"><tr><th>Specimen</th><th>Collection Date</th></tr><tr><td>Serum specimen</td><td><span class=\"nb\">27-May-2019</span></td></tr></table></div>"
        },
        "type": {
          "coding": [
            {
              "code": "119364003",
              "system": "http://snomed.info/sct",
              "display": "Serum specimen"
            }
          ]
        }
      }
    },
    {
      "fullUrl": "urn:uuid:0cc318a3-c877-420b-a64f-b9c57a6db5c8",
      "resource": {
        "resourceType": "Observation",
        "id": "0cc318a3-c877-420b-a64f-b9c57a6db5c8",
        "meta": {
          "profile": [
            "http://hl7.eu/fhir/laboratory/StructureDefinition/Observation-resultslab-eu-lab"
          ]
        },
        "performer": [
          {
            "display": "The Central European Lab"
          }
        ],
        "category": [
          {
            "coding": [
              {
                "system": "http://terminology.hl7.org/CodeSystem/observation-category",
                "code": "laboratory"
              }
            ]
          }
        ],
        "code": {
          "coding": [
            {
              "code": "2339-0",
              "system": "http://loinc.org",
              "display": "Glucose [Mass/volume] in Blood"
            }
          ],
          "text": "Glucose [Mass/volume] in Blood"
        },
        "valueQuantity": {
          "system": "http://unitsofmeasure.org",
          "value": 92.3,
          "unit": "mg/dL",
          "code": "mg/dL"
        },
        "referenceRange": [
          {
            "low": {
              "value": 70,
              "code": "mg/dL",
              "system": "http://unitsofmeasure.org"
            }
          },
          {
            "high": {
              "value": 140,
              "code": "mg/dL",
              "system": "http://unitsofmeasure.org"
            }
          }
        ],
        "text": {
          "status": "generated",
          "div": "<div xmlns=\"http://www.w3.org/1999/xhtml\"><table class=\"hl7__eu__lab__report\"><tr><th>Test</th><th>27-May-2019</th><th>Reference&#xA0;Range</th><th>Unit</th></tr><tr><td>Glucose [Mass/volume] in Blood</td><td>92.3</td><td>70 - 140</td><td></td><td>mg/dL</td></tr></table></div>"
        },
        "status": "final",
        "subject": {
          "reference": "urn:uuid:0efb57c3-844d-442b-9532-2f725accf626",
          "display": "Aniela Prażmo"
        },
        "effectiveDateTime": "2019-05-27T13:25:25Z",
        "specimen": {
          "reference": "urn:uuid:db19627d-7530-4861-ad8a-3197bf694dee"
        }
      }
    },
    {
      "fullUrl": "urn:uuid:dd8bdcbd-36f0-4f92-b3d1-6dbae2dea757",
      "resource": {
        "resourceType": "Observation",
        "id": "dd8bdcbd-36f0-4f92-b3d1-6dbae2dea757",
        "meta": {
          "profile": [
            "http://hl7.eu/fhir/laboratory/StructureDefinition/Observation-resultslab-eu-lab"
          ]
        },
        "performer": [
          {
            "display": "The Central European Lab"
          }
        ],
        "category": [
          {
            "coding": [
              {
                "system": "http://terminology.hl7.org/CodeSystem/observation-category",
                "code": "laboratory"
              }
            ]
          }
        ],
        "code": {
          "coding": [
            {
              "code": "6299-2",
              "system": "http://loinc.org",
              "display": "Urea nitrogen [Mass/volume] in Blood"
            }
          ],
          "text": "Urea nitrogen [Mass/volume] in Blood"
        },
        "valueQuantity": {
          "system": "http://unitsofmeasure.org",
          "value": 9.7,
          "unit": "mg/dL",
          "code": "mg/dL"
        },
        "referenceRange": [
          {
            "low": {
              "value": 7,
              "code": "mg/dL",
              "system": "http://unitsofmeasure.org"
            }
          },
          {
            "high": {
              "value": 20,
              "code": "mg/dL",
              "system": "http://unitsofmeasure.org"
            }
          }
        ],
        "text": {
          "status": "generated",
          "div": "<div xmlns=\"http://www.w3.org/1999/xhtml\"><table class=\"hl7__eu__lab__report\"><tr><th>Test</th><th>27-May-2019</th><th>Reference&#xA0;Range</th><th>Unit</th></tr><tr><td>Urea nitrogen [Mass/volume] in Blood</td><td>9.7</td><td>7 - 20</td><td></td><td>mg/dL</td></tr></table></div>"
        },
        "status": "final",
        "subject": {
          "reference": "urn:uuid:0efb57c3-844d-442b-9532-2f725accf626",
          "display": "Aniela Prażmo"
        },
        "effectiveDateTime": "2019-05-27T13:25:25Z",
        "specimen": {
          "reference": "urn:uuid:db19627d-7530-4861-ad8a-3197bf694dee"
        }
      }
    },
    {
      "fullUrl": "urn:uuid:1195ebb4-86da-45e7-87db-58f38275597d",
      "resource": {
        "resourceType": "Observation",
        "id": "1195ebb4-86da-45e7-87db-58f38275597d",
        "meta": {
          "profile": [
            "http://hl7.eu/fhir/laboratory/StructureDefinition/Observation-resultslab-eu-lab"
          ]
        },
        "performer": [
          {
            "display": "The Central European Lab"
          }
        ],
        "category": [
          {
            "coding": [
              {
                "system": "http://terminology.hl7.org/CodeSystem/observation-category",
                "code": "laboratory"
              }
            ]
          }
        ],
        "code": {
          "coding": [
            {
              "code": "38483-4",
              "system": "http://loinc.org",
              "display": "Creatinine [Mass/volume] in Blood"
            }
          ],
          "text": "Creatinine [Mass/volume] in Blood"
        },
        "valueQuantity": {
          "system": "http://unitsofmeasure.org",
          "value": 3.2,
          "unit": "mg/dL",
          "code": "mg/dL"
        },
        "referenceRange": [
          {
            "low": {
              "value": 0.6,
              "code": "mg/dL",
              "system": "http://unitsofmeasure.org"
            }
          },
          {
            "high": {
              "value": 1.3,
              "code": "mg/dL",
              "system": "http://unitsofmeasure.org"
            }
          }
        ],
        "interpretation": [
          {
            "coding": [
              {
                "code": "H",
                "system": "http://terminology.hl7.org/CodeSystem/v3-ObservationInterpretation",
                "display": "High"
              }
            ]
          }
        ],
        "text": {
          "status": "generated",
          "div": "<div xmlns=\"http://www.w3.org/1999/xhtml\"><table class=\"hl7__eu__lab__report\"><tr><th>Test</th><th>27-May-2019</th><th>Reference&#xA0;Range</th><th>Unit</th></tr><tr><td>Creatinine [Mass/volume] in Blood</td><td>3.2</td><td>0.6 - 1.3</td><td>H</td><td>mg/dL</td></tr></table></div>"
        },
        "status": "final",
        "subject": {
          "reference": "urn:uuid:0efb57c3-844d-442b-9532-2f725accf626",
          "display": "Aniela Prażmo"
        },
        "effectiveDateTime": "2019-05-27T13:25:25Z",
        "specimen": {
          "reference": "urn:uuid:db19627d-7530-4861-ad8a-3197bf694dee"
        }
      }
    },
    {
      "fullUrl": "urn:uuid:f33e89b5-787d-42d1-8049-721d48ae6278",
      "resource": {
        "resourceType": "Observation",
        "id": "f33e89b5-787d-42d1-8049-721d48ae6278",
        "meta": {
          "profile": [
            "http://hl7.eu/fhir/laboratory/StructureDefinition/Observation-resultslab-eu-lab"
          ]
        },
        "performer": [
          {
            "display": "The Central European Lab"
          }
        ],
        "category": [
          {
            "coding": [
              {
                "system": "http://terminology.hl7.org/CodeSystem/observation-category",
                "code": "laboratory"
              }
            ]
          }
        ],
        "code": {
          "coding": [
            {
              "code": "49765-1",
              "system": "http://loinc.org",
              "display": "Calcium [Mass/volume] in Blood"
            }
          ],
          "text": "Calcium [Mass/volume] in Blood"
        },
        "valueQuantity": {
          "system": "http://unitsofmeasure.org",
          "value": 8.8,
          "unit": "mg/dL",
          "code": "mg/dL"
        },
        "referenceRange": [
          {
            "low": {
              "value": 8.5,
              "code": "mg/dL",
              "system": "http://unitsofmeasure.org"
            }
          },
          {
            "high": {
              "value": 10.5,
              "code": "mg/dL",
              "system": "http://unitsofmeasure.org"
            }
          }
        ],
        "text": {
          "status": "generated",
          "div": "<div xmlns=\"http://www.w3.org/1999/xhtml\"><table class=\"hl7__eu__lab__report\"><tr><th>Test</th><th>27-May-2019</th><th>Reference&#xA0;Range</th><th>Unit</th></tr><tr><td>Calcium [Mass/volume] in Blood</td><td>8.8</td><td>8.5 - 10.5</td><td></td><td>mg/dL</td></tr></table></div>"
        },
        "status": "final",
        "subject": {
          "reference": "urn:uuid:0efb57c3-844d-442b-9532-2f725accf626",
          "display": "Aniela Prażmo"
        },
        "effectiveDateTime": "2019-05-27T13:25:25Z",
        "specimen": {
          "reference": "urn:uuid:db19627d-7530-4861-ad8a-3197bf694dee"
        }
      }
    },
    {
      "fullUrl": "urn:uuid:39f2b01d-0b55-4a30-ae0d-4d2cd29fa214",
      "resource": {
        "resourceType": "Observation",
        "id": "39f2b01d-0b55-4a30-ae0d-4d2cd29fa214",
        "meta": {
          "profile": [
            "http://hl7.eu/fhir/laboratory/StructureDefinition/Observation-resultslab-eu-lab"
          ]
        },
        "performer": [
          {
            "display": "The Central European Lab"
          }
        ],
        "category": [
          {
            "coding": [
              {
                "system": "http://terminology.hl7.org/CodeSystem/observation-category",
                "code": "laboratory"
              }
            ]
          }
        ],
        "code": {
          "coding": [
            {
              "code": "2947-0",
              "system": "http://loinc.org",
              "display": "Sodium [Moles/volume] in Blood"
            }
          ],
          "text": "Sodium [Moles/volume] in Blood"
        },
        "valueQuantity": {
          "system": "http://unitsofmeasure.org",
          "value": 143.7,
          "unit": "mmol/L",
          "code": "mmol/L"
        },
        "referenceRange": [
          {
            "low": {
              "value": 135,
              "code": "mmol/L",
              "system": "http://unitsofmeasure.org"
            }
          },
          {
            "high": {
              "value": 145,
              "code": "mmol/L",
              "system": "http://unitsofmeasure.org"
            }
          }
        ],
        "text": {
          "status": "generated",
          "div": "<div xmlns=\"http://www.w3.org/1999/xhtml\"><table class=\"hl7__eu__lab__report\"><tr><th>Test</th><th>27-May-2019</th><th>Reference&#xA0;Range</th><th>Unit</th></tr><tr><td>Sodium [Moles/volume] in Blood</td><td>143.7</td><td>135 - 145</td><td></td><td>mmol/L</td></tr></table></div>"
        },
        "status": "final",
        "subject": {
          "reference": "urn:uuid:0efb57c3-844d-442b-9532-2f725accf626",
          "display": "Aniela Prażmo"
        },
        "effectiveDateTime": "2019-05-27T13:25:25Z",
        "specimen": {
          "reference": "urn:uuid:db19627d-7530-4861-ad8a-3197bf694dee"
        }
      }
    },
    {
      "fullUrl": "urn:uuid:10c87dbb-1030-40bf-a2d2-01bc691be3c6",
      "resource": {
        "resourceType": "Observation",
        "id": "10c87dbb-1030-40bf-a2d2-01bc691be3c6",
        "meta": {
          "profile": [
            "http://hl7.eu/fhir/laboratory/StructureDefinition/Observation-resultslab-eu-lab"
          ]
        },
        "performer": [
          {
            "display": "The Central European Lab"
          }
        ],
        "category": [
          {
            "coding": [
              {
                "system": "http://terminology.hl7.org/CodeSystem/observation-category",
                "code": "laboratory"
              }
            ]
          }
        ],
        "code": {
          "coding": [
            {
              "code": "6298-4",
              "system": "http://loinc.org",
              "display": "Potassium [Moles/volume] in Blood"
            }
          ],
          "text": "Potassium [Moles/volume] in Blood"
        },
        "valueQuantity": {
          "system": "http://unitsofmeasure.org",
          "value": 4.5,
          "unit": "mmol/L",
          "code": "mmol/L"
        },
        "referenceRange": [
          {
            "low": {
              "value": 3.6,
              "code": "mmol/L",
              "system": "http://unitsofmeasure.org"
            }
          },
          {
            "high": {
              "value": 5.1,
              "code": "mmol/L",
              "system": "http://unitsofmeasure.org"
            }
          }
        ],
        "text": {
          "status": "generated",
          "div": "<div xmlns=\"http://www.w3.org/1999/xhtml\"><table class=\"hl7__eu__lab__report\"><tr><th>Test</th><th>27-May-2019</th><th>Reference&#xA0;Range</th><th>Unit</th></tr><tr><td>Potassium [Moles/volume] in Blood</td><td>4.5</td><td>3.6 - 5.1</td><td></td><td>mmol/L</td></tr></table></div>"
        },
        "status": "final",
        "subject": {
          "reference": "urn:uuid:0efb57c3-844d-442b-9532-2f725accf626",
          "display": "Aniela Prażmo"
        },
        "effectiveDateTime": "2019-05-27T13:25:25Z",
        "specimen": {
          "reference": "urn:uuid:db19627d-7530-4861-ad8a-3197bf694dee"
        }
      }
    },
    {
      "fullUrl": "urn:uuid:628a418f-8c14-493b-a3ed-a551e17fedc7",
      "resource": {
        "resourceType": "Observation",
        "id": "628a418f-8c14-493b-a3ed-a551e17fedc7",
        "meta": {
          "profile": [
            "http://hl7.eu/fhir/laboratory/StructureDefinition/Observation-resultslab-eu-lab"
          ]
        },
        "performer": [
          {
            "display": "The Central European Lab"
          }
        ],
        "category": [
          {
            "coding": [
              {
                "system": "http://terminology.hl7.org/CodeSystem/observation-category",
                "code": "laboratory"
              }
            ]
          }
        ],
        "code": {
          "coding": [
            {
              "code": "2069-3",
              "system": "http://loinc.org",
              "display": "Chloride [Moles/volume] in Blood"
            }
          ],
          "text": "Chloride [Moles/volume] in Blood"
        },
        "valueQuantity": {
          "system": "http://unitsofmeasure.org",
          "value": 111,
          "unit": "mmol/L",
          "code": "mmol/L"
        },
        "referenceRange": [
          {
            "low": {
              "value": 98,
              "code": "mmol/L",
              "system": "http://unitsofmeasure.org"
            }
          },
          {
            "high": {
              "value": 107,
              "code": "mmol/L",
              "system": "http://unitsofmeasure.org"
            }
          }
        ],
        "interpretation": [
          {
            "coding": [
              {
                "code": "H",
                "system": "http://terminology.hl7.org/CodeSystem/v3-ObservationInterpretation",
                "display": "High"
              }
            ]
          }
        ],
        "text": {
          "status": "generated",
          "div": "<div xmlns=\"http://www.w3.org/1999/xhtml\"><table class=\"hl7__eu__lab__report\"><tr><th>Test</th><th>27-May-2019</th><th>Reference&#xA0;Range</th><th>Unit</th></tr><tr><td>Chloride [Moles/volume] in Blood</td><td>111.0</td><td>98 - 107</td><td>H</td><td>mmol/L</td></tr></table></div>"
        },
        "status": "final",
        "subject": {
          "reference": "urn:uuid:0efb57c3-844d-442b-9532-2f725accf626",
          "display": "Aniela Prażmo"
        },
        "effectiveDateTime": "2019-05-27T13:25:25Z",
        "specimen": {
          "reference": "urn:uuid:db19627d-7530-4861-ad8a-3197bf694dee"
        }
      }
    },
    {
      "fullUrl": "urn:uuid:c0f24693-b428-44c8-bf6d-925f10f1edae",
      "resource": {
        "resourceType": "Observation",
        "id": "c0f24693-b428-44c8-bf6d-925f10f1edae",
        "meta": {
          "profile": [
            "http://hl7.eu/fhir/laboratory/StructureDefinition/Observation-resultslab-eu-lab"
          ]
        },
        "performer": [
          {
            "display": "The Central European Lab"
          }
        ],
        "category": [
          {
            "coding": [
              {
                "system": "http://terminology.hl7.org/CodeSystem/observation-category",
                "code": "laboratory"
              }
            ]
          }
        ],
        "code": {
          "coding": [
            {
              "code": "20565-8",
              "system": "http://loinc.org",
              "display": "Carbon dioxide, total [Moles/volume] in Blood"
            }
          ],
          "text": "Carbon dioxide, total [Moles/volume] in Blood"
        },
        "valueQuantity": {
          "system": "http://unitsofmeasure.org",
          "value": 25.7,
          "unit": "mmol/L",
          "code": "mmol/L"
        },
        "referenceRange": [
          {
            "low": {
              "value": 22,
              "code": "mmol/L",
              "system": "http://unitsofmeasure.org"
            }
          },
          {
            "high": {
              "value": 32,
              "code": "mmol/L",
              "system": "http://unitsofmeasure.org"
            }
          }
        ],
        "text": {
          "status": "generated",
          "div": "<div xmlns=\"http://www.w3.org/1999/xhtml\"><table class=\"hl7__eu__lab__report\"><tr><th>Test</th><th>27-May-2019</th><th>Reference&#xA0;Range</th><th>Unit</th></tr><tr><td>Carbon dioxide, total [Moles/volume] in Blood</td><td>25.7</td><td>22 - 32</td><td></td><td>mmol/L</td></tr></table></div>"
        },
        "status": "final",
        "subject": {
          "reference": "urn:uuid:0efb57c3-844d-442b-9532-2f725accf626",
          "display": "Aniela Prażmo"
        },
        "effectiveDateTime": "2019-05-27T13:25:25Z",
        "specimen": {
          "reference": "urn:uuid:db19627d-7530-4861-ad8a-3197bf694dee"
        }
      }
    },
    {
      "fullUrl": "urn:uuid:ed3fba6e-993f-4b52-a50e-c58deee64a89",
      "resource": {
        "resourceType": "Observation",
        "id": "ed3fba6e-993f-4b52-a50e-c58deee64a89",
        "meta": {
          "profile": [
            "http://hl7.eu/fhir/laboratory/StructureDefinition/Observation-resultslab-eu-lab"
          ]
        },
        "performer": [
          {
            "display": "The Central European Lab"
          }
        ],
        "category": [
          {
            "coding": [
              {
                "system": "http://terminology.hl7.org/CodeSystem/observation-category",
                "code": "laboratory"
              }
            ]
          }
        ],
        "code": {
          "coding": [
            {
              "code": "2885-2",
              "system": "http://loinc.org",
              "display": "Protein [Mass/volume] in Serum or Plasma"
            }
          ],
          "text": "Protein [Mass/volume] in Serum or Plasma"
        },
        "valueQuantity": {
          "system": "http://unitsofmeasure.org",
          "value": 7,
          "unit": "g/dL",
          "code": "g/dL"
        },
        "referenceRange": [
          {
            "low": {
              "value": 6,
              "code": "g/dL",
              "system": "http://unitsofmeasure.org"
            }
          },
          {
            "high": {
              "value": 8.3,
              "code": "g/dL",
              "system": "http://unitsofmeasure.org"
            }
          }
        ],
        "text": {
          "status": "generated",
          "div": "<div xmlns=\"http://www.w3.org/1999/xhtml\"><table class=\"hl7__eu__lab__report\"><tr><th>Test</th><th>27-May-2019</th><th>Reference&#xA0;Range</th><th>Unit</th></tr><tr><td>Protein [Mass/volume] in Serum or Plasma</td><td>7.0</td><td>6 - 8.3</td><td></td><td>g/dL</td></tr></table></div>"
        },
        "status": "final",
        "subject": {
          "reference": "urn:uuid:0efb57c3-844d-442b-9532-2f725accf626",
          "display": "Aniela Prażmo"
        },
        "effectiveDateTime": "2019-05-27T13:25:25Z",
        "specimen": {
          "reference": "urn:uuid:cd6f7b85-3495-43c3-a811-c3a9da6fceec"
        }
      }
    },
    {
      "fullUrl": "urn:uuid:1ff0c266-99b7-4dcc-9cde-c5d31a6f1dee",
      "resource": {
        "resourceType": "Observation",
        "id": "1ff0c266-99b7-4dcc-9cde-c5d31a6f1dee",
        "meta": {
          "profile": [
            "http://hl7.eu/fhir/laboratory/StructureDefinition/Observation-resultslab-eu-lab"
          ]
        },
        "performer": [
          {
            "display": "The Central European Lab"
          }
        ],
        "category": [
          {
            "coding": [
              {
                "system": "http://terminology.hl7.org/CodeSystem/observation-category",
                "code": "laboratory"
              }
            ]
          }
        ],
        "code": {
          "coding": [
            {
              "code": "1751-7",
              "system": "http://loinc.org",
              "display": "Albumin [Mass/volume] in Serum or Plasma"
            }
          ],
          "text": "Albumin [Mass/volume] in Serum or Plasma"
        },
        "valueQuantity": {
          "system": "http://unitsofmeasure.org",
          "value": 3.7,
          "unit": "g/dL",
          "code": "g/dL"
        },
        "referenceRange": [
          {
            "low": {
              "value": 3.5,
              "code": "g/dL",
              "system": "http://unitsofmeasure.org"
            }
          },
          {
            "high": {
              "value": 5,
              "code": "g/dL",
              "system": "http://unitsofmeasure.org"
            }
          }
        ],
        "text": {
          "status": "generated",
          "div": "<div xmlns=\"http://www.w3.org/1999/xhtml\"><table class=\"hl7__eu__lab__report\"><tr><th>Test</th><th>27-May-2019</th><th>Reference&#xA0;Range</th><th>Unit</th></tr><tr><td>Albumin [Mass/volume] in Serum or Plasma</td><td>3.7</td><td>3.5 - 5</td><td></td><td>g/dL</td></tr></table></div>"
        },
        "status": "final",
        "subject": {
          "reference": "urn:uuid:0efb57c3-844d-442b-9532-2f725accf626",
          "display": "Aniela Prażmo"
        },
        "effectiveDateTime": "2019-05-27T13:25:25Z",
        "specimen": {
          "reference": "urn:uuid:cd6f7b85-3495-43c3-a811-c3a9da6fceec"
        }
      }
    },
    {
      "fullUrl": "urn:uuid:4eb3c7cf-e59c-4bb6-9fe9-2e48a18b9698",
      "resource": {
        "resourceType": "Observation",
        "id": "4eb3c7cf-e59c-4bb6-9fe9-2e48a18b9698",
        "meta": {
          "profile": [
            "http://hl7.eu/fhir/laboratory/StructureDefinition/Observation-resultslab-eu-lab"
          ]
        },
        "performer": [
          {
            "display": "The Central European Lab"
          }
        ],
        "category": [
          {
            "coding": [
              {
                "system": "http://terminology.hl7.org/CodeSystem/observation-category",
                "code": "laboratory"
              }
            ]
          }
        ],
        "code": {
          "coding": [
            {
              "code": "10834-0",
              "system": "http://loinc.org",
              "display": "Globulin [Mass/volume] in Serum by calculation"
            }
          ],
          "text": "Globulin [Mass/volume] in Serum by calculation"
        },
        "valueQuantity": {
          "system": "http://unitsofmeasure.org",
          "value": 2.3,
          "unit": "g/L",
          "code": "g/L"
        },
        "referenceRange": [
          {
            "low": {
              "value": 2,
              "code": "g/L",
              "system": "http://unitsofmeasure.org"
            }
          },
          {
            "high": {
              "value": 3.9,
              "code": "g/L",
              "system": "http://unitsofmeasure.org"
            }
          }
        ],
        "text": {
          "status": "generated",
          "div": "<div xmlns=\"http://www.w3.org/1999/xhtml\"><table class=\"hl7__eu__lab__report\"><tr><th>Test</th><th>27-May-2019</th><th>Reference&#xA0;Range</th><th>Unit</th></tr><tr><td>Globulin [Mass/volume] in Serum by calculation</td><td>2.3</td><td>2 - 3.9</td><td></td><td>g/L</td></tr></table></div>"
        },
        "status": "final",
        "subject": {
          "reference": "urn:uuid:0efb57c3-844d-442b-9532-2f725accf626",
          "display": "Aniela Prażmo"
        },
        "effectiveDateTime": "2019-05-27T13:25:25Z",
        "specimen": {
          "reference": "urn:uuid:7eaade10-9eb2-4ff7-bdaa-21fe9e16b2ba"
        }
      }
    },
    {
      "fullUrl": "urn:uuid:1c62d49e-da9a-4ad9-b4b8-a78d185116a0",
      "resource": {
        "resourceType": "Observation",
        "id": "1c62d49e-da9a-4ad9-b4b8-a78d185116a0",
        "meta": {
          "profile": [
            "http://hl7.eu/fhir/laboratory/StructureDefinition/Observation-resultslab-eu-lab"
          ]
        },
        "performer": [
          {
            "display": "The Central European Lab"
          }
        ],
        "category": [
          {
            "coding": [
              {
                "system": "http://terminology.hl7.org/CodeSystem/observation-category",
                "code": "laboratory"
              }
            ]
          }
        ],
        "code": {
          "coding": [
            {
              "code": "1975-2",
              "system": "http://loinc.org",
              "display": "Bilirubin.total [Mass/volume] in Serum or Plasma"
            }
          ],
          "text": "Bilirubin.total [Mass/volume] in Serum or Plasma"
        },
        "valueQuantity": {
          "system": "http://unitsofmeasure.org",
          "value": 0.8,
          "unit": "mg/dL",
          "code": "mg/dL"
        },
        "referenceRange": [
          {
            "low": {
              "value": 0.3,
              "code": "mg/dL",
              "system": "http://unitsofmeasure.org"
            }
          },
          {
            "high": {
              "value": 1.2,
              "code": "mg/dL",
              "system": "http://unitsofmeasure.org"
            }
          }
        ],
        "text": {
          "status": "generated",
          "div": "<div xmlns=\"http://www.w3.org/1999/xhtml\"><table class=\"hl7__eu__lab__report\"><tr><th>Test</th><th>27-May-2019</th><th>Reference&#xA0;Range</th><th>Unit</th></tr><tr><td>Bilirubin.total [Mass/volume] in Serum or Plasma</td><td>0.8</td><td>0.3 - 1.2</td><td></td><td>mg/dL</td></tr></table></div>"
        },
        "status": "final",
        "subject": {
          "reference": "urn:uuid:0efb57c3-844d-442b-9532-2f725accf626",
          "display": "Aniela Prażmo"
        },
        "effectiveDateTime": "2019-05-27T13:25:25Z",
        "specimen": {
          "reference": "urn:uuid:cd6f7b85-3495-43c3-a811-c3a9da6fceec"
        }
      }
    },
    {
      "fullUrl": "urn:uuid:9db74947-8e84-4fbc-9afc-73d770747a12",
      "resource": {
        "resourceType": "Observation",
        "id": "9db74947-8e84-4fbc-9afc-73d770747a12",
        "meta": {
          "profile": [
            "http://hl7.eu/fhir/laboratory/StructureDefinition/Observation-resultslab-eu-lab"
          ]
        },
        "performer": [
          {
            "display": "The Central European Lab"
          }
        ],
        "category": [
          {
            "coding": [
              {
                "system": "http://terminology.hl7.org/CodeSystem/observation-category",
                "code": "laboratory"
              }
            ]
          }
        ],
        "code": {
          "coding": [
            {
              "code": "6768-6",
              "system": "http://loinc.org",
              "display": "Alkaline phosphatase [Enzymatic activity/volume] in Serum or Plasma"
            }
          ],
          "text": "Alkaline phosphatase [Enzymatic activity/volume] in Serum or Plasma"
        },
        "valueQuantity": {
          "system": "http://unitsofmeasure.org",
          "value": 84.4,
          "unit": "U/L",
          "code": "U/L"
        },
        "referenceRange": [
          {
            "low": {
              "value": 32,
              "code": "U/L",
              "system": "http://unitsofmeasure.org"
            }
          },
          {
            "high": {
              "value": 150,
              "code": "U/L",
              "system": "http://unitsofmeasure.org"
            }
          }
        ],
        "text": {
          "status": "generated",
          "div": "<div xmlns=\"http://www.w3.org/1999/xhtml\"><table class=\"hl7__eu__lab__report\"><tr><th>Test</th><th>27-May-2019</th><th>Reference&#xA0;Range</th><th>Unit</th></tr><tr><td>Alkaline phosphatase [Enzymatic activity/volume] in Serum or Plasma</td><td>84.4</td><td>32 - 150</td><td></td><td>U/L</td></tr></table></div>"
        },
        "status": "final",
        "subject": {
          "reference": "urn:uuid:0efb57c3-844d-442b-9532-2f725accf626",
          "display": "Aniela Prażmo"
        },
        "effectiveDateTime": "2019-05-27T13:25:25Z",
        "specimen": {
          "reference": "urn:uuid:cd6f7b85-3495-43c3-a811-c3a9da6fceec"
        }
      }
    },
    {
      "fullUrl": "urn:uuid:27d988e5-1d42-4cfc-be2d-98f8d73183f0",
      "resource": {
        "resourceType": "Observation",
        "id": "27d988e5-1d42-4cfc-be2d-98f8d73183f0",
        "meta": {
          "profile": [
            "http://hl7.eu/fhir/laboratory/StructureDefinition/Observation-resultslab-eu-lab"
          ]
        },
        "performer": [
          {
            "display": "The Central European Lab"
          }
        ],
        "category": [
          {
            "coding": [
              {
                "system": "http://terminology.hl7.org/CodeSystem/observation-category",
                "code": "laboratory"
              }
            ]
          }
        ],
        "code": {
          "coding": [
            {
              "code": "1742-6",
              "system": "http://loinc.org",
              "display": "Alanine aminotransferase [Enzymatic activity/volume] in Serum or Plasma"
            }
          ],
          "text": "Alanine aminotransferase [Enzymatic activity/volume] in Serum or Plasma"
        },
        "valueQuantity": {
          "system": "http://unitsofmeasure.org",
          "value": 54.1,
          "unit": "U/L",
          "code": "U/L"
        },
        "referenceRange": [
          {
            "low": {
              "value": 13,
              "code": "U/L",
              "system": "http://unitsofmeasure.org"
            }
          },
          {
            "high": {
              "value": 32,
              "code": "U/L",
              "system": "http://unitsofmeasure.org"
            }
          }
        ],
        "interpretation": [
          {
            "coding": [
              {
                "code": "H",
                "system": "http://terminology.hl7.org/CodeSystem/v3-ObservationInterpretation",
                "display": "High"
              }
            ]
          }
        ],
        "text": {
          "status": "generated",
          "div": "<div xmlns=\"http://www.w3.org/1999/xhtml\"><table class=\"hl7__eu__lab__report\"><tr><th>Test</th><th>27-May-2019</th><th>Reference&#xA0;Range</th><th>Unit</th></tr><tr><td>Alanine aminotransferase [Enzymatic activity/volume] in Serum or Plasma</td><td>54.1</td><td>13 - 32</td><td>H</td><td>U/L</td></tr></table></div>"
        },
        "status": "final",
        "subject": {
          "reference": "urn:uuid:0efb57c3-844d-442b-9532-2f725accf626",
          "display": "Aniela Prażmo"
        },
        "effectiveDateTime": "2019-05-27T13:25:25Z",
        "specimen": {
          "reference": "urn:uuid:cd6f7b85-3495-43c3-a811-c3a9da6fceec"
        }
      }
    },
    {
      "fullUrl": "urn:uuid:fd00cf1a-00eb-4d47-8d3b-78872735c6c5",
      "resource": {
        "resourceType": "Observation",
        "id": "fd00cf1a-00eb-4d47-8d3b-78872735c6c5",
        "meta": {
          "profile": [
            "http://hl7.eu/fhir/laboratory/StructureDefinition/Observation-resultslab-eu-lab"
          ]
        },
        "performer": [
          {
            "display": "The Central European Lab"
          }
        ],
        "category": [
          {
            "coding": [
              {
                "system": "http://terminology.hl7.org/CodeSystem/observation-category",
                "code": "laboratory"
              }
            ]
          }
        ],
        "code": {
          "coding": [
            {
              "code": "1920-8",
              "system": "http://loinc.org",
              "display": "Aspartate aminotransferase [Enzymatic activity/volume] in Serum or Plasma"
            }
          ],
          "text": "Aspartate aminotransferase [Enzymatic activity/volume] in Serum or Plasma"
        },
        "valueQuantity": {
          "system": "http://unitsofmeasure.org",
          "value": 33.9,
          "unit": "U/L",
          "code": "U/L"
        },
        "referenceRange": [
          {
            "low": {
              "value": 10,
              "code": "U/L",
              "system": "http://unitsofmeasure.org"
            }
          },
          {
            "high": {
              "value": 40,
              "code": "U/L",
              "system": "http://unitsofmeasure.org"
            }
          }
        ],
        "text": {
          "status": "generated",
          "div": "<div xmlns=\"http://www.w3.org/1999/xhtml\"><table class=\"hl7__eu__lab__report\"><tr><th>Test</th><th>27-May-2019</th><th>Reference&#xA0;Range</th><th>Unit</th></tr><tr><td>Aspartate aminotransferase [Enzymatic activity/volume] in Serum or Plasma</td><td>33.9</td><td>10 - 40</td><td></td><td>U/L</td></tr></table></div>"
        },
        "status": "final",
        "subject": {
          "reference": "urn:uuid:0efb57c3-844d-442b-9532-2f725accf626",
          "display": "Aniela Prażmo"
        },
        "effectiveDateTime": "2019-05-27T13:25:25Z",
        "specimen": {
          "reference": "urn:uuid:cd6f7b85-3495-43c3-a811-c3a9da6fceec"
        }
      }
    },
    {
      "fullUrl": "urn:uuid:5e584471-b82b-440e-ab50-350663a57339",
      "resource": {
        "resourceType": "Observation",
        "id": "5e584471-b82b-440e-ab50-350663a57339",
        "meta": {
          "profile": [
            "http://hl7.eu/fhir/laboratory/StructureDefinition/Observation-resultslab-eu-lab"
          ]
        },
        "performer": [
          {
            "display": "The Central European Lab"
          }
        ],
        "category": [
          {
            "coding": [
              {
                "system": "http://terminology.hl7.org/CodeSystem/observation-category",
                "code": "laboratory"
              }
            ]
          }
        ],
        "code": {
          "coding": [
            {
              "code": "2093-3",
              "system": "http://loinc.org",
              "display": "Cholesterol [Mass/volume] in Serum or Plasma"
            }
          ],
          "text": "Cholesterol [Mass/volume] in Serum or Plasma"
        },
        "valueQuantity": {
          "system": "http://unitsofmeasure.org",
          "value": 171.9,
          "unit": "mg/dL",
          "code": "mg/dL"
        },
        "referenceRange": [
          {
            "low": {
              "value": 130,
              "code": "mg/dL",
              "system": "http://unitsofmeasure.org"
            }
          },
          {
            "high": {
              "value": 200,
              "code": "mg/dL",
              "system": "http://unitsofmeasure.org"
            }
          }
        ],
        "text": {
          "status": "generated",
          "div": "<div xmlns=\"http://www.w3.org/1999/xhtml\"><table class=\"hl7__eu__lab__report\"><tr><th>Test</th><th>27-May-2019</th><th>Reference&#xA0;Range</th><th>Unit</th></tr><tr><td>Cholesterol [Mass/volume] in Serum or Plasma</td><td>171.9</td><td>130 - 200</td><td></td><td>mg/dL</td></tr></table></div>"
        },
        "status": "final",
        "subject": {
          "reference": "urn:uuid:0efb57c3-844d-442b-9532-2f725accf626",
          "display": "Aniela Prażmo"
        },
        "effectiveDateTime": "2019-05-27T13:25:25Z",
        "specimen": {
          "reference": "urn:uuid:cd6f7b85-3495-43c3-a811-c3a9da6fceec"
        }
      }
    },
    {
      "fullUrl": "urn:uuid:fce3a0f8-0c73-44ee-af42-fbea0743858f",
      "resource": {
        "resourceType": "Observation",
        "id": "fce3a0f8-0c73-44ee-af42-fbea0743858f",
        "meta": {
          "profile": [
            "http://hl7.eu/fhir/laboratory/StructureDefinition/Observation-resultslab-eu-lab"
          ]
        },
        "performer": [
          {
            "display": "The Central European Lab"
          }
        ],
        "category": [
          {
            "coding": [
              {
                "system": "http://terminology.hl7.org/CodeSystem/observation-category",
                "code": "laboratory"
              }
            ]
          }
        ],
        "code": {
          "coding": [
            {
              "code": "2571-8",
              "system": "http://loinc.org",
              "display": "Triglyceride [Mass/volume] in Serum or Plasma"
            }
          ],
          "text": "Triglyceride [Mass/volume] in Serum or Plasma"
        },
        "valueQuantity": {
          "system": "http://unitsofmeasure.org",
          "value": 120.2,
          "unit": "mg/dL",
          "code": "mg/dL"
        },
        "referenceRange": [
          {
            "low": {
              "value": 0,
              "code": "mg/dL",
              "system": "http://unitsofmeasure.org"
            }
          },
          {
            "high": {
              "value": 199,
              "code": "mg/dL",
              "system": "http://unitsofmeasure.org"
            }
          }
        ],
        "text": {
          "status": "generated",
          "div": "<div xmlns=\"http://www.w3.org/1999/xhtml\"><table class=\"hl7__eu__lab__report\"><tr><th>Test</th><th>27-May-2019</th><th>Reference&#xA0;Range</th><th>Unit</th></tr><tr><td>Triglyceride [Mass/volume] in Serum or Plasma</td><td>120.2</td><td>0 - 199</td><td></td><td>mg/dL</td></tr></table></div>"
        },
        "status": "final",
        "subject": {
          "reference": "urn:uuid:0efb57c3-844d-442b-9532-2f725accf626",
          "display": "Aniela Prażmo"
        },
        "effectiveDateTime": "2019-05-27T13:25:25Z",
        "specimen": {
          "reference": "urn:uuid:cd6f7b85-3495-43c3-a811-c3a9da6fceec"
        }
      }
    },
    {
      "fullUrl": "urn:uuid:2c6ec7c2-d794-4bbe-ba94-b7b456f647d5",
      "resource": {
        "resourceType": "Observation",
        "id": "2c6ec7c2-d794-4bbe-ba94-b7b456f647d5",
        "meta": {
          "profile": [
            "http://hl7.eu/fhir/laboratory/StructureDefinition/Observation-resultslab-eu-lab"
          ]
        },
        "performer": [
          {
            "display": "The Central European Lab"
          }
        ],
        "category": [
          {
            "coding": [
              {
                "system": "http://terminology.hl7.org/CodeSystem/observation-category",
                "code": "laboratory"
              }
            ]
          }
        ],
        "code": {
          "coding": [
            {
              "code": "18262-6",
              "system": "http://loinc.org",
              "display": "Cholesterol in LDL [Mass/volume] in Serum or Plasma by Direct assay"
            }
          ],
          "text": "Cholesterol in LDL [Mass/volume] in Serum or Plasma by Direct assay"
        },
        "valueQuantity": {
          "system": "http://unitsofmeasure.org",
          "value": 145.9,
          "unit": "mg/dL",
          "code": "mg/dL"
        },
        "referenceRange": [
          {
            "low": {
              "value": 0,
              "code": "mg/dL",
              "system": "http://unitsofmeasure.org"
            }
          },
          {
            "high": {
              "value": 130,
              "code": "mg/dL",
              "system": "http://unitsofmeasure.org"
            }
          }
        ],
        "interpretation": [
          {
            "coding": [
              {
                "code": "H",
                "system": "http://terminology.hl7.org/CodeSystem/v3-ObservationInterpretation",
                "display": "High"
              }
            ]
          }
        ],
        "text": {
          "status": "generated",
          "div": "<div xmlns=\"http://www.w3.org/1999/xhtml\"><table class=\"hl7__eu__lab__report\"><tr><th>Test</th><th>27-May-2019</th><th>Reference&#xA0;Range</th><th>Unit</th></tr><tr><td>Cholesterol in LDL [Mass/volume] in Serum or Plasma by Direct assay</td><td>145.9</td><td>0 - 130</td><td>H</td><td>mg/dL</td></tr></table></div>"
        },
        "status": "final",
        "subject": {
          "reference": "urn:uuid:0efb57c3-844d-442b-9532-2f725accf626",
          "display": "Aniela Prażmo"
        },
        "effectiveDateTime": "2019-05-27T13:25:25Z",
        "specimen": {
          "reference": "urn:uuid:cd6f7b85-3495-43c3-a811-c3a9da6fceec"
        }
      }
    },
    {
      "fullUrl": "urn:uuid:74bcd075-3fbb-40f8-a243-a76093857aa9",
      "resource": {
        "resourceType": "Observation",
        "id": "74bcd075-3fbb-40f8-a243-a76093857aa9",
        "meta": {
          "profile": [
            "http://hl7.eu/fhir/laboratory/StructureDefinition/Observation-resultslab-eu-lab"
          ]
        },
        "performer": [
          {
            "display": "The Central European Lab"
          }
        ],
        "category": [
          {
            "coding": [
              {
                "system": "http://terminology.hl7.org/CodeSystem/observation-category",
                "code": "laboratory"
              }
            ]
          }
        ],
        "code": {
          "coding": [
            {
              "code": "2085-9",
              "system": "http://loinc.org",
              "display": "Cholesterol in HDL [Mass/volume] in Serum or Plasma"
            }
          ],
          "text": "Cholesterol in HDL [Mass/volume] in Serum or Plasma"
        },
        "valueQuantity": {
          "system": "http://unitsofmeasure.org",
          "value": 62.5,
          "unit": "mg/dL",
          "code": "mg/dL"
        },
        "referenceRange": [
          {
            "low": {
              "value": 50,
              "code": "mg/dL",
              "system": "http://unitsofmeasure.org"
            }
          },
          {
            "high": {
              "value": 100,
              "code": "mg/dL",
              "system": "http://unitsofmeasure.org"
            }
          }
        ],
        "text": {
          "status": "generated",
          "div": "<div xmlns=\"http://www.w3.org/1999/xhtml\"><table class=\"hl7__eu__lab__report\"><tr><th>Test</th><th>27-May-2019</th><th>Reference&#xA0;Range</th><th>Unit</th></tr><tr><td>Cholesterol in HDL [Mass/volume] in Serum or Plasma</td><td>62.5</td><td>50 - 100</td><td></td><td>mg/dL</td></tr></table></div>"
        },
        "status": "final",
        "subject": {
          "reference": "urn:uuid:0efb57c3-844d-442b-9532-2f725accf626",
          "display": "Aniela Prażmo"
        },
        "effectiveDateTime": "2019-05-27T13:25:25Z",
        "specimen": {
          "reference": "urn:uuid:cd6f7b85-3495-43c3-a811-c3a9da6fceec"
        }
      }
    },
    {
      "fullUrl": "urn:uuid:5c541132-0b28-4708-9f88-3d5de7747960",
      "resource": {
        "resourceType": "Device",
        "id": "5c541132-0b28-4708-9f88-3d5de7747960",
        "deviceName": [
          {
            "name": "SYNDERAI Synthetic Generator",
            "type": "manufacturer-name"
          }
        ],
        "version": [
          {
            "value": "5.0"
          }
        ],
        "text": {
          "status": "generated",
          "div": "<div xmlns=\"http://www.w3.org/1999/xhtml\">SYNDERAI Synthetic Generator v5.0</div>"
        },
        "status": "active\"",
        "distinctIdentifier": "synderai-generator-50",
        "manufacturer": "SYNDERAI Project"
      }
    },
    {
      "fullUrl": "urn:uuid:537210af-d1f2-454d-992f-57979c2aedec",
      "resource": {
        "resourceType": "Provenance",
        "id": "537210af-d1f2-454d-992f-57979c2aedec",
        "target": [
          {
            "reference": "Patient/0efb57c3-844d-442b-9532-2f725accf626"
          },
          {
            "reference": "Bundle/d1ba62b9-c062-4a6e-9884-840f1f78f155"
          },
          {
            "reference": "Composition/c89216aa-0891-4ce6-a854-f2b9ae20b6e7"
          },
          {
            "reference": "PractitionerRole/d4e256c2-4ee5-436e-9a2b-3381a01187f8"
          },
          {
            "reference": "Practitioner/b8901bc4-cc01-4667-a617-bdbf3d30a4d8"
          },
          {
            "reference": "PractitionerRole/755b468d-57b4-4d81-bac7-49fae7e2ab4f"
          },
          {
            "reference": "Organization/c28c4049-cdbb-4453-af82-41aa6cc78d3a"
          }
        ],
        "activity": {
          "text": "Synthetic Example Data Generation"
        },
        "policy": [
          "https://synderai.net/synderai-synthetic-data-policy"
        ],
        "agent": [
          {
            "type": {
              "text": "author"
            },
            "who": {
              "reference": "Device/5c541132-0b28-4708-9f88-3d5de7747960"
            }
          }
        ],
        "reason": [
          {
            "text": "Interoperability Testing and Training (non-clinical use)"
          }
        ],
        "text": {
          "status": "generated",
          "div": "<div xmlns=\"http://www.w3.org/1999/xhtml\">Provenance for SYNDERAI Synthetic Example Data Resource</div>"
        },
        "recorded": "2019-05-27T15:25:25Z"
      }
    },
    {
      "fullUrl": "urn:uuid:d4e256c2-4ee5-436e-9a2b-3381a01187f8",
      "resource": {
        "resourceType": "PractitionerRole",
        "id": "d4e256c2-4ee5-436e-9a2b-3381a01187f8",
        "meta": {
          "profile": [
            "http://hl7.eu/fhir/base/StructureDefinition/practitionerRole-eu"
          ]
        },
        "text": {
          "status": "generated",
          "div": "<div xmlns=\"http://www.w3.org/1999/xhtml\">Laboratory Role Id: d4e256c2-4ee5-436e-9a2b-3381a01187f8</div>"
        },
        "practitioner": {
          "reference": "urn:uuid:b8901bc4-cc01-4667-a617-bdbf3d30a4d8"
        }
      }
    },
    {
      "fullUrl": "urn:uuid:b8901bc4-cc01-4667-a617-bdbf3d30a4d8",
      "resource": {
        "resourceType": "Practitioner",
        "id": "b8901bc4-cc01-4667-a617-bdbf3d30a4d8",
        "meta": {
          "profile": [
            "http://hl7.eu/fhir/base/StructureDefinition/practitioner-eu"
          ]
        },
        "identifier": [
          {
            "assigner": {
              "display": "HL7 Europe"
            },
            "system": "urn:oid:2.16.840.1.113883.2.51.999",
            "value": "93ebddc2-483e-49c2-b186-a353933fd219"
          }
        ],
        "name": [
          {
            "prefix": [
              "dr"
            ],
            "given": [
              "Ex"
            ],
            "family": "Ample"
          }
        ],
        "address": [
          {
            "line": [
              "Laboratoire Central Européenne",
              "Boulevard du Jardin Botanique 32"
            ],
            "postalCode": "1000",
            "city": "Brussels",
            "country": "Belgium"
          }
        ],
        "text": {
          "status": "generated",
          "div": "<div xmlns=\"http://www.w3.org/1999/xhtml\">Laboratory: Laboratoire Central Européenne, 1000 Brussels, Belgium</div>"
        }
      }
    }
  ],
  "type": "document",
  "timestamp": "2019-05-27T15:25:25Z"
}
