{
  "resourceType": "Bundle",
  "id": "421913a2-2b16-4edc-94b8-5e4827ee3ad6",
  "meta": {
    "profile": [
      "http://hl7.eu/fhir/laboratory/StructureDefinition/Bundle-eu-lab"
    ]
  },
  "identifier": {
    "assigner": {
      "display": "HL7 Europe"
    },
    "system": "urn:oid:2.16.840.1.113883.2.51.999",
    "value": "0b829624-6223-45b7-b311-bc4022631de0"
  },
  "entry": [
    {
      "fullUrl": "urn:uuid:e1d6a6d5-d2a3-450f-bbbc-ad8d5dea8061",
      "resource": {
        "resourceType": "Composition",
        "id": "e1d6a6d5-d2a3-450f-bbbc-ad8d5dea8061",
        "meta": {
          "profile": [
            "http://hl7.eu/fhir/laboratory/StructureDefinition/Composition-eu-lab"
          ]
        },
        "identifier": {
          "assigner": {
            "display": "HL7 Europe"
          },
          "system": "urn:oid:2.16.840.1.113883.2.51.999",
          "value": "716117dd-2186-4a03-9106-2c307ca2a046"
        },
        "author": [
          {
            "reference": "urn:uuid:19af821f-fcb9-4518-8cc2-4d38fdf02b6d"
          }
        ],
        "category": [
          {
            "coding": [
              {
                "code": "26436-6",
                "system": "http://loinc.org",
                "display": "Laboratory studies (set)"
              }
            ]
          }
        ],
        "type": {
          "coding": [
            {
              "code": "11502-2",
              "system": "http://loinc.org",
              "display": "Laboratory report"
            }
          ],
          "text": "Laboratory Report"
        },
        "section": [
          {
            "code": {
              "coding": [
                {
                  "code": "26436-6",
                  "system": "http://loinc.org",
                  "display": "Laboratory studies (set)"
                }
              ],
              "text": "Laboratory studies"
            },
            "section": [
              {
                "code": {
                  "coding": [
                    {
                      "code": "$18719-5",
                      "system": "http://loinc.org",
                      "display": "Chemistry studies (set)"
                    }
                  ],
                  "text": "Chemistry"
                },
                "entry": [
                  {
                    "reference": "urn:uuid:6bea4a2b-e7a1-4932-a2d0-cb7b2bf0fa15"
                  },
                  {
                    "reference": "urn:uuid:7ca2bd7a-3de5-480e-9407-3e37b104d66c"
                  },
                  {
                    "reference": "urn:uuid:0a0e32df-ce14-4877-a877-db3f8e388b60"
                  },
                  {
                    "reference": "urn:uuid:0ace5436-9149-48d8-8618-e6c7123ed23b"
                  },
                  {
                    "reference": "urn:uuid:e3f355fa-604c-4099-a1a4-19abf6a30dbb"
                  },
                  {
                    "reference": "urn:uuid:66ab74c4-bc62-4375-9f53-b58cda703882"
                  },
                  {
                    "reference": "urn:uuid:dbcdd60d-3751-4b97-82f7-354dc17713a2"
                  },
                  {
                    "reference": "urn:uuid:3e90376f-3d08-4b05-964f-e68cbdb5b7e6"
                  },
                  {
                    "reference": "urn:uuid:56867049-e920-4e1b-be4e-efc05801ad9a"
                  },
                  {
                    "reference": "urn:uuid:86939551-2b11-4296-b1c1-e88558a352be"
                  },
                  {
                    "reference": "urn:uuid:315abf73-2dab-47d4-ae6c-ed8681f2956c"
                  },
                  {
                    "reference": "urn:uuid:8a4de73c-c8ce-49fe-b63d-2fcdfc1fe3a7"
                  },
                  {
                    "reference": "urn:uuid:ddc46c15-5582-4fcf-a648-5f7b6514381f"
                  },
                  {
                    "reference": "urn:uuid:47404d89-0f90-4aa8-ae6b-67a1b5c40d23"
                  }
                ],
                "text": {
                  "status": "generated",
                  "div": "<div xmlns=\"http://www.w3.org/1999/xhtml\"><h3>Chemistry</h3><table class=\"hl7__eu__lab__report\"><thead><tr><th>Test</th><th>19-MAR-2019</th><th>Reference&#xA0;Range</th><th>Unit</th></tr></thead><tbody><tr><td>Hemoglobin A1c/Hemoglobin.total in Blood</td><td><strong>7.0 H</strong></td><td>4.6 - 6</td><td>%</td></tr><tr><td>Glucose [Mass/volume] in Blood</td><td><strong>100.5 H</strong></td><td>70 - 99</td><td>mg/dL</td></tr><tr><td>Urea nitrogen [Mass/volume] in Blood</td><td>14.2</td><td>7 - 50</td><td>mg/dL</td></tr><tr><td>Creatinine [Mass/volume] in Blood</td><td>1.1</td><td>0.9 - 1.3</td><td>mg/dL</td></tr><tr><td>Calcium [Mass/volume] in Blood</td><td>9.6</td><td>8.5 - 10.5</td><td>mg/dL</td></tr><tr><td>Sodium [Moles/volume] in Blood</td><td>136.8</td><td>135 - 145</td><td>mmol/L</td></tr><tr><td>Potassium [Moles/volume] in Blood</td><td>3.7</td><td>3.5 - 5.1</td><td>mmol/L</td></tr><tr><td>Chloride [Moles/volume] in Blood</td><td>106.8</td><td>98 - 114</td><td>mmol/L</td></tr><tr><td>Carbon dioxide, total [Moles/volume] in Blood</td><td>28.4</td><td>22 - 32</td><td>mmol/L</td></tr><tr><td>Cholesterol [Mass/volume] in Serum or Plasma</td><td><strong>214.3 H</strong></td><td>125 - 200</td><td>mg/dL</td></tr><tr><td>Triglyceride [Mass/volume] in Serum or Plasma</td><td><strong>198.2 H</strong></td><td>0 - 150</td><td>mg/dL</td></tr><tr><td>Cholesterol in LDL [Mass/volume] in Serum or Plasma by Direct assay</td><td>118.4</td><td>0 - 130</td><td>mg/dL</td></tr><tr><td>Cholesterol in HDL [Mass/volume] in Serum or Plasma</td><td>56.2</td><td>40 - 60</td><td>mg/dL</td></tr><tr><td>Microalbumin/Creatinine [Mass Ratio] in Urine</td><td>3.7</td><td>0 - 30</td><td>mg/g</td></tr></tbody></table></div>"
                },
                "title": "Chemistry"
              }
            ],
            "title": "Laboratory Report"
          },
          {
            "text": {
              "status": "generated",
              "div": "<div xmlns=\"http://www.w3.org/1999/xhtml\"><h3>Annotation</h3><table class=\"hl7__eu__lab__report\"><tr><th>Conclusion and Recommendations based on this report and previous findings known to us</th></tr><tr><td>The results indicate suboptimal glycemic control (elevated HbA1c and fasting glucose), and dyslipidemia (high total cholesterol and triglycerides). Renal function, electrolytes, and microalbumin/creatinine ratio are within normal limits. Recommend clinical follow-up for diabetes and lipid management to reduce cardiovascular risk.</td></tr></table></div>"
            },
            "code": {
              "coding": [
                {
                  "system": "http://loinc.org",
                  "code": "48767-8",
                  "display": "Annotation comment"
                }
              ]
            },
            "title": "Annotation comment"
          }
        ],
        "status": "final",
        "subject": {
          "reference": "urn:uuid:5e673cfc-edb5-4812-9965-efbd07dcb4a2",
          "display": "Roy Harrison"
        },
        "date": "2019-03-19T03:49:43Z",
        "title": "Laboratory Report",
        "confidentiality": "N"
      }
    },
    {
      "fullUrl": "urn:uuid:9ac21ab6-281f-4cf7-8fa7-4e24843ac890",
      "resource": {
        "resourceType": "DiagnosticReport",
        "id": "9ac21ab6-281f-4cf7-8fa7-4e24843ac890",
        "meta": {
          "profile": [
            "http://hl7.eu/fhir/laboratory/StructureDefinition/DiagnosticReport-eu-lab"
          ]
        },
        "identifier": [
          {
            "assigner": {
              "display": "HL7 Europe"
            },
            "system": "urn:oid:2.16.840.1.113883.2.51.999",
            "value": "146d463f-d008-4b8b-b457-43653b85bc9c"
          }
        ],
        "extension": [
          {
            "url": "http://hl7.org/fhir/5.0/StructureDefinition/extension-DiagnosticReport.composition",
            "valueReference": {
              "reference": "urn:uuid:716117dd-2186-4a03-9106-2c307ca2a046"
            }
          }
        ],
        "category": [
          {
            "coding": [
              {
                "code": "26436-6",
                "system": "http://loinc.org",
                "display": "Laboratory studies (set)"
              }
            ]
          }
        ],
        "specimen": [
          {
            "reference": "urn:uuid:25b8c43f-20eb-4c8c-a593-baf351a67977"
          },
          {
            "reference": "urn:uuid:9ce8eb2c-e6a6-4356-b794-cbe2725a90b1"
          },
          {
            "reference": "urn:uuid:4cf8fe25-db1f-444d-9982-c3e97af10ef1"
          }
        ],
        "result": [
          {
            "reference": "urn:uuid:6bea4a2b-e7a1-4932-a2d0-cb7b2bf0fa15"
          },
          {
            "reference": "urn:uuid:7ca2bd7a-3de5-480e-9407-3e37b104d66c"
          },
          {
            "reference": "urn:uuid:0a0e32df-ce14-4877-a877-db3f8e388b60"
          },
          {
            "reference": "urn:uuid:0ace5436-9149-48d8-8618-e6c7123ed23b"
          },
          {
            "reference": "urn:uuid:e3f355fa-604c-4099-a1a4-19abf6a30dbb"
          },
          {
            "reference": "urn:uuid:66ab74c4-bc62-4375-9f53-b58cda703882"
          },
          {
            "reference": "urn:uuid:dbcdd60d-3751-4b97-82f7-354dc17713a2"
          },
          {
            "reference": "urn:uuid:3e90376f-3d08-4b05-964f-e68cbdb5b7e6"
          },
          {
            "reference": "urn:uuid:56867049-e920-4e1b-be4e-efc05801ad9a"
          },
          {
            "reference": "urn:uuid:86939551-2b11-4296-b1c1-e88558a352be"
          },
          {
            "reference": "urn:uuid:315abf73-2dab-47d4-ae6c-ed8681f2956c"
          },
          {
            "reference": "urn:uuid:8a4de73c-c8ce-49fe-b63d-2fcdfc1fe3a7"
          },
          {
            "reference": "urn:uuid:ddc46c15-5582-4fcf-a648-5f7b6514381f"
          },
          {
            "reference": "urn:uuid:47404d89-0f90-4aa8-ae6b-67a1b5c40d23"
          }
        ],
        "status": "registered",
        "code": {
          "coding": [
            {
              "code": "11502-2",
              "system": "http://loinc.org",
              "display": "Laboratory report"
            }
          ]
        },
        "subject": {
          "reference": "urn:uuid:5e673cfc-edb5-4812-9965-efbd07dcb4a2",
          "display": "Roy Harrison"
        }
      }
    },
    {
      "fullUrl": "urn:uuid:5e673cfc-edb5-4812-9965-efbd07dcb4a2",
      "resource": {
        "resourceType": "Patient",
        "id": "5e673cfc-edb5-4812-9965-efbd07dcb4a2",
        "meta": {
          "security": [
            {
              "system": "http://terminology.hl7.org/CodeSystem/v3-ActReason",
              "code": "HTEST"
            },
            {
              "system": "http://terminology.hl7.org/CodeSystem/v3-ActReason",
              "code": "TRAIN"
            }
          ],
          "tag": [
            {
              "system": "https://synderai.net/fhir/CodeSystem/tags",
              "code": "synthetic",
              "display": "SYNDERAI Synthetic data"
            }
          ],
          "profile": [
            "http://hl7.eu/fhir/base/StructureDefinition/patient-eu-core"
          ]
        },
        "identifier": [
          {
            "type": {
              "coding": [
                {
                  "code": "PT",
                  "system": "http://terminology.hl7.org/CodeSystem/v2-0203"
                }
              ]
            },
            "system": "http://ec.europa.eu/identifier/eci",
            "value": "7093-553922-4"
          },
          {
            "type": {
              "coding": [
                {
                  "code": "MR",
                  "system": "http://terminology.hl7.org/CodeSystem/v2-0203"
                }
              ]
            },
            "system": "http://local.setting.eu/identifier",
            "value": "42633ccd-9ef5-6a00-b7c9-353a9679bf2b"
          }
        ],
        "name": [
          {
            "family": "Harrison"
          },
          {
            "given": [
              "Roy"
            ]
          },
          {
            "text": "Roy Harrison"
          }
        ],
        "address": [
          {
            "line": [
              "Flat 4",
              "Dyer route"
            ],
            "use": "home",
            "type": "physical",
            "postalCode": "BA1",
            "city": "Baileyville",
            "country": "United Kingdom"
          }
        ],
        "telecom": [
          {
            "system": "phone",
            "value": "01632960974"
          }
        ],
        "extension": [
          {
            "url": "http://hl7.org/fhir/StructureDefinition/patient-nationality",
            "valueCodeableConcept": {
              "coding": [
                {
                  "code": "GB",
                  "system": "http://hl7.org/fhir/ValueSet/country"
                }
              ]
            }
          }
        ],
        "text": {
          "status": "generated",
          "div": "<div xmlns=\"http://www.w3.org/1999/xhtml\"><table class=\"hl7__ips\"><tr><td>Roy Harrison</td><td>male</td><td>02-Oct-1969</td></tr></table></div>"
        },
        "gender": "male",
        "birthDate": "1969-10-02"
      }
    },
    {
      "fullUrl": "urn:uuid:f9cbe7e3-840c-4010-bfbc-5df0e2335318",
      "resource": {
        "resourceType": "ServiceRequest",
        "id": "f9cbe7e3-840c-4010-bfbc-5df0e2335318",
        "meta": {
          "profile": [
            "http://hl7.eu/fhir/laboratory/StructureDefinition/ServiceRequest-eu-lab"
          ]
        },
        "identifier": [
          {
            "system": "http://example.org",
            "value": "681083d5-9c21-408e-96cd-3c55b7daa83f"
          }
        ],
        "specimen": [
          {
            "reference": "urn:uuid:25b8c43f-20eb-4c8c-a593-baf351a67977"
          },
          {
            "reference": "urn:uuid:9ce8eb2c-e6a6-4356-b794-cbe2725a90b1"
          },
          {
            "reference": "urn:uuid:4cf8fe25-db1f-444d-9982-c3e97af10ef1"
          }
        ],
        "reasonCode": [
          {
            "coding": [
              {
                "code": "302870006",
                "system": "http://snomed.info/sct",
                "display": "Hypertriglyceridemia"
              }
            ]
          },
          {
            "coding": [
              {
                "code": "44054006",
                "system": "http://snomed.info/sct",
                "display": "Type 2 diabetes mellitus"
              }
            ]
          },
          {
            "coding": [
              {
                "code": "59621000",
                "system": "http://snomed.info/sct",
                "display": "Essential hypertension"
              }
            ]
          },
          {
            "coding": [
              {
                "code": "237602007",
                "system": "http://snomed.info/sct",
                "display": "Metabolic syndrome X"
              }
            ]
          },
          {
            "coding": [
              {
                "code": "271737000",
                "system": "http://snomed.info/sct",
                "display": "Anemia"
              }
            ]
          },
          {
            "coding": [
              {
                "code": "90560007",
                "system": "http://snomed.info/sct",
                "display": "Gout"
              }
            ]
          }
        ],
        "status": "active",
        "intent": "order",
        "code": {
          "coding": [
            {
              "code": "108252007",
              "system": "http://snomed.info/sct",
              "display": "Laboratory procedure"
            }
          ]
        },
        "subject": {
          "reference": "urn:uuid:5e673cfc-edb5-4812-9965-efbd07dcb4a2",
          "display": "Roy Harrison"
        },
        "requester": {
          "reference": "urn:uuid:14513ef4-89f6-45bf-8de5-af6c14c2a331"
        }
      }
    },
    {
      "fullUrl": "urn:uuid:14513ef4-89f6-45bf-8de5-af6c14c2a331",
      "resource": {
        "resourceType": "PractitionerRole",
        "id": "14513ef4-89f6-45bf-8de5-af6c14c2a331",
        "meta": {
          "profile": [
            "http://hl7.eu/fhir/base/StructureDefinition/practitionerRole-eu"
          ]
        },
        "text": {
          "status": "generated",
          "div": "<div xmlns=\"http://www.w3.org/1999/xhtml\">Provider Role Id: 14513ef4-89f6-45bf-8de5-af6c14c2a331</div>"
        },
        "organization": {
          "reference": "urn:uuid:046ac2e0-0c05-463b-91a1-c2f61e7f60f3"
        }
      }
    },
    {
      "fullUrl": "urn:uuid:046ac2e0-0c05-463b-91a1-c2f61e7f60f3",
      "resource": {
        "resourceType": "Organization",
        "id": "046ac2e0-0c05-463b-91a1-c2f61e7f60f3",
        "meta": {
          "profile": [
            "http://hl7.eu/fhir/base/StructureDefinition/organization-eu"
          ]
        },
        "identifier": [
          {
            "assigner": {
              "display": "HL7 Europe"
            },
            "system": "urn:oid:2.16.840.1.113883.2.51.999",
            "value": "229a0c4b-ff39-4e7b-b929-dab036450d6f"
          }
        ],
        "address": [
          {
            "city": "London",
            "postalCode": "SE1 7",
            "country": "United Kingdom"
          }
        ],
        "text": {
          "status": "generated",
          "div": "<div xmlns=\"http://www.w3.org/1999/xhtml\">Provider Organization: Evelina Children&#039;s Hospital</div>"
        },
        "name": "Evelina Children&#039;s Hospital"
      }
    },
    {
      "fullUrl": "urn:uuid:25b8c43f-20eb-4c8c-a593-baf351a67977",
      "resource": {
        "resourceType": "Specimen",
        "id": "25b8c43f-20eb-4c8c-a593-baf351a67977",
        "meta": {
          "profile": [
            "http://hl7.eu/fhir/laboratory/StructureDefinition/Specimen-eu-lab"
          ]
        },
        "collection": {
          "collectedDateTime": "2019-03-19"
        },
        "text": {
          "status": "generated",
          "div": "<div xmlns=\"http://www.w3.org/1999/xhtml\"><table class=\"hl7__eu__lab__report\"><tr><th>Specimen</th><th>Collection Date</th></tr><tr><td>Whole blood specimen (specimen)</td><td><span class=\"nb\">19-Mar-2019</span></td></tr></table></div>"
        },
        "type": {
          "coding": [
            {
              "code": "258580003",
              "system": "http://snomed.info/sct",
              "display": "Whole blood specimen (specimen)"
            }
          ]
        }
      }
    },
    {
      "fullUrl": "urn:uuid:9ce8eb2c-e6a6-4356-b794-cbe2725a90b1",
      "resource": {
        "resourceType": "Specimen",
        "id": "9ce8eb2c-e6a6-4356-b794-cbe2725a90b1",
        "meta": {
          "profile": [
            "http://hl7.eu/fhir/laboratory/StructureDefinition/Specimen-eu-lab"
          ]
        },
        "collection": {
          "collectedDateTime": "2019-03-19"
        },
        "text": {
          "status": "generated",
          "div": "<div xmlns=\"http://www.w3.org/1999/xhtml\"><table class=\"hl7__eu__lab__report\"><tr><th>Specimen</th><th>Collection Date</th></tr><tr><td>Acellular blood (serum or plasma) specimen</td><td><span class=\"nb\">19-Mar-2019</span></td></tr></table></div>"
        },
        "type": {
          "coding": [
            {
              "code": "122592007",
              "system": "http://snomed.info/sct",
              "display": "Acellular blood (serum or plasma) specimen"
            }
          ]
        }
      }
    },
    {
      "fullUrl": "urn:uuid:4cf8fe25-db1f-444d-9982-c3e97af10ef1",
      "resource": {
        "resourceType": "Specimen",
        "id": "4cf8fe25-db1f-444d-9982-c3e97af10ef1",
        "meta": {
          "profile": [
            "http://hl7.eu/fhir/laboratory/StructureDefinition/Specimen-eu-lab"
          ]
        },
        "collection": {
          "collectedDateTime": "2019-03-19"
        },
        "text": {
          "status": "generated",
          "div": "<div xmlns=\"http://www.w3.org/1999/xhtml\"><table class=\"hl7__eu__lab__report\"><tr><th>Specimen</th><th>Collection Date</th></tr><tr><td>Urine specimen</td><td><span class=\"nb\">19-Mar-2019</span></td></tr></table></div>"
        },
        "type": {
          "coding": [
            {
              "code": "122575003",
              "system": "http://snomed.info/sct",
              "display": "Urine specimen"
            }
          ]
        }
      }
    },
    {
      "fullUrl": "urn:uuid:6bea4a2b-e7a1-4932-a2d0-cb7b2bf0fa15",
      "resource": {
        "resourceType": "Observation",
        "id": "6bea4a2b-e7a1-4932-a2d0-cb7b2bf0fa15",
        "meta": {
          "profile": [
            "http://hl7.eu/fhir/laboratory/StructureDefinition/Observation-resultslab-eu-lab"
          ]
        },
        "performer": [
          {
            "display": "The Central European Lab"
          }
        ],
        "category": [
          {
            "coding": [
              {
                "system": "http://terminology.hl7.org/CodeSystem/observation-category",
                "code": "laboratory"
              }
            ]
          }
        ],
        "code": {
          "coding": [
            {
              "code": "4548-4",
              "system": "http://loinc.org",
              "display": "Hemoglobin A1c/Hemoglobin.total in Blood"
            }
          ],
          "text": "Hemoglobin A1c/Hemoglobin.total in Blood"
        },
        "valueQuantity": {
          "system": "http://unitsofmeasure.org",
          "value": 7,
          "unit": "%",
          "code": "%"
        },
        "referenceRange": [
          {
            "low": {
              "value": 4.6,
              "code": "%",
              "system": "http://unitsofmeasure.org"
            }
          },
          {
            "high": {
              "value": 6,
              "code": "%",
              "system": "http://unitsofmeasure.org"
            }
          }
        ],
        "interpretation": [
          {
            "coding": [
              {
                "code": "H",
                "system": "http://terminology.hl7.org/CodeSystem/v3-ObservationInterpretation",
                "display": "High"
              }
            ]
          }
        ],
        "text": {
          "status": "generated",
          "div": "<div xmlns=\"http://www.w3.org/1999/xhtml\"><table class=\"hl7__eu__lab__report\"><tr><th>Test</th><th>19-Mar-2019</th><th>Reference&#xA0;Range</th><th>Unit</th></tr><tr><td>Hemoglobin A1c/Hemoglobin.total in Blood</td><td>7.0</td><td>4.6 - 6</td><td>H</td><td>%</td></tr></table></div>"
        },
        "status": "final",
        "subject": {
          "reference": "urn:uuid:5e673cfc-edb5-4812-9965-efbd07dcb4a2",
          "display": "Roy Harrison"
        },
        "effectiveDateTime": "2019-03-19T02:49:43Z",
        "specimen": {
          "reference": "urn:uuid:25b8c43f-20eb-4c8c-a593-baf351a67977"
        }
      }
    },
    {
      "fullUrl": "urn:uuid:7ca2bd7a-3de5-480e-9407-3e37b104d66c",
      "resource": {
        "resourceType": "Observation",
        "id": "7ca2bd7a-3de5-480e-9407-3e37b104d66c",
        "meta": {
          "profile": [
            "http://hl7.eu/fhir/laboratory/StructureDefinition/Observation-resultslab-eu-lab"
          ]
        },
        "performer": [
          {
            "display": "The Central European Lab"
          }
        ],
        "category": [
          {
            "coding": [
              {
                "system": "http://terminology.hl7.org/CodeSystem/observation-category",
                "code": "laboratory"
              }
            ]
          }
        ],
        "code": {
          "coding": [
            {
              "code": "2339-0",
              "system": "http://loinc.org",
              "display": "Glucose [Mass/volume] in Blood"
            }
          ],
          "text": "Glucose [Mass/volume] in Blood"
        },
        "valueQuantity": {
          "system": "http://unitsofmeasure.org",
          "value": 100.5,
          "unit": "mg/dL",
          "code": "mg/dL"
        },
        "referenceRange": [
          {
            "low": {
              "value": 70,
              "code": "mg/dL",
              "system": "http://unitsofmeasure.org"
            }
          },
          {
            "high": {
              "value": 99,
              "code": "mg/dL",
              "system": "http://unitsofmeasure.org"
            }
          }
        ],
        "interpretation": [
          {
            "coding": [
              {
                "code": "H",
                "system": "http://terminology.hl7.org/CodeSystem/v3-ObservationInterpretation",
                "display": "High"
              }
            ]
          }
        ],
        "text": {
          "status": "generated",
          "div": "<div xmlns=\"http://www.w3.org/1999/xhtml\"><table class=\"hl7__eu__lab__report\"><tr><th>Test</th><th>19-Mar-2019</th><th>Reference&#xA0;Range</th><th>Unit</th></tr><tr><td>Glucose [Mass/volume] in Blood</td><td>100.5</td><td>70 - 99</td><td>H</td><td>mg/dL</td></tr></table></div>"
        },
        "status": "final",
        "subject": {
          "reference": "urn:uuid:5e673cfc-edb5-4812-9965-efbd07dcb4a2",
          "display": "Roy Harrison"
        },
        "effectiveDateTime": "2019-03-19T02:49:43Z",
        "specimen": {
          "reference": "urn:uuid:25b8c43f-20eb-4c8c-a593-baf351a67977"
        }
      }
    },
    {
      "fullUrl": "urn:uuid:0a0e32df-ce14-4877-a877-db3f8e388b60",
      "resource": {
        "resourceType": "Observation",
        "id": "0a0e32df-ce14-4877-a877-db3f8e388b60",
        "meta": {
          "profile": [
            "http://hl7.eu/fhir/laboratory/StructureDefinition/Observation-resultslab-eu-lab"
          ]
        },
        "performer": [
          {
            "display": "The Central European Lab"
          }
        ],
        "category": [
          {
            "coding": [
              {
                "system": "http://terminology.hl7.org/CodeSystem/observation-category",
                "code": "laboratory"
              }
            ]
          }
        ],
        "code": {
          "coding": [
            {
              "code": "6299-2",
              "system": "http://loinc.org",
              "display": "Urea nitrogen [Mass/volume] in Blood"
            }
          ],
          "text": "Urea nitrogen [Mass/volume] in Blood"
        },
        "valueQuantity": {
          "system": "http://unitsofmeasure.org",
          "value": 14.2,
          "unit": "mg/dL",
          "code": "mg/dL"
        },
        "referenceRange": [
          {
            "low": {
              "value": 7,
              "code": "mg/dL",
              "system": "http://unitsofmeasure.org"
            }
          },
          {
            "high": {
              "value": 50,
              "code": "mg/dL",
              "system": "http://unitsofmeasure.org"
            }
          }
        ],
        "text": {
          "status": "generated",
          "div": "<div xmlns=\"http://www.w3.org/1999/xhtml\"><table class=\"hl7__eu__lab__report\"><tr><th>Test</th><th>19-Mar-2019</th><th>Reference&#xA0;Range</th><th>Unit</th></tr><tr><td>Urea nitrogen [Mass/volume] in Blood</td><td>14.2</td><td>7 - 50</td><td></td><td>mg/dL</td></tr></table></div>"
        },
        "status": "final",
        "subject": {
          "reference": "urn:uuid:5e673cfc-edb5-4812-9965-efbd07dcb4a2",
          "display": "Roy Harrison"
        },
        "effectiveDateTime": "2019-03-19T02:49:43Z",
        "specimen": {
          "reference": "urn:uuid:25b8c43f-20eb-4c8c-a593-baf351a67977"
        }
      }
    },
    {
      "fullUrl": "urn:uuid:0ace5436-9149-48d8-8618-e6c7123ed23b",
      "resource": {
        "resourceType": "Observation",
        "id": "0ace5436-9149-48d8-8618-e6c7123ed23b",
        "meta": {
          "profile": [
            "http://hl7.eu/fhir/laboratory/StructureDefinition/Observation-resultslab-eu-lab"
          ]
        },
        "performer": [
          {
            "display": "The Central European Lab"
          }
        ],
        "category": [
          {
            "coding": [
              {
                "system": "http://terminology.hl7.org/CodeSystem/observation-category",
                "code": "laboratory"
              }
            ]
          }
        ],
        "code": {
          "coding": [
            {
              "code": "38483-4",
              "system": "http://loinc.org",
              "display": "Creatinine [Mass/volume] in Blood"
            }
          ],
          "text": "Creatinine [Mass/volume] in Blood"
        },
        "valueQuantity": {
          "system": "http://unitsofmeasure.org",
          "value": 1.1,
          "unit": "mg/dL",
          "code": "mg/dL"
        },
        "referenceRange": [
          {
            "low": {
              "value": 0.9,
              "code": "mg/dL",
              "system": "http://unitsofmeasure.org"
            }
          },
          {
            "high": {
              "value": 1.3,
              "code": "mg/dL",
              "system": "http://unitsofmeasure.org"
            }
          }
        ],
        "text": {
          "status": "generated",
          "div": "<div xmlns=\"http://www.w3.org/1999/xhtml\"><table class=\"hl7__eu__lab__report\"><tr><th>Test</th><th>19-Mar-2019</th><th>Reference&#xA0;Range</th><th>Unit</th></tr><tr><td>Creatinine [Mass/volume] in Blood</td><td>1.1</td><td>0.9 - 1.3</td><td></td><td>mg/dL</td></tr></table></div>"
        },
        "status": "final",
        "subject": {
          "reference": "urn:uuid:5e673cfc-edb5-4812-9965-efbd07dcb4a2",
          "display": "Roy Harrison"
        },
        "effectiveDateTime": "2019-03-19T02:49:43Z",
        "specimen": {
          "reference": "urn:uuid:25b8c43f-20eb-4c8c-a593-baf351a67977"
        }
      }
    },
    {
      "fullUrl": "urn:uuid:e3f355fa-604c-4099-a1a4-19abf6a30dbb",
      "resource": {
        "resourceType": "Observation",
        "id": "e3f355fa-604c-4099-a1a4-19abf6a30dbb",
        "meta": {
          "profile": [
            "http://hl7.eu/fhir/laboratory/StructureDefinition/Observation-resultslab-eu-lab"
          ]
        },
        "performer": [
          {
            "display": "The Central European Lab"
          }
        ],
        "category": [
          {
            "coding": [
              {
                "system": "http://terminology.hl7.org/CodeSystem/observation-category",
                "code": "laboratory"
              }
            ]
          }
        ],
        "code": {
          "coding": [
            {
              "code": "49765-1",
              "system": "http://loinc.org",
              "display": "Calcium [Mass/volume] in Blood"
            }
          ],
          "text": "Calcium [Mass/volume] in Blood"
        },
        "valueQuantity": {
          "system": "http://unitsofmeasure.org",
          "value": 9.6,
          "unit": "mg/dL",
          "code": "mg/dL"
        },
        "referenceRange": [
          {
            "low": {
              "value": 8.5,
              "code": "mg/dL",
              "system": "http://unitsofmeasure.org"
            }
          },
          {
            "high": {
              "value": 10.5,
              "code": "mg/dL",
              "system": "http://unitsofmeasure.org"
            }
          }
        ],
        "text": {
          "status": "generated",
          "div": "<div xmlns=\"http://www.w3.org/1999/xhtml\"><table class=\"hl7__eu__lab__report\"><tr><th>Test</th><th>19-Mar-2019</th><th>Reference&#xA0;Range</th><th>Unit</th></tr><tr><td>Calcium [Mass/volume] in Blood</td><td>9.6</td><td>8.5 - 10.5</td><td></td><td>mg/dL</td></tr></table></div>"
        },
        "status": "final",
        "subject": {
          "reference": "urn:uuid:5e673cfc-edb5-4812-9965-efbd07dcb4a2",
          "display": "Roy Harrison"
        },
        "effectiveDateTime": "2019-03-19T02:49:43Z",
        "specimen": {
          "reference": "urn:uuid:25b8c43f-20eb-4c8c-a593-baf351a67977"
        }
      }
    },
    {
      "fullUrl": "urn:uuid:66ab74c4-bc62-4375-9f53-b58cda703882",
      "resource": {
        "resourceType": "Observation",
        "id": "66ab74c4-bc62-4375-9f53-b58cda703882",
        "meta": {
          "profile": [
            "http://hl7.eu/fhir/laboratory/StructureDefinition/Observation-resultslab-eu-lab"
          ]
        },
        "performer": [
          {
            "display": "The Central European Lab"
          }
        ],
        "category": [
          {
            "coding": [
              {
                "system": "http://terminology.hl7.org/CodeSystem/observation-category",
                "code": "laboratory"
              }
            ]
          }
        ],
        "code": {
          "coding": [
            {
              "code": "2947-0",
              "system": "http://loinc.org",
              "display": "Sodium [Moles/volume] in Blood"
            }
          ],
          "text": "Sodium [Moles/volume] in Blood"
        },
        "valueQuantity": {
          "system": "http://unitsofmeasure.org",
          "value": 136.8,
          "unit": "mmol/L",
          "code": "mmol/L"
        },
        "referenceRange": [
          {
            "low": {
              "value": 135,
              "code": "mmol/L",
              "system": "http://unitsofmeasure.org"
            }
          },
          {
            "high": {
              "value": 145,
              "code": "mmol/L",
              "system": "http://unitsofmeasure.org"
            }
          }
        ],
        "text": {
          "status": "generated",
          "div": "<div xmlns=\"http://www.w3.org/1999/xhtml\"><table class=\"hl7__eu__lab__report\"><tr><th>Test</th><th>19-Mar-2019</th><th>Reference&#xA0;Range</th><th>Unit</th></tr><tr><td>Sodium [Moles/volume] in Blood</td><td>136.8</td><td>135 - 145</td><td></td><td>mmol/L</td></tr></table></div>"
        },
        "status": "final",
        "subject": {
          "reference": "urn:uuid:5e673cfc-edb5-4812-9965-efbd07dcb4a2",
          "display": "Roy Harrison"
        },
        "effectiveDateTime": "2019-03-19T02:49:43Z",
        "specimen": {
          "reference": "urn:uuid:25b8c43f-20eb-4c8c-a593-baf351a67977"
        }
      }
    },
    {
      "fullUrl": "urn:uuid:dbcdd60d-3751-4b97-82f7-354dc17713a2",
      "resource": {
        "resourceType": "Observation",
        "id": "dbcdd60d-3751-4b97-82f7-354dc17713a2",
        "meta": {
          "profile": [
            "http://hl7.eu/fhir/laboratory/StructureDefinition/Observation-resultslab-eu-lab"
          ]
        },
        "performer": [
          {
            "display": "The Central European Lab"
          }
        ],
        "category": [
          {
            "coding": [
              {
                "system": "http://terminology.hl7.org/CodeSystem/observation-category",
                "code": "laboratory"
              }
            ]
          }
        ],
        "code": {
          "coding": [
            {
              "code": "6298-4",
              "system": "http://loinc.org",
              "display": "Potassium [Moles/volume] in Blood"
            }
          ],
          "text": "Potassium [Moles/volume] in Blood"
        },
        "valueQuantity": {
          "system": "http://unitsofmeasure.org",
          "value": 3.7,
          "unit": "mmol/L",
          "code": "mmol/L"
        },
        "referenceRange": [
          {
            "low": {
              "value": 3.5,
              "code": "mmol/L",
              "system": "http://unitsofmeasure.org"
            }
          },
          {
            "high": {
              "value": 5.1,
              "code": "mmol/L",
              "system": "http://unitsofmeasure.org"
            }
          }
        ],
        "text": {
          "status": "generated",
          "div": "<div xmlns=\"http://www.w3.org/1999/xhtml\"><table class=\"hl7__eu__lab__report\"><tr><th>Test</th><th>19-Mar-2019</th><th>Reference&#xA0;Range</th><th>Unit</th></tr><tr><td>Potassium [Moles/volume] in Blood</td><td>3.7</td><td>3.5 - 5.1</td><td></td><td>mmol/L</td></tr></table></div>"
        },
        "status": "final",
        "subject": {
          "reference": "urn:uuid:5e673cfc-edb5-4812-9965-efbd07dcb4a2",
          "display": "Roy Harrison"
        },
        "effectiveDateTime": "2019-03-19T02:49:43Z",
        "specimen": {
          "reference": "urn:uuid:25b8c43f-20eb-4c8c-a593-baf351a67977"
        }
      }
    },
    {
      "fullUrl": "urn:uuid:3e90376f-3d08-4b05-964f-e68cbdb5b7e6",
      "resource": {
        "resourceType": "Observation",
        "id": "3e90376f-3d08-4b05-964f-e68cbdb5b7e6",
        "meta": {
          "profile": [
            "http://hl7.eu/fhir/laboratory/StructureDefinition/Observation-resultslab-eu-lab"
          ]
        },
        "performer": [
          {
            "display": "The Central European Lab"
          }
        ],
        "category": [
          {
            "coding": [
              {
                "system": "http://terminology.hl7.org/CodeSystem/observation-category",
                "code": "laboratory"
              }
            ]
          }
        ],
        "code": {
          "coding": [
            {
              "code": "2069-3",
              "system": "http://loinc.org",
              "display": "Chloride [Moles/volume] in Blood"
            }
          ],
          "text": "Chloride [Moles/volume] in Blood"
        },
        "valueQuantity": {
          "system": "http://unitsofmeasure.org",
          "value": 106.8,
          "unit": "mmol/L",
          "code": "mmol/L"
        },
        "referenceRange": [
          {
            "low": {
              "value": 98,
              "code": "mmol/L",
              "system": "http://unitsofmeasure.org"
            }
          },
          {
            "high": {
              "value": 114,
              "code": "mmol/L",
              "system": "http://unitsofmeasure.org"
            }
          }
        ],
        "text": {
          "status": "generated",
          "div": "<div xmlns=\"http://www.w3.org/1999/xhtml\"><table class=\"hl7__eu__lab__report\"><tr><th>Test</th><th>19-Mar-2019</th><th>Reference&#xA0;Range</th><th>Unit</th></tr><tr><td>Chloride [Moles/volume] in Blood</td><td>106.8</td><td>98 - 114</td><td></td><td>mmol/L</td></tr></table></div>"
        },
        "status": "final",
        "subject": {
          "reference": "urn:uuid:5e673cfc-edb5-4812-9965-efbd07dcb4a2",
          "display": "Roy Harrison"
        },
        "effectiveDateTime": "2019-03-19T02:49:43Z",
        "specimen": {
          "reference": "urn:uuid:25b8c43f-20eb-4c8c-a593-baf351a67977"
        }
      }
    },
    {
      "fullUrl": "urn:uuid:56867049-e920-4e1b-be4e-efc05801ad9a",
      "resource": {
        "resourceType": "Observation",
        "id": "56867049-e920-4e1b-be4e-efc05801ad9a",
        "meta": {
          "profile": [
            "http://hl7.eu/fhir/laboratory/StructureDefinition/Observation-resultslab-eu-lab"
          ]
        },
        "performer": [
          {
            "display": "The Central European Lab"
          }
        ],
        "category": [
          {
            "coding": [
              {
                "system": "http://terminology.hl7.org/CodeSystem/observation-category",
                "code": "laboratory"
              }
            ]
          }
        ],
        "code": {
          "coding": [
            {
              "code": "20565-8",
              "system": "http://loinc.org",
              "display": "Carbon dioxide, total [Moles/volume] in Blood"
            }
          ],
          "text": "Carbon dioxide, total [Moles/volume] in Blood"
        },
        "valueQuantity": {
          "system": "http://unitsofmeasure.org",
          "value": 28.4,
          "unit": "mmol/L",
          "code": "mmol/L"
        },
        "referenceRange": [
          {
            "low": {
              "value": 22,
              "code": "mmol/L",
              "system": "http://unitsofmeasure.org"
            }
          },
          {
            "high": {
              "value": 32,
              "code": "mmol/L",
              "system": "http://unitsofmeasure.org"
            }
          }
        ],
        "text": {
          "status": "generated",
          "div": "<div xmlns=\"http://www.w3.org/1999/xhtml\"><table class=\"hl7__eu__lab__report\"><tr><th>Test</th><th>19-Mar-2019</th><th>Reference&#xA0;Range</th><th>Unit</th></tr><tr><td>Carbon dioxide, total [Moles/volume] in Blood</td><td>28.4</td><td>22 - 32</td><td></td><td>mmol/L</td></tr></table></div>"
        },
        "status": "final",
        "subject": {
          "reference": "urn:uuid:5e673cfc-edb5-4812-9965-efbd07dcb4a2",
          "display": "Roy Harrison"
        },
        "effectiveDateTime": "2019-03-19T02:49:43Z",
        "specimen": {
          "reference": "urn:uuid:25b8c43f-20eb-4c8c-a593-baf351a67977"
        }
      }
    },
    {
      "fullUrl": "urn:uuid:86939551-2b11-4296-b1c1-e88558a352be",
      "resource": {
        "resourceType": "Observation",
        "id": "86939551-2b11-4296-b1c1-e88558a352be",
        "meta": {
          "profile": [
            "http://hl7.eu/fhir/laboratory/StructureDefinition/Observation-resultslab-eu-lab"
          ]
        },
        "performer": [
          {
            "display": "The Central European Lab"
          }
        ],
        "category": [
          {
            "coding": [
              {
                "system": "http://terminology.hl7.org/CodeSystem/observation-category",
                "code": "laboratory"
              }
            ]
          }
        ],
        "code": {
          "coding": [
            {
              "code": "2093-3",
              "system": "http://loinc.org",
              "display": "Cholesterol [Mass/volume] in Serum or Plasma"
            }
          ],
          "text": "Cholesterol [Mass/volume] in Serum or Plasma"
        },
        "valueQuantity": {
          "system": "http://unitsofmeasure.org",
          "value": 214.3,
          "unit": "mg/dL",
          "code": "mg/dL"
        },
        "referenceRange": [
          {
            "low": {
              "value": 125,
              "code": "mg/dL",
              "system": "http://unitsofmeasure.org"
            }
          },
          {
            "high": {
              "value": 200,
              "code": "mg/dL",
              "system": "http://unitsofmeasure.org"
            }
          }
        ],
        "interpretation": [
          {
            "coding": [
              {
                "code": "H",
                "system": "http://terminology.hl7.org/CodeSystem/v3-ObservationInterpretation",
                "display": "High"
              }
            ]
          }
        ],
        "text": {
          "status": "generated",
          "div": "<div xmlns=\"http://www.w3.org/1999/xhtml\"><table class=\"hl7__eu__lab__report\"><tr><th>Test</th><th>19-Mar-2019</th><th>Reference&#xA0;Range</th><th>Unit</th></tr><tr><td>Cholesterol [Mass/volume] in Serum or Plasma</td><td>214.3</td><td>125 - 200</td><td>H</td><td>mg/dL</td></tr></table></div>"
        },
        "status": "final",
        "subject": {
          "reference": "urn:uuid:5e673cfc-edb5-4812-9965-efbd07dcb4a2",
          "display": "Roy Harrison"
        },
        "effectiveDateTime": "2019-03-19T02:49:43Z",
        "specimen": {
          "reference": "urn:uuid:9ce8eb2c-e6a6-4356-b794-cbe2725a90b1"
        }
      }
    },
    {
      "fullUrl": "urn:uuid:315abf73-2dab-47d4-ae6c-ed8681f2956c",
      "resource": {
        "resourceType": "Observation",
        "id": "315abf73-2dab-47d4-ae6c-ed8681f2956c",
        "meta": {
          "profile": [
            "http://hl7.eu/fhir/laboratory/StructureDefinition/Observation-resultslab-eu-lab"
          ]
        },
        "performer": [
          {
            "display": "The Central European Lab"
          }
        ],
        "category": [
          {
            "coding": [
              {
                "system": "http://terminology.hl7.org/CodeSystem/observation-category",
                "code": "laboratory"
              }
            ]
          }
        ],
        "code": {
          "coding": [
            {
              "code": "2571-8",
              "system": "http://loinc.org",
              "display": "Triglyceride [Mass/volume] in Serum or Plasma"
            }
          ],
          "text": "Triglyceride [Mass/volume] in Serum or Plasma"
        },
        "valueQuantity": {
          "system": "http://unitsofmeasure.org",
          "value": 198.2,
          "unit": "mg/dL",
          "code": "mg/dL"
        },
        "referenceRange": [
          {
            "low": {
              "value": 0,
              "code": "mg/dL",
              "system": "http://unitsofmeasure.org"
            }
          },
          {
            "high": {
              "value": 150,
              "code": "mg/dL",
              "system": "http://unitsofmeasure.org"
            }
          }
        ],
        "interpretation": [
          {
            "coding": [
              {
                "code": "H",
                "system": "http://terminology.hl7.org/CodeSystem/v3-ObservationInterpretation",
                "display": "High"
              }
            ]
          }
        ],
        "text": {
          "status": "generated",
          "div": "<div xmlns=\"http://www.w3.org/1999/xhtml\"><table class=\"hl7__eu__lab__report\"><tr><th>Test</th><th>19-Mar-2019</th><th>Reference&#xA0;Range</th><th>Unit</th></tr><tr><td>Triglyceride [Mass/volume] in Serum or Plasma</td><td>198.2</td><td>0 - 150</td><td>H</td><td>mg/dL</td></tr></table></div>"
        },
        "status": "final",
        "subject": {
          "reference": "urn:uuid:5e673cfc-edb5-4812-9965-efbd07dcb4a2",
          "display": "Roy Harrison"
        },
        "effectiveDateTime": "2019-03-19T02:49:43Z",
        "specimen": {
          "reference": "urn:uuid:9ce8eb2c-e6a6-4356-b794-cbe2725a90b1"
        }
      }
    },
    {
      "fullUrl": "urn:uuid:8a4de73c-c8ce-49fe-b63d-2fcdfc1fe3a7",
      "resource": {
        "resourceType": "Observation",
        "id": "8a4de73c-c8ce-49fe-b63d-2fcdfc1fe3a7",
        "meta": {
          "profile": [
            "http://hl7.eu/fhir/laboratory/StructureDefinition/Observation-resultslab-eu-lab"
          ]
        },
        "performer": [
          {
            "display": "The Central European Lab"
          }
        ],
        "category": [
          {
            "coding": [
              {
                "system": "http://terminology.hl7.org/CodeSystem/observation-category",
                "code": "laboratory"
              }
            ]
          }
        ],
        "code": {
          "coding": [
            {
              "code": "18262-6",
              "system": "http://loinc.org",
              "display": "Cholesterol in LDL [Mass/volume] in Serum or Plasma by Direct assay"
            }
          ],
          "text": "Cholesterol in LDL [Mass/volume] in Serum or Plasma by Direct assay"
        },
        "valueQuantity": {
          "system": "http://unitsofmeasure.org",
          "value": 118.4,
          "unit": "mg/dL",
          "code": "mg/dL"
        },
        "referenceRange": [
          {
            "low": {
              "value": 0,
              "code": "mg/dL",
              "system": "http://unitsofmeasure.org"
            }
          },
          {
            "high": {
              "value": 130,
              "code": "mg/dL",
              "system": "http://unitsofmeasure.org"
            }
          }
        ],
        "text": {
          "status": "generated",
          "div": "<div xmlns=\"http://www.w3.org/1999/xhtml\"><table class=\"hl7__eu__lab__report\"><tr><th>Test</th><th>19-Mar-2019</th><th>Reference&#xA0;Range</th><th>Unit</th></tr><tr><td>Cholesterol in LDL [Mass/volume] in Serum or Plasma by Direct assay</td><td>118.4</td><td>0 - 130</td><td></td><td>mg/dL</td></tr></table></div>"
        },
        "status": "final",
        "subject": {
          "reference": "urn:uuid:5e673cfc-edb5-4812-9965-efbd07dcb4a2",
          "display": "Roy Harrison"
        },
        "effectiveDateTime": "2019-03-19T02:49:43Z",
        "specimen": {
          "reference": "urn:uuid:9ce8eb2c-e6a6-4356-b794-cbe2725a90b1"
        }
      }
    },
    {
      "fullUrl": "urn:uuid:ddc46c15-5582-4fcf-a648-5f7b6514381f",
      "resource": {
        "resourceType": "Observation",
        "id": "ddc46c15-5582-4fcf-a648-5f7b6514381f",
        "meta": {
          "profile": [
            "http://hl7.eu/fhir/laboratory/StructureDefinition/Observation-resultslab-eu-lab"
          ]
        },
        "performer": [
          {
            "display": "The Central European Lab"
          }
        ],
        "category": [
          {
            "coding": [
              {
                "system": "http://terminology.hl7.org/CodeSystem/observation-category",
                "code": "laboratory"
              }
            ]
          }
        ],
        "code": {
          "coding": [
            {
              "code": "2085-9",
              "system": "http://loinc.org",
              "display": "Cholesterol in HDL [Mass/volume] in Serum or Plasma"
            }
          ],
          "text": "Cholesterol in HDL [Mass/volume] in Serum or Plasma"
        },
        "valueQuantity": {
          "system": "http://unitsofmeasure.org",
          "value": 56.2,
          "unit": "mg/dL",
          "code": "mg/dL"
        },
        "referenceRange": [
          {
            "low": {
              "value": 40,
              "code": "mg/dL",
              "system": "http://unitsofmeasure.org"
            }
          },
          {
            "high": {
              "value": 60,
              "code": "mg/dL",
              "system": "http://unitsofmeasure.org"
            }
          }
        ],
        "text": {
          "status": "generated",
          "div": "<div xmlns=\"http://www.w3.org/1999/xhtml\"><table class=\"hl7__eu__lab__report\"><tr><th>Test</th><th>19-Mar-2019</th><th>Reference&#xA0;Range</th><th>Unit</th></tr><tr><td>Cholesterol in HDL [Mass/volume] in Serum or Plasma</td><td>56.2</td><td>40 - 60</td><td></td><td>mg/dL</td></tr></table></div>"
        },
        "status": "final",
        "subject": {
          "reference": "urn:uuid:5e673cfc-edb5-4812-9965-efbd07dcb4a2",
          "display": "Roy Harrison"
        },
        "effectiveDateTime": "2019-03-19T02:49:43Z",
        "specimen": {
          "reference": "urn:uuid:9ce8eb2c-e6a6-4356-b794-cbe2725a90b1"
        }
      }
    },
    {
      "fullUrl": "urn:uuid:47404d89-0f90-4aa8-ae6b-67a1b5c40d23",
      "resource": {
        "resourceType": "Observation",
        "id": "47404d89-0f90-4aa8-ae6b-67a1b5c40d23",
        "meta": {
          "profile": [
            "http://hl7.eu/fhir/laboratory/StructureDefinition/Observation-resultslab-eu-lab"
          ]
        },
        "performer": [
          {
            "display": "The Central European Lab"
          }
        ],
        "category": [
          {
            "coding": [
              {
                "system": "http://terminology.hl7.org/CodeSystem/observation-category",
                "code": "laboratory"
              }
            ]
          }
        ],
        "code": {
          "coding": [
            {
              "code": "14959-1",
              "system": "http://loinc.org",
              "display": "Microalbumin/Creatinine [Mass Ratio] in Urine"
            }
          ],
          "text": "Microalbumin/Creatinine [Mass Ratio] in Urine"
        },
        "valueQuantity": {
          "system": "http://unitsofmeasure.org",
          "value": 3.7,
          "unit": "mg/g",
          "code": "mg/g"
        },
        "referenceRange": [
          {
            "low": {
              "value": 0,
              "code": "mg/g",
              "system": "http://unitsofmeasure.org"
            }
          },
          {
            "high": {
              "value": 30,
              "code": "mg/g",
              "system": "http://unitsofmeasure.org"
            }
          }
        ],
        "text": {
          "status": "generated",
          "div": "<div xmlns=\"http://www.w3.org/1999/xhtml\"><table class=\"hl7__eu__lab__report\"><tr><th>Test</th><th>19-Mar-2019</th><th>Reference&#xA0;Range</th><th>Unit</th></tr><tr><td>Microalbumin/Creatinine [Mass Ratio] in Urine</td><td>3.7</td><td>0 - 30</td><td></td><td>mg/g</td></tr></table></div>"
        },
        "status": "final",
        "subject": {
          "reference": "urn:uuid:5e673cfc-edb5-4812-9965-efbd07dcb4a2",
          "display": "Roy Harrison"
        },
        "effectiveDateTime": "2019-03-19T02:49:43Z",
        "specimen": {
          "reference": "urn:uuid:4cf8fe25-db1f-444d-9982-c3e97af10ef1"
        }
      }
    },
    {
      "fullUrl": "urn:uuid:c111232b-b1b2-4348-a95a-cbf30e756e92",
      "resource": {
        "resourceType": "Device",
        "id": "c111232b-b1b2-4348-a95a-cbf30e756e92",
        "deviceName": [
          {
            "name": "SYNDERAI Synthetic Generator",
            "type": "manufacturer-name"
          }
        ],
        "version": [
          {
            "value": "5.0"
          }
        ],
        "text": {
          "status": "generated",
          "div": "<div xmlns=\"http://www.w3.org/1999/xhtml\">SYNDERAI Synthetic Generator v5.0</div>"
        },
        "status": "active\"",
        "distinctIdentifier": "synderai-generator-50",
        "manufacturer": "SYNDERAI Project"
      }
    },
    {
      "fullUrl": "urn:uuid:881b4c25-7852-4280-a0b0-9421cb7a87ab",
      "resource": {
        "resourceType": "Provenance",
        "id": "881b4c25-7852-4280-a0b0-9421cb7a87ab",
        "target": [
          {
            "reference": "Patient/5e673cfc-edb5-4812-9965-efbd07dcb4a2"
          },
          {
            "reference": "Bundle/421913a2-2b16-4edc-94b8-5e4827ee3ad6"
          },
          {
            "reference": "Composition/e1d6a6d5-d2a3-450f-bbbc-ad8d5dea8061"
          },
          {
            "reference": "PractitionerRole/19af821f-fcb9-4518-8cc2-4d38fdf02b6d"
          },
          {
            "reference": "Practitioner/7bf57519-e6ed-4e8e-a829-a328a1c156cf"
          },
          {
            "reference": "PractitionerRole/14513ef4-89f6-45bf-8de5-af6c14c2a331"
          },
          {
            "reference": "Organization/046ac2e0-0c05-463b-91a1-c2f61e7f60f3"
          }
        ],
        "activity": {
          "text": "Synthetic Example Data Generation"
        },
        "policy": [
          "https://synderai.net/synderai-synthetic-data-policy"
        ],
        "agent": [
          {
            "type": {
              "text": "author"
            },
            "who": {
              "reference": "Device/c111232b-b1b2-4348-a95a-cbf30e756e92"
            }
          }
        ],
        "reason": [
          {
            "text": "Interoperability Testing and Training (non-clinical use)"
          }
        ],
        "text": {
          "status": "generated",
          "div": "<div xmlns=\"http://www.w3.org/1999/xhtml\">Provenance for SYNDERAI Synthetic Example Data Resource</div>"
        },
        "recorded": "2019-03-19T03:49:43Z"
      }
    },
    {
      "fullUrl": "urn:uuid:19af821f-fcb9-4518-8cc2-4d38fdf02b6d",
      "resource": {
        "resourceType": "PractitionerRole",
        "id": "19af821f-fcb9-4518-8cc2-4d38fdf02b6d",
        "meta": {
          "profile": [
            "http://hl7.eu/fhir/base/StructureDefinition/practitionerRole-eu"
          ]
        },
        "text": {
          "status": "generated",
          "div": "<div xmlns=\"http://www.w3.org/1999/xhtml\">Laboratory Role Id: 19af821f-fcb9-4518-8cc2-4d38fdf02b6d</div>"
        },
        "practitioner": {
          "reference": "urn:uuid:7bf57519-e6ed-4e8e-a829-a328a1c156cf"
        }
      }
    },
    {
      "fullUrl": "urn:uuid:7bf57519-e6ed-4e8e-a829-a328a1c156cf",
      "resource": {
        "resourceType": "Practitioner",
        "id": "7bf57519-e6ed-4e8e-a829-a328a1c156cf",
        "meta": {
          "profile": [
            "http://hl7.eu/fhir/base/StructureDefinition/practitioner-eu"
          ]
        },
        "identifier": [
          {
            "assigner": {
              "display": "HL7 Europe"
            },
            "system": "urn:oid:2.16.840.1.113883.2.51.999",
            "value": "2ba602d8-f6d8-49af-a557-a024e72045da"
          }
        ],
        "name": [
          {
            "prefix": [
              "dr"
            ],
            "given": [
              "Ex"
            ],
            "family": "Ample"
          }
        ],
        "address": [
          {
            "line": [
              "Laboratoire Central Europenne",
              "Boulevard du Jardin Botanique 32"
            ],
            "postalCode": "1000",
            "city": "Brussels",
            "country": "Belgium"
          }
        ],
        "text": {
          "status": "generated",
          "div": "<div xmlns=\"http://www.w3.org/1999/xhtml\">Laboratory: Laboratoire Central Europenne, 1000 Brussels, Belgium</div>"
        }
      }
    }
  ],
  "type": "document",
  "timestamp": "2019-03-19T03:49:43Z"
}
