{
  "resourceType": "Bundle",
  "id": "dfa92aa6-27b1-41f7-816a-b5ed7ee7b744",
  "meta": {
    "profile": [
      "http://hl7.eu/fhir/laboratory/StructureDefinition/Bundle-eu-lab"
    ]
  },
  "identifier": {
    "assigner": {
      "display": "HL7 Europe"
    },
    "system": "urn:oid:2.16.840.1.113883.2.51.999",
    "value": "d8856b4d-7dea-4d82-a513-3c44bacc7dcf"
  },
  "entry": [
    {
      "fullUrl": "urn:uuid:fe1407ec-23b0-4fd5-a86d-554e1b77eb04",
      "resource": {
        "resourceType": "Composition",
        "id": "fe1407ec-23b0-4fd5-a86d-554e1b77eb04",
        "meta": {
          "profile": [
            "http://hl7.eu/fhir/laboratory/StructureDefinition/Composition-eu-lab"
          ]
        },
        "identifier": {
          "assigner": {
            "display": "HL7 Europe"
          },
          "system": "urn:oid:2.16.840.1.113883.2.51.999",
          "value": "4e61fdd8-e669-48e9-b841-95682b562c4a"
        },
        "author": [
          {
            "reference": "urn:uuid:a76b77f0-c746-4a4d-8c74-f5a15d956423"
          }
        ],
        "category": [
          {
            "coding": [
              {
                "code": "26436-6",
                "system": "http://loinc.org",
                "display": "Laboratory studies (set)"
              }
            ]
          }
        ],
        "type": {
          "coding": [
            {
              "code": "11502-2",
              "system": "http://loinc.org",
              "display": "Laboratory report"
            }
          ],
          "text": "Laboratory Report"
        },
        "section": [
          {
            "code": {
              "coding": [
                {
                  "code": "26436-6",
                  "system": "http://loinc.org",
                  "display": "Laboratory studies (set)"
                }
              ],
              "text": "Laboratory studies"
            },
            "section": [
              {
                "code": {
                  "coding": [
                    {
                      "code": "$18719-5",
                      "system": "http://loinc.org",
                      "display": "Chemistry studies (set)"
                    }
                  ],
                  "text": "Chemistry"
                },
                "entry": [
                  {
                    "reference": "urn:uuid:2799068b-e80d-4cab-8c19-11fd00fc4b45"
                  },
                  {
                    "reference": "urn:uuid:1c413c7f-b1d1-4d49-8cbd-296237b56ff8"
                  },
                  {
                    "reference": "urn:uuid:1fbfba4b-c5c9-474b-8b48-0e8e555bbc02"
                  },
                  {
                    "reference": "urn:uuid:1da671cf-e1ca-4868-8636-6238c03c1064"
                  },
                  {
                    "reference": "urn:uuid:d8b9febc-3eb1-4397-ab1e-9fbdbbebebb1"
                  },
                  {
                    "reference": "urn:uuid:689ebfbe-8b2c-4305-9e14-a07256cba8ed"
                  },
                  {
                    "reference": "urn:uuid:35bc2638-7a18-4294-9df3-e6c4a288308d"
                  },
                  {
                    "reference": "urn:uuid:526ee22a-9fed-4389-a70f-9028b397606b"
                  },
                  {
                    "reference": "urn:uuid:ce21e370-d2e4-40d0-95d5-4969ccac8de5"
                  }
                ],
                "text": {
                  "status": "generated",
                  "div": "<div xmlns=\"http://www.w3.org/1999/xhtml\"><h3>Chemistry</h3><table class=\"hl7__eu__lab__report\"><thead><tr><th>Test</th><th>20-AUG-2018</th><th>Reference&#xA0;Range</th><th>Unit</th></tr></thead><tbody><tr><td>Hemoglobin A1c/Hemoglobin.total in Blood</td><td><strong>6.4 H</strong></td><td>4 - 6</td><td>%</td></tr><tr><td>Glucose [Mass/volume] in Blood</td><td>81.1</td><td>70 - 140</td><td>mg/dL</td></tr><tr><td>Urea nitrogen [Mass/volume] in Blood</td><td>17.6</td><td>7 - 20</td><td>mg/dL</td></tr><tr><td>Creatinine [Mass/volume] in Blood</td><td>0.9</td><td>0.9 - 1.3</td><td>mg/dL</td></tr><tr><td>Calcium [Mass/volume] in Blood</td><td>9.1</td><td>8.5 - 10.5</td><td>mg/dL</td></tr><tr><td>Sodium [Moles/volume] in Blood</td><td>140.5</td><td>135 - 145</td><td>mmol/L</td></tr><tr><td>Potassium [Moles/volume] in Blood</td><td>4.2</td><td>3.5 - 5</td><td>mmol/L</td></tr><tr><td>Chloride [Moles/volume] in Blood</td><td>103.0</td><td>98 - 110</td><td>mmol/L</td></tr><tr><td>Carbon dioxide, total [Moles/volume] in Blood</td><td><strong>20.0 L</strong></td><td>22 - 32</td><td>mmol/L</td></tr></tbody></table></div>"
                },
                "title": "Chemistry"
              }
            ],
            "title": "Laboratory Report"
          },
          {
            "text": {
              "status": "generated",
              "div": "<div xmlns=\"http://www.w3.org/1999/xhtml\"><h3>Annotation</h3><table class=\"hl7__eu__lab__report\"><tr><th>Conclusion and Recommendations based on this report and previous findings known to us</th></tr><tr><td>The patient shows mildly elevated HbA1c, indicating impaired glucose metabolism or possible prediabetes/diabetes, despite normal fasting glucose. Renal function, electrolytes, and calcium are within normal limits. Mildly decreased total CO₂ may suggest a tendency toward metabolic acidosis; clinical correlation is advised. No acute abnormalities detected. Recommend follow-up for glycemic control and assessment of acid-base status if clinically indicated.</td></tr></table></div>"
            },
            "code": {
              "coding": [
                {
                  "system": "http://loinc.org",
                  "code": "48767-8",
                  "display": "Annotation comment"
                }
              ]
            },
            "title": "Annotation comment"
          }
        ],
        "status": "final",
        "subject": {
          "reference": "urn:uuid:03699b4a-6c51-4c71-8119-15e1f2b888e6",
          "display": "Alessio Fanucci"
        },
        "date": "2018-08-20T09:49:06Z",
        "title": "Laboratory Report",
        "confidentiality": "N"
      }
    },
    {
      "fullUrl": "urn:uuid:56346f33-7ac3-4ede-8023-0f4fbba9c6ea",
      "resource": {
        "resourceType": "DiagnosticReport",
        "id": "56346f33-7ac3-4ede-8023-0f4fbba9c6ea",
        "meta": {
          "profile": [
            "http://hl7.eu/fhir/laboratory/StructureDefinition/DiagnosticReport-eu-lab"
          ]
        },
        "identifier": [
          {
            "assigner": {
              "display": "HL7 Europe"
            },
            "system": "urn:oid:2.16.840.1.113883.2.51.999",
            "value": "c3c33520-3b64-49c6-80e3-533d91a2e93e"
          }
        ],
        "extension": [
          {
            "url": "http://hl7.org/fhir/5.0/StructureDefinition/extension-DiagnosticReport.composition",
            "valueReference": {
              "reference": "urn:uuid:4e61fdd8-e669-48e9-b841-95682b562c4a"
            }
          }
        ],
        "category": [
          {
            "coding": [
              {
                "code": "26436-6",
                "system": "http://loinc.org",
                "display": "Laboratory studies (set)"
              }
            ]
          }
        ],
        "specimen": [
          {
            "reference": "urn:uuid:f3db7bd5-07c7-4604-a2d3-a6fb3ef4342e"
          }
        ],
        "result": [
          {
            "reference": "urn:uuid:2799068b-e80d-4cab-8c19-11fd00fc4b45"
          },
          {
            "reference": "urn:uuid:1c413c7f-b1d1-4d49-8cbd-296237b56ff8"
          },
          {
            "reference": "urn:uuid:1fbfba4b-c5c9-474b-8b48-0e8e555bbc02"
          },
          {
            "reference": "urn:uuid:1da671cf-e1ca-4868-8636-6238c03c1064"
          },
          {
            "reference": "urn:uuid:d8b9febc-3eb1-4397-ab1e-9fbdbbebebb1"
          },
          {
            "reference": "urn:uuid:689ebfbe-8b2c-4305-9e14-a07256cba8ed"
          },
          {
            "reference": "urn:uuid:35bc2638-7a18-4294-9df3-e6c4a288308d"
          },
          {
            "reference": "urn:uuid:526ee22a-9fed-4389-a70f-9028b397606b"
          },
          {
            "reference": "urn:uuid:ce21e370-d2e4-40d0-95d5-4969ccac8de5"
          }
        ],
        "status": "registered",
        "code": {
          "coding": [
            {
              "code": "11502-2",
              "system": "http://loinc.org",
              "display": "Laboratory report"
            }
          ]
        },
        "subject": {
          "reference": "urn:uuid:03699b4a-6c51-4c71-8119-15e1f2b888e6",
          "display": "Alessio Fanucci"
        }
      }
    },
    {
      "fullUrl": "urn:uuid:03699b4a-6c51-4c71-8119-15e1f2b888e6",
      "resource": {
        "resourceType": "Patient",
        "id": "03699b4a-6c51-4c71-8119-15e1f2b888e6",
        "meta": {
          "security": [
            {
              "system": "http://terminology.hl7.org/CodeSystem/v3-ActReason",
              "code": "HTEST"
            },
            {
              "system": "http://terminology.hl7.org/CodeSystem/v3-ActReason",
              "code": "TRAIN"
            }
          ],
          "tag": [
            {
              "system": "https://synderai.net/fhir/CodeSystem/tags",
              "code": "synthetic",
              "display": "SYNDERAI Synthetic data"
            }
          ],
          "profile": [
            "http://hl7.eu/fhir/base/StructureDefinition/patient-eu-core"
          ]
        },
        "identifier": [
          {
            "type": {
              "coding": [
                {
                  "code": "PT",
                  "system": "http://terminology.hl7.org/CodeSystem/v2-0203"
                }
              ]
            },
            "system": "http://ec.europa.eu/identifier/eci",
            "value": "4754-874768-3"
          },
          {
            "type": {
              "coding": [
                {
                  "code": "MR",
                  "system": "http://terminology.hl7.org/CodeSystem/v2-0203"
                }
              ]
            },
            "system": "http://local.setting.eu/identifier",
            "value": "4b888823-bdd8-59a3-b785-e7ba28e6a7b5"
          }
        ],
        "name": [
          {
            "family": "Fanucci"
          },
          {
            "given": [
              "Alessio"
            ]
          },
          {
            "text": "Alessio Fanucci"
          }
        ],
        "address": [
          {
            "line": [
              "Incrocio Combi, 822"
            ],
            "use": "home",
            "type": "physical",
            "postalCode": "33015",
            "city": "Moggio Udinese",
            "country": "Italy"
          }
        ],
        "telecom": [
          {
            "system": "phone",
            "value": "0125684636"
          }
        ],
        "extension": [
          {
            "url": "http://hl7.org/fhir/StructureDefinition/patient-nationality",
            "valueCodeableConcept": {
              "coding": [
                {
                  "code": "IT",
                  "system": "http://hl7.org/fhir/ValueSet/country"
                }
              ]
            }
          }
        ],
        "text": {
          "status": "generated",
          "div": "<div xmlns=\"http://www.w3.org/1999/xhtml\"><table class=\"hl7__ips\"><tr><td>Alessio Fanucci</td><td>male</td><td>12-Sep-1964</td></tr></table></div>"
        },
        "gender": "male",
        "birthDate": "1964-09-12"
      }
    },
    {
      "fullUrl": "urn:uuid:c5cabb3a-ec70-4f95-bc5c-58b792f942e8",
      "resource": {
        "resourceType": "ServiceRequest",
        "id": "c5cabb3a-ec70-4f95-bc5c-58b792f942e8",
        "meta": {
          "profile": [
            "http://hl7.eu/fhir/laboratory/StructureDefinition/ServiceRequest-eu-lab"
          ]
        },
        "identifier": [
          {
            "system": "http://example.org",
            "value": "03969c31-ed4c-473b-ac48-1bcef64a466b"
          }
        ],
        "specimen": [
          {
            "reference": "urn:uuid:f3db7bd5-07c7-4604-a2d3-a6fb3ef4342e"
          }
        ],
        "reasonCode": [
          {
            "coding": [
              {
                "code": "15777000",
                "system": "http://snomed.info/sct",
                "display": "Prediabetes"
              }
            ]
          },
          {
            "coding": [
              {
                "code": "271737000",
                "system": "http://snomed.info/sct",
                "display": "Anemia"
              }
            ]
          },
          {
            "coding": [
              {
                "code": "40055000",
                "system": "http://snomed.info/sct",
                "display": "Chronic sinusitis"
              }
            ]
          }
        ],
        "status": "active",
        "intent": "order",
        "code": {
          "coding": [
            {
              "code": "108252007",
              "system": "http://snomed.info/sct",
              "display": "Laboratory procedure"
            }
          ]
        },
        "subject": {
          "reference": "urn:uuid:03699b4a-6c51-4c71-8119-15e1f2b888e6",
          "display": "Alessio Fanucci"
        },
        "requester": {
          "reference": "urn:uuid:bdffdb6a-5ca4-45ee-94ed-a6a21296b6ef"
        }
      }
    },
    {
      "fullUrl": "urn:uuid:bdffdb6a-5ca4-45ee-94ed-a6a21296b6ef",
      "resource": {
        "resourceType": "PractitionerRole",
        "id": "bdffdb6a-5ca4-45ee-94ed-a6a21296b6ef",
        "meta": {
          "profile": [
            "http://hl7.eu/fhir/base/StructureDefinition/practitionerRole-eu"
          ]
        },
        "text": {
          "status": "generated",
          "div": "<div xmlns=\"http://www.w3.org/1999/xhtml\">Provider Role Id: bdffdb6a-5ca4-45ee-94ed-a6a21296b6ef</div>"
        },
        "organization": {
          "reference": "urn:uuid:708cc0a8-1a5b-4bdc-9752-20b973bafd0f"
        }
      }
    },
    {
      "fullUrl": "urn:uuid:708cc0a8-1a5b-4bdc-9752-20b973bafd0f",
      "resource": {
        "resourceType": "Organization",
        "id": "708cc0a8-1a5b-4bdc-9752-20b973bafd0f",
        "meta": {
          "profile": [
            "http://hl7.eu/fhir/base/StructureDefinition/organization-eu"
          ]
        },
        "identifier": [
          {
            "assigner": {
              "display": "HL7 Europe"
            },
            "system": "urn:oid:2.16.840.1.113883.2.51.999",
            "value": "265e5bed-dc24-4f1f-856a-4a7d0ee77203"
          }
        ],
        "address": [
          {
            "city": "Artegna",
            "postalCode": "33011",
            "country": "Italy"
          }
        ],
        "text": {
          "status": "generated",
          "div": "<div xmlns=\"http://www.w3.org/1999/xhtml\">Provider Organization: Ambulatori</div>"
        },
        "name": "Ambulatori"
      }
    },
    {
      "fullUrl": "urn:uuid:f3db7bd5-07c7-4604-a2d3-a6fb3ef4342e",
      "resource": {
        "resourceType": "Specimen",
        "id": "f3db7bd5-07c7-4604-a2d3-a6fb3ef4342e",
        "meta": {
          "profile": [
            "http://hl7.eu/fhir/laboratory/StructureDefinition/Specimen-eu-lab"
          ]
        },
        "collection": {
          "collectedDateTime": "2018-08-20"
        },
        "text": {
          "status": "generated",
          "div": "<div xmlns=\"http://www.w3.org/1999/xhtml\"><table class=\"hl7__eu__lab__report\"><tr><th>Specimen</th><th>Collection Date</th></tr><tr><td>Whole blood specimen (specimen)</td><td><span class=\"nb\">20-Aug-2018</span></td></tr></table></div>"
        },
        "type": {
          "coding": [
            {
              "code": "258580003",
              "system": "http://snomed.info/sct",
              "display": "Whole blood specimen (specimen)"
            }
          ]
        }
      }
    },
    {
      "fullUrl": "urn:uuid:2799068b-e80d-4cab-8c19-11fd00fc4b45",
      "resource": {
        "resourceType": "Observation",
        "id": "2799068b-e80d-4cab-8c19-11fd00fc4b45",
        "meta": {
          "profile": [
            "http://hl7.eu/fhir/laboratory/StructureDefinition/Observation-resultslab-eu-lab"
          ]
        },
        "performer": [
          {
            "display": "The Central European Lab"
          }
        ],
        "category": [
          {
            "coding": [
              {
                "system": "http://terminology.hl7.org/CodeSystem/observation-category",
                "code": "laboratory"
              }
            ]
          }
        ],
        "code": {
          "coding": [
            {
              "code": "4548-4",
              "system": "http://loinc.org",
              "display": "Hemoglobin A1c/Hemoglobin.total in Blood"
            }
          ],
          "text": "Hemoglobin A1c/Hemoglobin.total in Blood"
        },
        "valueQuantity": {
          "system": "http://unitsofmeasure.org",
          "value": 6.4,
          "unit": "%",
          "code": "%"
        },
        "referenceRange": [
          {
            "low": {
              "value": 4,
              "code": "%",
              "system": "http://unitsofmeasure.org"
            }
          },
          {
            "high": {
              "value": 6,
              "code": "%",
              "system": "http://unitsofmeasure.org"
            }
          }
        ],
        "interpretation": [
          {
            "coding": [
              {
                "code": "H",
                "system": "http://terminology.hl7.org/CodeSystem/v3-ObservationInterpretation",
                "display": "High"
              }
            ]
          }
        ],
        "text": {
          "status": "generated",
          "div": "<div xmlns=\"http://www.w3.org/1999/xhtml\"><table class=\"hl7__eu__lab__report\"><tr><th>Test</th><th>20-Aug-2018</th><th>Reference&#xA0;Range</th><th>Unit</th></tr><tr><td>Hemoglobin A1c/Hemoglobin.total in Blood</td><td>6.4</td><td>4 - 6</td><td>H</td><td>%</td></tr></table></div>"
        },
        "status": "final",
        "subject": {
          "reference": "urn:uuid:03699b4a-6c51-4c71-8119-15e1f2b888e6",
          "display": "Alessio Fanucci"
        },
        "effectiveDateTime": "2018-08-20T07:49:06Z",
        "specimen": {
          "reference": "urn:uuid:f3db7bd5-07c7-4604-a2d3-a6fb3ef4342e"
        }
      }
    },
    {
      "fullUrl": "urn:uuid:1c413c7f-b1d1-4d49-8cbd-296237b56ff8",
      "resource": {
        "resourceType": "Observation",
        "id": "1c413c7f-b1d1-4d49-8cbd-296237b56ff8",
        "meta": {
          "profile": [
            "http://hl7.eu/fhir/laboratory/StructureDefinition/Observation-resultslab-eu-lab"
          ]
        },
        "performer": [
          {
            "display": "The Central European Lab"
          }
        ],
        "category": [
          {
            "coding": [
              {
                "system": "http://terminology.hl7.org/CodeSystem/observation-category",
                "code": "laboratory"
              }
            ]
          }
        ],
        "code": {
          "coding": [
            {
              "code": "2339-0",
              "system": "http://loinc.org",
              "display": "Glucose [Mass/volume] in Blood"
            }
          ],
          "text": "Glucose [Mass/volume] in Blood"
        },
        "valueQuantity": {
          "system": "http://unitsofmeasure.org",
          "value": 81.1,
          "unit": "mg/dL",
          "code": "mg/dL"
        },
        "referenceRange": [
          {
            "low": {
              "value": 70,
              "code": "mg/dL",
              "system": "http://unitsofmeasure.org"
            }
          },
          {
            "high": {
              "value": 140,
              "code": "mg/dL",
              "system": "http://unitsofmeasure.org"
            }
          }
        ],
        "text": {
          "status": "generated",
          "div": "<div xmlns=\"http://www.w3.org/1999/xhtml\"><table class=\"hl7__eu__lab__report\"><tr><th>Test</th><th>20-Aug-2018</th><th>Reference&#xA0;Range</th><th>Unit</th></tr><tr><td>Glucose [Mass/volume] in Blood</td><td>81.1</td><td>70 - 140</td><td></td><td>mg/dL</td></tr></table></div>"
        },
        "status": "final",
        "subject": {
          "reference": "urn:uuid:03699b4a-6c51-4c71-8119-15e1f2b888e6",
          "display": "Alessio Fanucci"
        },
        "effectiveDateTime": "2018-08-20T07:49:06Z",
        "specimen": {
          "reference": "urn:uuid:f3db7bd5-07c7-4604-a2d3-a6fb3ef4342e"
        }
      }
    },
    {
      "fullUrl": "urn:uuid:1fbfba4b-c5c9-474b-8b48-0e8e555bbc02",
      "resource": {
        "resourceType": "Observation",
        "id": "1fbfba4b-c5c9-474b-8b48-0e8e555bbc02",
        "meta": {
          "profile": [
            "http://hl7.eu/fhir/laboratory/StructureDefinition/Observation-resultslab-eu-lab"
          ]
        },
        "performer": [
          {
            "display": "The Central European Lab"
          }
        ],
        "category": [
          {
            "coding": [
              {
                "system": "http://terminology.hl7.org/CodeSystem/observation-category",
                "code": "laboratory"
              }
            ]
          }
        ],
        "code": {
          "coding": [
            {
              "code": "6299-2",
              "system": "http://loinc.org",
              "display": "Urea nitrogen [Mass/volume] in Blood"
            }
          ],
          "text": "Urea nitrogen [Mass/volume] in Blood"
        },
        "valueQuantity": {
          "system": "http://unitsofmeasure.org",
          "value": 17.6,
          "unit": "mg/dL",
          "code": "mg/dL"
        },
        "referenceRange": [
          {
            "low": {
              "value": 7,
              "code": "mg/dL",
              "system": "http://unitsofmeasure.org"
            }
          },
          {
            "high": {
              "value": 20,
              "code": "mg/dL",
              "system": "http://unitsofmeasure.org"
            }
          }
        ],
        "text": {
          "status": "generated",
          "div": "<div xmlns=\"http://www.w3.org/1999/xhtml\"><table class=\"hl7__eu__lab__report\"><tr><th>Test</th><th>20-Aug-2018</th><th>Reference&#xA0;Range</th><th>Unit</th></tr><tr><td>Urea nitrogen [Mass/volume] in Blood</td><td>17.6</td><td>7 - 20</td><td></td><td>mg/dL</td></tr></table></div>"
        },
        "status": "final",
        "subject": {
          "reference": "urn:uuid:03699b4a-6c51-4c71-8119-15e1f2b888e6",
          "display": "Alessio Fanucci"
        },
        "effectiveDateTime": "2018-08-20T07:49:06Z",
        "specimen": {
          "reference": "urn:uuid:f3db7bd5-07c7-4604-a2d3-a6fb3ef4342e"
        }
      }
    },
    {
      "fullUrl": "urn:uuid:1da671cf-e1ca-4868-8636-6238c03c1064",
      "resource": {
        "resourceType": "Observation",
        "id": "1da671cf-e1ca-4868-8636-6238c03c1064",
        "meta": {
          "profile": [
            "http://hl7.eu/fhir/laboratory/StructureDefinition/Observation-resultslab-eu-lab"
          ]
        },
        "performer": [
          {
            "display": "The Central European Lab"
          }
        ],
        "category": [
          {
            "coding": [
              {
                "system": "http://terminology.hl7.org/CodeSystem/observation-category",
                "code": "laboratory"
              }
            ]
          }
        ],
        "code": {
          "coding": [
            {
              "code": "38483-4",
              "system": "http://loinc.org",
              "display": "Creatinine [Mass/volume] in Blood"
            }
          ],
          "text": "Creatinine [Mass/volume] in Blood"
        },
        "valueQuantity": {
          "system": "http://unitsofmeasure.org",
          "value": 0.9,
          "unit": "mg/dL",
          "code": "mg/dL"
        },
        "referenceRange": [
          {
            "low": {
              "value": 0.9,
              "code": "mg/dL",
              "system": "http://unitsofmeasure.org"
            }
          },
          {
            "high": {
              "value": 1.3,
              "code": "mg/dL",
              "system": "http://unitsofmeasure.org"
            }
          }
        ],
        "text": {
          "status": "generated",
          "div": "<div xmlns=\"http://www.w3.org/1999/xhtml\"><table class=\"hl7__eu__lab__report\"><tr><th>Test</th><th>20-Aug-2018</th><th>Reference&#xA0;Range</th><th>Unit</th></tr><tr><td>Creatinine [Mass/volume] in Blood</td><td>0.9</td><td>0.9 - 1.3</td><td></td><td>mg/dL</td></tr></table></div>"
        },
        "status": "final",
        "subject": {
          "reference": "urn:uuid:03699b4a-6c51-4c71-8119-15e1f2b888e6",
          "display": "Alessio Fanucci"
        },
        "effectiveDateTime": "2018-08-20T07:49:06Z",
        "specimen": {
          "reference": "urn:uuid:f3db7bd5-07c7-4604-a2d3-a6fb3ef4342e"
        }
      }
    },
    {
      "fullUrl": "urn:uuid:d8b9febc-3eb1-4397-ab1e-9fbdbbebebb1",
      "resource": {
        "resourceType": "Observation",
        "id": "d8b9febc-3eb1-4397-ab1e-9fbdbbebebb1",
        "meta": {
          "profile": [
            "http://hl7.eu/fhir/laboratory/StructureDefinition/Observation-resultslab-eu-lab"
          ]
        },
        "performer": [
          {
            "display": "The Central European Lab"
          }
        ],
        "category": [
          {
            "coding": [
              {
                "system": "http://terminology.hl7.org/CodeSystem/observation-category",
                "code": "laboratory"
              }
            ]
          }
        ],
        "code": {
          "coding": [
            {
              "code": "49765-1",
              "system": "http://loinc.org",
              "display": "Calcium [Mass/volume] in Blood"
            }
          ],
          "text": "Calcium [Mass/volume] in Blood"
        },
        "valueQuantity": {
          "system": "http://unitsofmeasure.org",
          "value": 9.1,
          "unit": "mg/dL",
          "code": "mg/dL"
        },
        "referenceRange": [
          {
            "low": {
              "value": 8.5,
              "code": "mg/dL",
              "system": "http://unitsofmeasure.org"
            }
          },
          {
            "high": {
              "value": 10.5,
              "code": "mg/dL",
              "system": "http://unitsofmeasure.org"
            }
          }
        ],
        "text": {
          "status": "generated",
          "div": "<div xmlns=\"http://www.w3.org/1999/xhtml\"><table class=\"hl7__eu__lab__report\"><tr><th>Test</th><th>20-Aug-2018</th><th>Reference&#xA0;Range</th><th>Unit</th></tr><tr><td>Calcium [Mass/volume] in Blood</td><td>9.1</td><td>8.5 - 10.5</td><td></td><td>mg/dL</td></tr></table></div>"
        },
        "status": "final",
        "subject": {
          "reference": "urn:uuid:03699b4a-6c51-4c71-8119-15e1f2b888e6",
          "display": "Alessio Fanucci"
        },
        "effectiveDateTime": "2018-08-20T07:49:06Z",
        "specimen": {
          "reference": "urn:uuid:f3db7bd5-07c7-4604-a2d3-a6fb3ef4342e"
        }
      }
    },
    {
      "fullUrl": "urn:uuid:689ebfbe-8b2c-4305-9e14-a07256cba8ed",
      "resource": {
        "resourceType": "Observation",
        "id": "689ebfbe-8b2c-4305-9e14-a07256cba8ed",
        "meta": {
          "profile": [
            "http://hl7.eu/fhir/laboratory/StructureDefinition/Observation-resultslab-eu-lab"
          ]
        },
        "performer": [
          {
            "display": "The Central European Lab"
          }
        ],
        "category": [
          {
            "coding": [
              {
                "system": "http://terminology.hl7.org/CodeSystem/observation-category",
                "code": "laboratory"
              }
            ]
          }
        ],
        "code": {
          "coding": [
            {
              "code": "2947-0",
              "system": "http://loinc.org",
              "display": "Sodium [Moles/volume] in Blood"
            }
          ],
          "text": "Sodium [Moles/volume] in Blood"
        },
        "valueQuantity": {
          "system": "http://unitsofmeasure.org",
          "value": 140.5,
          "unit": "mmol/L",
          "code": "mmol/L"
        },
        "referenceRange": [
          {
            "low": {
              "value": 135,
              "code": "mmol/L",
              "system": "http://unitsofmeasure.org"
            }
          },
          {
            "high": {
              "value": 145,
              "code": "mmol/L",
              "system": "http://unitsofmeasure.org"
            }
          }
        ],
        "text": {
          "status": "generated",
          "div": "<div xmlns=\"http://www.w3.org/1999/xhtml\"><table class=\"hl7__eu__lab__report\"><tr><th>Test</th><th>20-Aug-2018</th><th>Reference&#xA0;Range</th><th>Unit</th></tr><tr><td>Sodium [Moles/volume] in Blood</td><td>140.5</td><td>135 - 145</td><td></td><td>mmol/L</td></tr></table></div>"
        },
        "status": "final",
        "subject": {
          "reference": "urn:uuid:03699b4a-6c51-4c71-8119-15e1f2b888e6",
          "display": "Alessio Fanucci"
        },
        "effectiveDateTime": "2018-08-20T07:49:06Z",
        "specimen": {
          "reference": "urn:uuid:f3db7bd5-07c7-4604-a2d3-a6fb3ef4342e"
        }
      }
    },
    {
      "fullUrl": "urn:uuid:35bc2638-7a18-4294-9df3-e6c4a288308d",
      "resource": {
        "resourceType": "Observation",
        "id": "35bc2638-7a18-4294-9df3-e6c4a288308d",
        "meta": {
          "profile": [
            "http://hl7.eu/fhir/laboratory/StructureDefinition/Observation-resultslab-eu-lab"
          ]
        },
        "performer": [
          {
            "display": "The Central European Lab"
          }
        ],
        "category": [
          {
            "coding": [
              {
                "system": "http://terminology.hl7.org/CodeSystem/observation-category",
                "code": "laboratory"
              }
            ]
          }
        ],
        "code": {
          "coding": [
            {
              "code": "6298-4",
              "system": "http://loinc.org",
              "display": "Potassium [Moles/volume] in Blood"
            }
          ],
          "text": "Potassium [Moles/volume] in Blood"
        },
        "valueQuantity": {
          "system": "http://unitsofmeasure.org",
          "value": 4.2,
          "unit": "mmol/L",
          "code": "mmol/L"
        },
        "referenceRange": [
          {
            "low": {
              "value": 3.5,
              "code": "mmol/L",
              "system": "http://unitsofmeasure.org"
            }
          },
          {
            "high": {
              "value": 5,
              "code": "mmol/L",
              "system": "http://unitsofmeasure.org"
            }
          }
        ],
        "text": {
          "status": "generated",
          "div": "<div xmlns=\"http://www.w3.org/1999/xhtml\"><table class=\"hl7__eu__lab__report\"><tr><th>Test</th><th>20-Aug-2018</th><th>Reference&#xA0;Range</th><th>Unit</th></tr><tr><td>Potassium [Moles/volume] in Blood</td><td>4.2</td><td>3.5 - 5</td><td></td><td>mmol/L</td></tr></table></div>"
        },
        "status": "final",
        "subject": {
          "reference": "urn:uuid:03699b4a-6c51-4c71-8119-15e1f2b888e6",
          "display": "Alessio Fanucci"
        },
        "effectiveDateTime": "2018-08-20T07:49:06Z",
        "specimen": {
          "reference": "urn:uuid:f3db7bd5-07c7-4604-a2d3-a6fb3ef4342e"
        }
      }
    },
    {
      "fullUrl": "urn:uuid:526ee22a-9fed-4389-a70f-9028b397606b",
      "resource": {
        "resourceType": "Observation",
        "id": "526ee22a-9fed-4389-a70f-9028b397606b",
        "meta": {
          "profile": [
            "http://hl7.eu/fhir/laboratory/StructureDefinition/Observation-resultslab-eu-lab"
          ]
        },
        "performer": [
          {
            "display": "The Central European Lab"
          }
        ],
        "category": [
          {
            "coding": [
              {
                "system": "http://terminology.hl7.org/CodeSystem/observation-category",
                "code": "laboratory"
              }
            ]
          }
        ],
        "code": {
          "coding": [
            {
              "code": "2069-3",
              "system": "http://loinc.org",
              "display": "Chloride [Moles/volume] in Blood"
            }
          ],
          "text": "Chloride [Moles/volume] in Blood"
        },
        "valueQuantity": {
          "system": "http://unitsofmeasure.org",
          "value": 103,
          "unit": "mmol/L",
          "code": "mmol/L"
        },
        "referenceRange": [
          {
            "low": {
              "value": 98,
              "code": "mmol/L",
              "system": "http://unitsofmeasure.org"
            }
          },
          {
            "high": {
              "value": 110,
              "code": "mmol/L",
              "system": "http://unitsofmeasure.org"
            }
          }
        ],
        "text": {
          "status": "generated",
          "div": "<div xmlns=\"http://www.w3.org/1999/xhtml\"><table class=\"hl7__eu__lab__report\"><tr><th>Test</th><th>20-Aug-2018</th><th>Reference&#xA0;Range</th><th>Unit</th></tr><tr><td>Chloride [Moles/volume] in Blood</td><td>103.0</td><td>98 - 110</td><td></td><td>mmol/L</td></tr></table></div>"
        },
        "status": "final",
        "subject": {
          "reference": "urn:uuid:03699b4a-6c51-4c71-8119-15e1f2b888e6",
          "display": "Alessio Fanucci"
        },
        "effectiveDateTime": "2018-08-20T07:49:06Z",
        "specimen": {
          "reference": "urn:uuid:f3db7bd5-07c7-4604-a2d3-a6fb3ef4342e"
        }
      }
    },
    {
      "fullUrl": "urn:uuid:ce21e370-d2e4-40d0-95d5-4969ccac8de5",
      "resource": {
        "resourceType": "Observation",
        "id": "ce21e370-d2e4-40d0-95d5-4969ccac8de5",
        "meta": {
          "profile": [
            "http://hl7.eu/fhir/laboratory/StructureDefinition/Observation-resultslab-eu-lab"
          ]
        },
        "performer": [
          {
            "display": "The Central European Lab"
          }
        ],
        "category": [
          {
            "coding": [
              {
                "system": "http://terminology.hl7.org/CodeSystem/observation-category",
                "code": "laboratory"
              }
            ]
          }
        ],
        "code": {
          "coding": [
            {
              "code": "20565-8",
              "system": "http://loinc.org",
              "display": "Carbon dioxide, total [Moles/volume] in Blood"
            }
          ],
          "text": "Carbon dioxide, total [Moles/volume] in Blood"
        },
        "valueQuantity": {
          "system": "http://unitsofmeasure.org",
          "value": 20,
          "unit": "mmol/L",
          "code": "mmol/L"
        },
        "referenceRange": [
          {
            "low": {
              "value": 22,
              "code": "mmol/L",
              "system": "http://unitsofmeasure.org"
            }
          },
          {
            "high": {
              "value": 32,
              "code": "mmol/L",
              "system": "http://unitsofmeasure.org"
            }
          }
        ],
        "interpretation": [
          {
            "coding": [
              {
                "code": "L",
                "system": "http://terminology.hl7.org/CodeSystem/v3-ObservationInterpretation",
                "display": "Low"
              }
            ]
          }
        ],
        "text": {
          "status": "generated",
          "div": "<div xmlns=\"http://www.w3.org/1999/xhtml\"><table class=\"hl7__eu__lab__report\"><tr><th>Test</th><th>20-Aug-2018</th><th>Reference&#xA0;Range</th><th>Unit</th></tr><tr><td>Carbon dioxide, total [Moles/volume] in Blood</td><td>20.0</td><td>22 - 32</td><td>L</td><td>mmol/L</td></tr></table></div>"
        },
        "status": "final",
        "subject": {
          "reference": "urn:uuid:03699b4a-6c51-4c71-8119-15e1f2b888e6",
          "display": "Alessio Fanucci"
        },
        "effectiveDateTime": "2018-08-20T07:49:06Z",
        "specimen": {
          "reference": "urn:uuid:f3db7bd5-07c7-4604-a2d3-a6fb3ef4342e"
        }
      }
    },
    {
      "fullUrl": "urn:uuid:c7182f72-1ac9-42c6-b68b-be1127764f71",
      "resource": {
        "resourceType": "Device",
        "id": "c7182f72-1ac9-42c6-b68b-be1127764f71",
        "deviceName": [
          {
            "name": "SYNDERAI Synthetic Generator",
            "type": "manufacturer-name"
          }
        ],
        "version": [
          {
            "value": "5.0"
          }
        ],
        "text": {
          "status": "generated",
          "div": "<div xmlns=\"http://www.w3.org/1999/xhtml\">SYNDERAI Synthetic Generator v5.0</div>"
        },
        "status": "active\"",
        "distinctIdentifier": "synderai-generator-50",
        "manufacturer": "SYNDERAI Project"
      }
    },
    {
      "fullUrl": "urn:uuid:264b10f7-c8de-4142-9b28-799b3f2a2fe1",
      "resource": {
        "resourceType": "Provenance",
        "id": "264b10f7-c8de-4142-9b28-799b3f2a2fe1",
        "target": [
          {
            "reference": "Patient/03699b4a-6c51-4c71-8119-15e1f2b888e6"
          },
          {
            "reference": "Bundle/dfa92aa6-27b1-41f7-816a-b5ed7ee7b744"
          },
          {
            "reference": "Composition/fe1407ec-23b0-4fd5-a86d-554e1b77eb04"
          },
          {
            "reference": "PractitionerRole/a76b77f0-c746-4a4d-8c74-f5a15d956423"
          },
          {
            "reference": "Practitioner/ec3cc2c7-ff37-4631-b92f-630e7f92b440"
          },
          {
            "reference": "PractitionerRole/bdffdb6a-5ca4-45ee-94ed-a6a21296b6ef"
          },
          {
            "reference": "Organization/708cc0a8-1a5b-4bdc-9752-20b973bafd0f"
          }
        ],
        "activity": {
          "text": "Synthetic Example Data Generation"
        },
        "policy": [
          "https://synderai.net/synderai-synthetic-data-policy"
        ],
        "agent": [
          {
            "type": {
              "text": "author"
            },
            "who": {
              "reference": "Device/c7182f72-1ac9-42c6-b68b-be1127764f71"
            }
          }
        ],
        "reason": [
          {
            "text": "Interoperability Testing and Training (non-clinical use)"
          }
        ],
        "text": {
          "status": "generated",
          "div": "<div xmlns=\"http://www.w3.org/1999/xhtml\">Provenance for SYNDERAI Synthetic Example Data Resource</div>"
        },
        "recorded": "2018-08-20T09:49:06Z"
      }
    },
    {
      "fullUrl": "urn:uuid:a76b77f0-c746-4a4d-8c74-f5a15d956423",
      "resource": {
        "resourceType": "PractitionerRole",
        "id": "a76b77f0-c746-4a4d-8c74-f5a15d956423",
        "meta": {
          "profile": [
            "http://hl7.eu/fhir/base/StructureDefinition/practitionerRole-eu"
          ]
        },
        "text": {
          "status": "generated",
          "div": "<div xmlns=\"http://www.w3.org/1999/xhtml\">Laboratory Role Id: a76b77f0-c746-4a4d-8c74-f5a15d956423</div>"
        },
        "practitioner": {
          "reference": "urn:uuid:ec3cc2c7-ff37-4631-b92f-630e7f92b440"
        }
      }
    },
    {
      "fullUrl": "urn:uuid:ec3cc2c7-ff37-4631-b92f-630e7f92b440",
      "resource": {
        "resourceType": "Practitioner",
        "id": "ec3cc2c7-ff37-4631-b92f-630e7f92b440",
        "meta": {
          "profile": [
            "http://hl7.eu/fhir/base/StructureDefinition/practitioner-eu"
          ]
        },
        "identifier": [
          {
            "assigner": {
              "display": "HL7 Europe"
            },
            "system": "urn:oid:2.16.840.1.113883.2.51.999",
            "value": "f45b5724-274c-4a28-bf9c-9202055db037"
          }
        ],
        "name": [
          {
            "prefix": [
              "dr"
            ],
            "given": [
              "Ex"
            ],
            "family": "Ample"
          }
        ],
        "address": [
          {
            "line": [
              "Laboratoire Central Européenne",
              "Boulevard du Jardin Botanique 32"
            ],
            "postalCode": "1000",
            "city": "Brussels",
            "country": "Belgium"
          }
        ],
        "text": {
          "status": "generated",
          "div": "<div xmlns=\"http://www.w3.org/1999/xhtml\">Laboratory: Laboratoire Central Européenne, 1000 Brussels, Belgium</div>"
        }
      }
    }
  ],
  "type": "document",
  "timestamp": "2018-08-20T09:49:06Z"
}
