{
  "resourceType": "Bundle",
  "id": "f8b433f0-b229-439b-a0a1-f61211959b08",
  "meta": {
    "profile": [
      "http://hl7.eu/fhir/laboratory/StructureDefinition/Bundle-eu-lab"
    ]
  },
  "identifier": {
    "assigner": {
      "display": "HL7 Europe"
    },
    "system": "urn:oid:2.16.840.1.113883.2.51.999",
    "value": "eea7ae78-6873-49bc-883f-445c19e71b43"
  },
  "entry": [
    {
      "fullUrl": "urn:uuid:1dc965ef-a1c1-42db-813c-f980d3731173",
      "resource": {
        "resourceType": "Composition",
        "id": "1dc965ef-a1c1-42db-813c-f980d3731173",
        "meta": {
          "profile": [
            "http://hl7.eu/fhir/laboratory/StructureDefinition/Composition-eu-lab"
          ]
        },
        "identifier": {
          "assigner": {
            "display": "HL7 Europe"
          },
          "system": "urn:oid:2.16.840.1.113883.2.51.999",
          "value": "2a0b4fad-c28a-4eb5-8506-24ffe40fff69"
        },
        "author": [
          {
            "reference": "urn:uuid:9006ea1d-8922-429a-b9dc-4d5c0a7279f1"
          }
        ],
        "category": [
          {
            "coding": [
              {
                "code": "26436-6",
                "system": "http://loinc.org",
                "display": "Laboratory studies (set)"
              }
            ]
          }
        ],
        "type": {
          "coding": [
            {
              "code": "11502-2",
              "system": "http://loinc.org",
              "display": "Laboratory report"
            }
          ],
          "text": "Laboratory Report"
        },
        "section": [
          {
            "code": {
              "coding": [
                {
                  "code": "26436-6",
                  "system": "http://loinc.org",
                  "display": "Laboratory studies (set)"
                }
              ],
              "text": "Laboratory studies"
            },
            "section": [
              {
                "code": {
                  "coding": [
                    {
                      "code": "$18723-7",
                      "system": "http://loinc.org",
                      "display": "Hematology studies (set)"
                    }
                  ],
                  "text": "Hematology"
                },
                "entry": [
                  {
                    "reference": "urn:uuid:86deaacf-c79d-419d-ba05-1dab9aa1aae1"
                  },
                  {
                    "reference": "urn:uuid:4cc4b9ab-933b-4042-a06c-3ecfa63f9e69"
                  },
                  {
                    "reference": "urn:uuid:dd6e6241-bb60-44fa-b2e0-a8a7b617546c"
                  },
                  {
                    "reference": "urn:uuid:e8f4a6ea-8650-4bca-8fd7-7c5ea0932e79"
                  },
                  {
                    "reference": "urn:uuid:a7dbb469-0377-456d-b8aa-c81667ad511e"
                  },
                  {
                    "reference": "urn:uuid:f308babc-336e-4d2e-84a8-202bec734b3d"
                  },
                  {
                    "reference": "urn:uuid:fc7a4cc3-cf46-499b-a200-b1ebc45db33a"
                  },
                  {
                    "reference": "urn:uuid:329ad9b3-bad2-4d87-bf1f-7fd5886dbf67"
                  },
                  {
                    "reference": "urn:uuid:c8170a14-bba6-4d62-b11b-860b938b630f"
                  },
                  {
                    "reference": "urn:uuid:4de927c0-cae8-4d57-a844-d52a1c41079c"
                  },
                  {
                    "reference": "urn:uuid:6bada598-2248-47d7-b257-fc6b756947a8"
                  }
                ],
                "text": {
                  "status": "generated",
                  "div": "<div xmlns=\"http://www.w3.org/1999/xhtml\"><h3>Hematology</h3><table class=\"hl7__eu__lab__report\"><thead><tr><th>Test</th><th>05-DEC-2016</th><th>Reference&#xA0;Range</th><th>Unit</th></tr></thead><tbody><tr><td>Leukocytes [#/volume] in Blood by Automated count</td><td>9.2</td><td>3.6 - 10.5</td><td>10*3/uL</td></tr><tr><td>Erythrocytes [#/volume] in Blood by Automated count</td><td>4.7</td><td>4.3 - 6.1</td><td>10*6/uL</td></tr><tr><td>Hemoglobin [Mass/volume] in Blood</td><td>15.0</td><td>13.5 - 17.5</td><td>g/dL</td></tr><tr><td>Hematocrit [Volume Fraction] of Blood by Automated count</td><td>49.1</td><td>38 - 50</td><td>%</td></tr><tr><td>MCV [Entitic volume] by Automated count</td><td>90.0</td><td>76 - 98</td><td>fL</td></tr><tr><td>MCH [Entitic mass] by Automated count</td><td>31.7</td><td>27 - 33</td><td>pg</td></tr><tr><td>MCHC [Mass/volume] by Automated count</td><td>34.3</td><td>31 - 37</td><td>g/dL</td></tr><tr><td>Erythrocyte distribution width [Entitic volume] by Automated count</td><td>41.2</td><td>36.6 - 56.6</td><td>fL</td></tr><tr><td>Platelets [#/volume] in Blood by Automated count</td><td>385.8</td><td>155 - 415</td><td>10*3/uL</td></tr><tr><td>Platelet distribution width [Entitic volume] in Blood by Automated count</td><td><strong>240.2 H</strong></td><td>13.4 - 17.4</td><td>fL</td></tr><tr><td>Platelet mean volume [Entitic volume] in Blood by Automated count</td><td>9.8</td><td>7.4 - 12</td><td>fL</td></tr></tbody></table></div>"
                },
                "title": "Hematology"
              },
              {
                "code": {
                  "coding": [
                    {
                      "code": "$18719-5",
                      "system": "http://loinc.org",
                      "display": "Chemistry studies (set)"
                    }
                  ],
                  "text": "Chemistry"
                },
                "entry": [
                  {
                    "reference": "urn:uuid:bec1035d-1a6c-400e-9310-b87d5b4b5a87"
                  },
                  {
                    "reference": "urn:uuid:8d58612f-3118-428e-a534-7d93c5f7bc87"
                  },
                  {
                    "reference": "urn:uuid:f46b4fd7-1a9d-4f40-b45d-fd9db37b1bac"
                  },
                  {
                    "reference": "urn:uuid:bdf59ca5-9f5b-49e4-8230-8f6469a46017"
                  },
                  {
                    "reference": "urn:uuid:093508d7-3757-4f62-b10a-b5132a69bb69"
                  },
                  {
                    "reference": "urn:uuid:c4ef069a-926c-45b7-ad37-93e64922365a"
                  },
                  {
                    "reference": "urn:uuid:b62d8a65-49cd-4373-b08c-deb4a6b35c10"
                  },
                  {
                    "reference": "urn:uuid:03519dca-26ba-478e-899a-1ab35e08b751"
                  },
                  {
                    "reference": "urn:uuid:a6560fd5-bdb5-4bb5-9954-826dda67f1c3"
                  },
                  {
                    "reference": "urn:uuid:bdd63bcd-29fb-4db9-95b9-54948f6a31c2"
                  },
                  {
                    "reference": "urn:uuid:851c5f54-a84d-4c1a-8a45-5dbfc8ad50bc"
                  },
                  {
                    "reference": "urn:uuid:6b1ccb4b-15e4-466e-b94e-84ef62557c14"
                  },
                  {
                    "reference": "urn:uuid:a65f1494-f6cd-4eee-9013-65835462a4c0"
                  },
                  {
                    "reference": "urn:uuid:db2554a1-bf57-4b55-b67b-276b6c242329"
                  }
                ],
                "text": {
                  "status": "generated",
                  "div": "<div xmlns=\"http://www.w3.org/1999/xhtml\"><h3>Chemistry</h3><table class=\"hl7__eu__lab__report\"><thead><tr><th>Test</th><th>05-DEC-2016</th><th>Reference&#xA0;Range</th><th>Unit</th></tr></thead><tbody><tr><td>Hemoglobin A1c/Hemoglobin.total in Blood</td><td>5.5</td><td>4.5 - 6.4</td><td>%</td></tr><tr><td>Glucose [Mass/volume] in Blood</td><td><strong>165.3 H</strong></td><td>70 - 140</td><td>mg/dL</td></tr><tr><td>Urea nitrogen [Mass/volume] in Blood</td><td>19.7</td><td>7 - 25</td><td>mg/dL</td></tr><tr><td>Creatinine [Mass/volume] in Blood</td><td>0.7</td><td>0.6 - 1.3</td><td>mg/dL</td></tr><tr><td>Calcium [Mass/volume] in Blood</td><td>9.8</td><td>8.5 - 10.5</td><td>mg/dL</td></tr><tr><td>Sodium [Moles/volume] in Blood</td><td>137.4</td><td>135 - 145</td><td>mmol/L</td></tr><tr><td>Potassium [Moles/volume] in Blood</td><td>4.5</td><td>3.5 - 5.1</td><td>mmol/L</td></tr><tr><td>Chloride [Moles/volume] in Blood</td><td>106.3</td><td>98 - 107</td><td>mmol/L</td></tr><tr><td>Carbon dioxide, total [Moles/volume] in Blood</td><td>23.8</td><td>22 - 29</td><td>mmol/L</td></tr><tr><td>Cholesterol [Mass/volume] in Serum or Plasma</td><td><strong>254.2 H</strong></td><td>0 - 200</td><td>mg/dL</td></tr><tr><td>Triglyceride [Mass/volume] in Serum or Plasma</td><td><strong>414.3 H</strong></td><td>0 - 199</td><td>mg/dL</td></tr><tr><td>Cholesterol in LDL [Mass/volume] in Serum or Plasma by Direct assay</td><td><strong>147.9 H</strong></td><td>0 - 130</td><td>mg/dL</td></tr><tr><td>Cholesterol in HDL [Mass/volume] in Serum or Plasma</td><td><strong>23.5 L</strong></td><td>40 - 100</td><td>mg/dL</td></tr><tr><td>Microalbumin/Creatinine [Mass Ratio] in Urine</td><td>14.6</td><td>0 - 30</td><td>mg/g</td></tr></tbody></table></div>"
                },
                "title": "Chemistry"
              }
            ],
            "title": "Laboratory Report"
          },
          {
            "text": {
              "status": "generated",
              "div": "<div xmlns=\"http://www.w3.org/1999/xhtml\"><h3>Annotation</h3><table class=\"hl7__eu__lab__report\"><tr><th>Conclusion and Recommendations based on this report and previous findings known to us</th></tr><tr><td>The patient shows significant dyslipidemia (high total cholesterol, LDL, triglycerides, and low HDL) and elevated fasting glucose, indicating increased cardiovascular and metabolic risk. Renal function, electrolytes, and hematological parameters are within normal limits. No evidence of microalbuminuria. Recommend clinical correlation for diabetes and cardiovascular risk management.</td></tr></table></div>"
            },
            "code": {
              "coding": [
                {
                  "system": "http://loinc.org",
                  "code": "48767-8",
                  "display": "Annotation comment"
                }
              ]
            },
            "title": "Annotation comment"
          }
        ],
        "status": "final",
        "subject": {
          "reference": "urn:uuid:49a5940b-d2b8-4c82-8b81-5f9cfae54859",
          "display": "Timothy Smith"
        },
        "date": "2016-12-05T16:48:21Z",
        "title": "Laboratory Report",
        "confidentiality": "N"
      }
    },
    {
      "fullUrl": "urn:uuid:8fbe1d6f-604d-4567-a749-419a45e94c05",
      "resource": {
        "resourceType": "DiagnosticReport",
        "id": "8fbe1d6f-604d-4567-a749-419a45e94c05",
        "meta": {
          "profile": [
            "http://hl7.eu/fhir/laboratory/StructureDefinition/DiagnosticReport-eu-lab"
          ]
        },
        "identifier": [
          {
            "assigner": {
              "display": "HL7 Europe"
            },
            "system": "urn:oid:2.16.840.1.113883.2.51.999",
            "value": "7f8ce4f6-3bb2-40f0-b3e5-1f7645697bf8"
          }
        ],
        "extension": [
          {
            "url": "http://hl7.org/fhir/5.0/StructureDefinition/extension-DiagnosticReport.composition",
            "valueReference": {
              "reference": "urn:uuid:2a0b4fad-c28a-4eb5-8506-24ffe40fff69"
            }
          }
        ],
        "category": [
          {
            "coding": [
              {
                "code": "26436-6",
                "system": "http://loinc.org",
                "display": "Laboratory studies (set)"
              }
            ]
          }
        ],
        "specimen": [
          {
            "reference": "urn:uuid:0b47cf35-8be3-479a-b077-8cde9087f739"
          },
          {
            "reference": "urn:uuid:cf185ed7-d429-47f3-a2c2-0eeecde9ba1c"
          },
          {
            "reference": "urn:uuid:39be4e3a-df62-4b52-ac2a-f518e395b8c5"
          },
          {
            "reference": "urn:uuid:0b47cf35-8be3-479a-b077-8cde9087f739"
          }
        ],
        "result": [
          {
            "reference": "urn:uuid:bec1035d-1a6c-400e-9310-b87d5b4b5a87"
          },
          {
            "reference": "urn:uuid:8d58612f-3118-428e-a534-7d93c5f7bc87"
          },
          {
            "reference": "urn:uuid:f46b4fd7-1a9d-4f40-b45d-fd9db37b1bac"
          },
          {
            "reference": "urn:uuid:bdf59ca5-9f5b-49e4-8230-8f6469a46017"
          },
          {
            "reference": "urn:uuid:093508d7-3757-4f62-b10a-b5132a69bb69"
          },
          {
            "reference": "urn:uuid:c4ef069a-926c-45b7-ad37-93e64922365a"
          },
          {
            "reference": "urn:uuid:b62d8a65-49cd-4373-b08c-deb4a6b35c10"
          },
          {
            "reference": "urn:uuid:03519dca-26ba-478e-899a-1ab35e08b751"
          },
          {
            "reference": "urn:uuid:a6560fd5-bdb5-4bb5-9954-826dda67f1c3"
          },
          {
            "reference": "urn:uuid:bdd63bcd-29fb-4db9-95b9-54948f6a31c2"
          },
          {
            "reference": "urn:uuid:851c5f54-a84d-4c1a-8a45-5dbfc8ad50bc"
          },
          {
            "reference": "urn:uuid:6b1ccb4b-15e4-466e-b94e-84ef62557c14"
          },
          {
            "reference": "urn:uuid:a65f1494-f6cd-4eee-9013-65835462a4c0"
          },
          {
            "reference": "urn:uuid:db2554a1-bf57-4b55-b67b-276b6c242329"
          },
          {
            "reference": "urn:uuid:86deaacf-c79d-419d-ba05-1dab9aa1aae1"
          },
          {
            "reference": "urn:uuid:4cc4b9ab-933b-4042-a06c-3ecfa63f9e69"
          },
          {
            "reference": "urn:uuid:dd6e6241-bb60-44fa-b2e0-a8a7b617546c"
          },
          {
            "reference": "urn:uuid:e8f4a6ea-8650-4bca-8fd7-7c5ea0932e79"
          },
          {
            "reference": "urn:uuid:a7dbb469-0377-456d-b8aa-c81667ad511e"
          },
          {
            "reference": "urn:uuid:f308babc-336e-4d2e-84a8-202bec734b3d"
          },
          {
            "reference": "urn:uuid:fc7a4cc3-cf46-499b-a200-b1ebc45db33a"
          },
          {
            "reference": "urn:uuid:329ad9b3-bad2-4d87-bf1f-7fd5886dbf67"
          },
          {
            "reference": "urn:uuid:c8170a14-bba6-4d62-b11b-860b938b630f"
          },
          {
            "reference": "urn:uuid:4de927c0-cae8-4d57-a844-d52a1c41079c"
          },
          {
            "reference": "urn:uuid:6bada598-2248-47d7-b257-fc6b756947a8"
          }
        ],
        "status": "registered",
        "code": {
          "coding": [
            {
              "code": "11502-2",
              "system": "http://loinc.org",
              "display": "Laboratory report"
            }
          ]
        },
        "subject": {
          "reference": "urn:uuid:49a5940b-d2b8-4c82-8b81-5f9cfae54859",
          "display": "Timothy Smith"
        }
      }
    },
    {
      "fullUrl": "urn:uuid:49a5940b-d2b8-4c82-8b81-5f9cfae54859",
      "resource": {
        "resourceType": "Patient",
        "id": "49a5940b-d2b8-4c82-8b81-5f9cfae54859",
        "meta": {
          "security": [
            {
              "system": "http://terminology.hl7.org/CodeSystem/v3-ActReason",
              "code": "HTEST"
            },
            {
              "system": "http://terminology.hl7.org/CodeSystem/v3-ActReason",
              "code": "TRAIN"
            }
          ],
          "tag": [
            {
              "system": "https://synderai.net/fhir/CodeSystem/tags",
              "code": "synthetic",
              "display": "SYNDERAI Synthetic data"
            }
          ],
          "profile": [
            "http://hl7.eu/fhir/base/StructureDefinition/patient-eu-core"
          ]
        },
        "identifier": [
          {
            "type": {
              "coding": [
                {
                  "code": "PT",
                  "system": "http://terminology.hl7.org/CodeSystem/v2-0203"
                }
              ]
            },
            "system": "http://ec.europa.eu/identifier/eci",
            "value": "8029-862360-6"
          },
          {
            "type": {
              "coding": [
                {
                  "code": "MR",
                  "system": "http://terminology.hl7.org/CodeSystem/v2-0203"
                }
              ]
            },
            "system": "http://local.setting.eu/identifier",
            "value": "1fe71aa8-fb8e-4622-d398-65f6235c4fef"
          }
        ],
        "name": [
          {
            "family": "Smith"
          },
          {
            "given": [
              "Timothy"
            ]
          },
          {
            "text": "Timothy Smith"
          }
        ],
        "address": [
          {
            "line": [
              "9 Jeffrey orchard"
            ],
            "use": "home",
            "type": "physical",
            "postalCode": "NW1",
            "city": "North Joshuaville",
            "country": "United Kingdom"
          }
        ],
        "telecom": [
          {
            "system": "phone",
            "value": "+44(0)28 9018592"
          }
        ],
        "extension": [
          {
            "url": "http://hl7.org/fhir/StructureDefinition/patient-nationality",
            "valueCodeableConcept": {
              "coding": [
                {
                  "code": "GB",
                  "system": "http://hl7.org/fhir/ValueSet/country"
                }
              ]
            }
          }
        ],
        "text": {
          "status": "generated",
          "div": "<div xmlns=\"http://www.w3.org/1999/xhtml\"><table class=\"hl7__ips\"><tr><td>Timothy Smith</td><td>male</td><td>10-Sep-1941</td></tr></table></div>"
        },
        "gender": "male",
        "birthDate": "1941-09-10"
      }
    },
    {
      "fullUrl": "urn:uuid:706d059a-348f-4865-97ed-5ee74f5c0fc0",
      "resource": {
        "resourceType": "ServiceRequest",
        "id": "706d059a-348f-4865-97ed-5ee74f5c0fc0",
        "meta": {
          "profile": [
            "http://hl7.eu/fhir/laboratory/StructureDefinition/ServiceRequest-eu-lab"
          ]
        },
        "identifier": [
          {
            "system": "http://example.org",
            "value": "f18e20c5-407f-4b24-bb93-68d8188c057a"
          }
        ],
        "specimen": [
          {
            "reference": "urn:uuid:0b47cf35-8be3-479a-b077-8cde9087f739"
          },
          {
            "reference": "urn:uuid:cf185ed7-d429-47f3-a2c2-0eeecde9ba1c"
          },
          {
            "reference": "urn:uuid:39be4e3a-df62-4b52-ac2a-f518e395b8c5"
          }
        ],
        "reasonCode": [
          {
            "coding": [
              {
                "code": "88805009",
                "system": "http://snomed.info/sct",
                "display": "Chronic congestive heart failure"
              }
            ]
          },
          {
            "coding": [
              {
                "code": "60573004",
                "system": "http://snomed.info/sct",
                "display": "Aortic valve stenosis"
              }
            ]
          },
          {
            "coding": [
              {
                "code": "414545008",
                "system": "http://snomed.info/sct",
                "display": "Ischemic heart disease"
              }
            ]
          },
          {
            "coding": [
              {
                "code": "64859006",
                "system": "http://snomed.info/sct",
                "display": "Osteoporosis"
              }
            ]
          },
          {
            "coding": [
              {
                "code": "6525002",
                "system": "http://snomed.info/sct",
                "display": "Dependent drug abuse"
              }
            ]
          },
          {
            "coding": [
              {
                "code": "55822004",
                "system": "http://snomed.info/sct",
                "display": "Hyperlipidemia"
              }
            ]
          },
          {
            "coding": [
              {
                "code": "78275009",
                "system": "http://snomed.info/sct",
                "display": "Obstructive sleep apnea syndrome"
              }
            ]
          },
          {
            "coding": [
              {
                "code": "39898005",
                "system": "http://snomed.info/sct",
                "display": "Sleep disorder"
              }
            ]
          },
          {
            "coding": [
              {
                "code": "401314000",
                "system": "http://snomed.info/sct",
                "display": "Acute non-ST segment elevation myocardial infarction"
              }
            ]
          },
          {
            "coding": [
              {
                "code": "124171000119105",
                "system": "http://snomed.info/sct",
                "display": "Chronic intractable migraine without aura"
              }
            ]
          },
          {
            "coding": [
              {
                "code": "196416002",
                "system": "http://snomed.info/sct",
                "display": "Impacted molars"
              }
            ]
          },
          {
            "coding": [
              {
                "code": "59621000",
                "system": "http://snomed.info/sct",
                "display": "Essential hypertension"
              }
            ]
          },
          {
            "coding": [
              {
                "code": "80394007",
                "system": "http://snomed.info/sct",
                "display": "Hyperglycemia"
              }
            ]
          },
          {
            "coding": [
              {
                "code": "237602007",
                "system": "http://snomed.info/sct",
                "display": "Metabolic syndrome X"
              }
            ]
          },
          {
            "coding": [
              {
                "code": "302870006",
                "system": "http://snomed.info/sct",
                "display": "Hypertriglyceridemia"
              }
            ]
          },
          {
            "coding": [
              {
                "code": "44054006",
                "system": "http://snomed.info/sct",
                "display": "Type 2 diabetes mellitus"
              }
            ]
          },
          {
            "coding": [
              {
                "code": "271737000",
                "system": "http://snomed.info/sct",
                "display": "Anemia"
              }
            ]
          },
          {
            "coding": [
              {
                "code": "15777000",
                "system": "http://snomed.info/sct",
                "display": "Prediabetes"
              }
            ]
          }
        ],
        "status": "active",
        "intent": "order",
        "code": {
          "coding": [
            {
              "code": "108252007",
              "system": "http://snomed.info/sct",
              "display": "Laboratory procedure"
            }
          ]
        },
        "subject": {
          "reference": "urn:uuid:49a5940b-d2b8-4c82-8b81-5f9cfae54859",
          "display": "Timothy Smith"
        },
        "requester": {
          "reference": "urn:uuid:d3950aba-70fa-4130-8fe8-227ce8cfa5e8"
        }
      }
    },
    {
      "fullUrl": "urn:uuid:d3950aba-70fa-4130-8fe8-227ce8cfa5e8",
      "resource": {
        "resourceType": "PractitionerRole",
        "id": "d3950aba-70fa-4130-8fe8-227ce8cfa5e8",
        "meta": {
          "profile": [
            "http://hl7.eu/fhir/base/StructureDefinition/practitionerRole-eu"
          ]
        },
        "text": {
          "status": "generated",
          "div": "<div xmlns=\"http://www.w3.org/1999/xhtml\">Provider Role Id: d3950aba-70fa-4130-8fe8-227ce8cfa5e8</div>"
        },
        "organization": {
          "reference": "urn:uuid:4ec6b7d8-c58f-4d6b-a4f5-7db37d38c86a"
        }
      }
    },
    {
      "fullUrl": "urn:uuid:4ec6b7d8-c58f-4d6b-a4f5-7db37d38c86a",
      "resource": {
        "resourceType": "Organization",
        "id": "4ec6b7d8-c58f-4d6b-a4f5-7db37d38c86a",
        "meta": {
          "profile": [
            "http://hl7.eu/fhir/base/StructureDefinition/organization-eu"
          ]
        },
        "identifier": [
          {
            "assigner": {
              "display": "HL7 Europe"
            },
            "system": "urn:oid:2.16.840.1.113883.2.51.999",
            "value": "0c69923a-16f2-4638-b789-f297afbc7b7d"
          }
        ],
        "address": [
          {
            "city": "London",
            "postalCode": "SE1 7",
            "country": "United Kingdom"
          }
        ],
        "text": {
          "status": "generated",
          "div": "<div xmlns=\"http://www.w3.org/1999/xhtml\">Provider Organization: Evelina Children&#039;s Hospital</div>"
        },
        "name": "Evelina Children&#039;s Hospital"
      }
    },
    {
      "fullUrl": "urn:uuid:0b47cf35-8be3-479a-b077-8cde9087f739",
      "resource": {
        "resourceType": "Specimen",
        "id": "0b47cf35-8be3-479a-b077-8cde9087f739",
        "meta": {
          "profile": [
            "http://hl7.eu/fhir/laboratory/StructureDefinition/Specimen-eu-lab"
          ]
        },
        "collection": {
          "collectedDateTime": "2016-12-05"
        },
        "text": {
          "status": "generated",
          "div": "<div xmlns=\"http://www.w3.org/1999/xhtml\"><table class=\"hl7__eu__lab__report\"><tr><th>Specimen</th><th>Collection Date</th></tr><tr><td>Whole blood specimen (specimen)</td><td><span class=\"nb\">05-Dec-2016</span></td></tr></table></div>"
        },
        "type": {
          "coding": [
            {
              "code": "258580003",
              "system": "http://snomed.info/sct",
              "display": "Whole blood specimen (specimen)"
            }
          ]
        }
      }
    },
    {
      "fullUrl": "urn:uuid:cf185ed7-d429-47f3-a2c2-0eeecde9ba1c",
      "resource": {
        "resourceType": "Specimen",
        "id": "cf185ed7-d429-47f3-a2c2-0eeecde9ba1c",
        "meta": {
          "profile": [
            "http://hl7.eu/fhir/laboratory/StructureDefinition/Specimen-eu-lab"
          ]
        },
        "collection": {
          "collectedDateTime": "2016-12-05"
        },
        "text": {
          "status": "generated",
          "div": "<div xmlns=\"http://www.w3.org/1999/xhtml\"><table class=\"hl7__eu__lab__report\"><tr><th>Specimen</th><th>Collection Date</th></tr><tr><td>Acellular blood (serum or plasma) specimen</td><td><span class=\"nb\">05-Dec-2016</span></td></tr></table></div>"
        },
        "type": {
          "coding": [
            {
              "code": "122592007",
              "system": "http://snomed.info/sct",
              "display": "Acellular blood (serum or plasma) specimen"
            }
          ]
        }
      }
    },
    {
      "fullUrl": "urn:uuid:39be4e3a-df62-4b52-ac2a-f518e395b8c5",
      "resource": {
        "resourceType": "Specimen",
        "id": "39be4e3a-df62-4b52-ac2a-f518e395b8c5",
        "meta": {
          "profile": [
            "http://hl7.eu/fhir/laboratory/StructureDefinition/Specimen-eu-lab"
          ]
        },
        "collection": {
          "collectedDateTime": "2016-12-05"
        },
        "text": {
          "status": "generated",
          "div": "<div xmlns=\"http://www.w3.org/1999/xhtml\"><table class=\"hl7__eu__lab__report\"><tr><th>Specimen</th><th>Collection Date</th></tr><tr><td>Urine specimen</td><td><span class=\"nb\">05-Dec-2016</span></td></tr></table></div>"
        },
        "type": {
          "coding": [
            {
              "code": "122575003",
              "system": "http://snomed.info/sct",
              "display": "Urine specimen"
            }
          ]
        }
      }
    },
    {
      "fullUrl": "urn:uuid:0b47cf35-8be3-479a-b077-8cde9087f739",
      "resource": {
        "resourceType": "Specimen",
        "id": "0b47cf35-8be3-479a-b077-8cde9087f739",
        "meta": {
          "profile": [
            "http://hl7.eu/fhir/laboratory/StructureDefinition/Specimen-eu-lab"
          ]
        },
        "collection": {
          "collectedDateTime": "2016-12-05"
        },
        "text": {
          "status": "generated",
          "div": "<div xmlns=\"http://www.w3.org/1999/xhtml\"><table class=\"hl7__eu__lab__report\"><tr><th>Specimen</th><th>Collection Date</th></tr><tr><td>Whole blood specimen (specimen)</td><td><span class=\"nb\">05-Dec-2016</span></td></tr></table></div>"
        },
        "type": {
          "coding": [
            {
              "code": "258580003",
              "system": "http://snomed.info/sct",
              "display": "Whole blood specimen (specimen)"
            }
          ]
        }
      }
    },
    {
      "fullUrl": "urn:uuid:bec1035d-1a6c-400e-9310-b87d5b4b5a87",
      "resource": {
        "resourceType": "Observation",
        "id": "bec1035d-1a6c-400e-9310-b87d5b4b5a87",
        "meta": {
          "profile": [
            "http://hl7.eu/fhir/laboratory/StructureDefinition/Observation-resultslab-eu-lab"
          ]
        },
        "performer": [
          {
            "display": "The Central European Lab"
          }
        ],
        "category": [
          {
            "coding": [
              {
                "system": "http://terminology.hl7.org/CodeSystem/observation-category",
                "code": "laboratory"
              }
            ]
          }
        ],
        "code": {
          "coding": [
            {
              "code": "4548-4",
              "system": "http://loinc.org",
              "display": "Hemoglobin A1c/Hemoglobin.total in Blood"
            }
          ],
          "text": "Hemoglobin A1c/Hemoglobin.total in Blood"
        },
        "valueQuantity": {
          "system": "http://unitsofmeasure.org",
          "value": 5.5,
          "unit": "%",
          "code": "%"
        },
        "referenceRange": [
          {
            "low": {
              "value": 4.5,
              "code": "%",
              "system": "http://unitsofmeasure.org"
            }
          },
          {
            "high": {
              "value": 6.4,
              "code": "%",
              "system": "http://unitsofmeasure.org"
            }
          }
        ],
        "text": {
          "status": "generated",
          "div": "<div xmlns=\"http://www.w3.org/1999/xhtml\"><table class=\"hl7__eu__lab__report\"><tr><th>Test</th><th>05-Dec-2016</th><th>Reference&#xA0;Range</th><th>Unit</th></tr><tr><td>Hemoglobin A1c/Hemoglobin.total in Blood</td><td>5.5</td><td>4.5 - 6.4</td><td></td><td>%</td></tr></table></div>"
        },
        "status": "final",
        "subject": {
          "reference": "urn:uuid:49a5940b-d2b8-4c82-8b81-5f9cfae54859",
          "display": "Timothy Smith"
        },
        "effectiveDateTime": "2016-12-05T15:48:21Z",
        "specimen": {
          "reference": "urn:uuid:0b47cf35-8be3-479a-b077-8cde9087f739"
        }
      }
    },
    {
      "fullUrl": "urn:uuid:8d58612f-3118-428e-a534-7d93c5f7bc87",
      "resource": {
        "resourceType": "Observation",
        "id": "8d58612f-3118-428e-a534-7d93c5f7bc87",
        "meta": {
          "profile": [
            "http://hl7.eu/fhir/laboratory/StructureDefinition/Observation-resultslab-eu-lab"
          ]
        },
        "performer": [
          {
            "display": "The Central European Lab"
          }
        ],
        "category": [
          {
            "coding": [
              {
                "system": "http://terminology.hl7.org/CodeSystem/observation-category",
                "code": "laboratory"
              }
            ]
          }
        ],
        "code": {
          "coding": [
            {
              "code": "2339-0",
              "system": "http://loinc.org",
              "display": "Glucose [Mass/volume] in Blood"
            }
          ],
          "text": "Glucose [Mass/volume] in Blood"
        },
        "valueQuantity": {
          "system": "http://unitsofmeasure.org",
          "value": 165.3,
          "unit": "mg/dL",
          "code": "mg/dL"
        },
        "referenceRange": [
          {
            "low": {
              "value": 70,
              "code": "mg/dL",
              "system": "http://unitsofmeasure.org"
            }
          },
          {
            "high": {
              "value": 140,
              "code": "mg/dL",
              "system": "http://unitsofmeasure.org"
            }
          }
        ],
        "interpretation": [
          {
            "coding": [
              {
                "code": "H",
                "system": "http://terminology.hl7.org/CodeSystem/v3-ObservationInterpretation",
                "display": "High"
              }
            ]
          }
        ],
        "text": {
          "status": "generated",
          "div": "<div xmlns=\"http://www.w3.org/1999/xhtml\"><table class=\"hl7__eu__lab__report\"><tr><th>Test</th><th>05-Dec-2016</th><th>Reference&#xA0;Range</th><th>Unit</th></tr><tr><td>Glucose [Mass/volume] in Blood</td><td>165.3</td><td>70 - 140</td><td>H</td><td>mg/dL</td></tr></table></div>"
        },
        "status": "final",
        "subject": {
          "reference": "urn:uuid:49a5940b-d2b8-4c82-8b81-5f9cfae54859",
          "display": "Timothy Smith"
        },
        "effectiveDateTime": "2016-12-05T15:48:21Z",
        "specimen": {
          "reference": "urn:uuid:0b47cf35-8be3-479a-b077-8cde9087f739"
        }
      }
    },
    {
      "fullUrl": "urn:uuid:f46b4fd7-1a9d-4f40-b45d-fd9db37b1bac",
      "resource": {
        "resourceType": "Observation",
        "id": "f46b4fd7-1a9d-4f40-b45d-fd9db37b1bac",
        "meta": {
          "profile": [
            "http://hl7.eu/fhir/laboratory/StructureDefinition/Observation-resultslab-eu-lab"
          ]
        },
        "performer": [
          {
            "display": "The Central European Lab"
          }
        ],
        "category": [
          {
            "coding": [
              {
                "system": "http://terminology.hl7.org/CodeSystem/observation-category",
                "code": "laboratory"
              }
            ]
          }
        ],
        "code": {
          "coding": [
            {
              "code": "6299-2",
              "system": "http://loinc.org",
              "display": "Urea nitrogen [Mass/volume] in Blood"
            }
          ],
          "text": "Urea nitrogen [Mass/volume] in Blood"
        },
        "valueQuantity": {
          "system": "http://unitsofmeasure.org",
          "value": 19.7,
          "unit": "mg/dL",
          "code": "mg/dL"
        },
        "referenceRange": [
          {
            "low": {
              "value": 7,
              "code": "mg/dL",
              "system": "http://unitsofmeasure.org"
            }
          },
          {
            "high": {
              "value": 25,
              "code": "mg/dL",
              "system": "http://unitsofmeasure.org"
            }
          }
        ],
        "text": {
          "status": "generated",
          "div": "<div xmlns=\"http://www.w3.org/1999/xhtml\"><table class=\"hl7__eu__lab__report\"><tr><th>Test</th><th>05-Dec-2016</th><th>Reference&#xA0;Range</th><th>Unit</th></tr><tr><td>Urea nitrogen [Mass/volume] in Blood</td><td>19.7</td><td>7 - 25</td><td></td><td>mg/dL</td></tr></table></div>"
        },
        "status": "final",
        "subject": {
          "reference": "urn:uuid:49a5940b-d2b8-4c82-8b81-5f9cfae54859",
          "display": "Timothy Smith"
        },
        "effectiveDateTime": "2016-12-05T15:48:21Z",
        "specimen": {
          "reference": "urn:uuid:0b47cf35-8be3-479a-b077-8cde9087f739"
        }
      }
    },
    {
      "fullUrl": "urn:uuid:bdf59ca5-9f5b-49e4-8230-8f6469a46017",
      "resource": {
        "resourceType": "Observation",
        "id": "bdf59ca5-9f5b-49e4-8230-8f6469a46017",
        "meta": {
          "profile": [
            "http://hl7.eu/fhir/laboratory/StructureDefinition/Observation-resultslab-eu-lab"
          ]
        },
        "performer": [
          {
            "display": "The Central European Lab"
          }
        ],
        "category": [
          {
            "coding": [
              {
                "system": "http://terminology.hl7.org/CodeSystem/observation-category",
                "code": "laboratory"
              }
            ]
          }
        ],
        "code": {
          "coding": [
            {
              "code": "38483-4",
              "system": "http://loinc.org",
              "display": "Creatinine [Mass/volume] in Blood"
            }
          ],
          "text": "Creatinine [Mass/volume] in Blood"
        },
        "valueQuantity": {
          "system": "http://unitsofmeasure.org",
          "value": 0.7,
          "unit": "mg/dL",
          "code": "mg/dL"
        },
        "referenceRange": [
          {
            "low": {
              "value": 0.6,
              "code": "mg/dL",
              "system": "http://unitsofmeasure.org"
            }
          },
          {
            "high": {
              "value": 1.3,
              "code": "mg/dL",
              "system": "http://unitsofmeasure.org"
            }
          }
        ],
        "text": {
          "status": "generated",
          "div": "<div xmlns=\"http://www.w3.org/1999/xhtml\"><table class=\"hl7__eu__lab__report\"><tr><th>Test</th><th>05-Dec-2016</th><th>Reference&#xA0;Range</th><th>Unit</th></tr><tr><td>Creatinine [Mass/volume] in Blood</td><td>0.7</td><td>0.6 - 1.3</td><td></td><td>mg/dL</td></tr></table></div>"
        },
        "status": "final",
        "subject": {
          "reference": "urn:uuid:49a5940b-d2b8-4c82-8b81-5f9cfae54859",
          "display": "Timothy Smith"
        },
        "effectiveDateTime": "2016-12-05T15:48:21Z",
        "specimen": {
          "reference": "urn:uuid:0b47cf35-8be3-479a-b077-8cde9087f739"
        }
      }
    },
    {
      "fullUrl": "urn:uuid:093508d7-3757-4f62-b10a-b5132a69bb69",
      "resource": {
        "resourceType": "Observation",
        "id": "093508d7-3757-4f62-b10a-b5132a69bb69",
        "meta": {
          "profile": [
            "http://hl7.eu/fhir/laboratory/StructureDefinition/Observation-resultslab-eu-lab"
          ]
        },
        "performer": [
          {
            "display": "The Central European Lab"
          }
        ],
        "category": [
          {
            "coding": [
              {
                "system": "http://terminology.hl7.org/CodeSystem/observation-category",
                "code": "laboratory"
              }
            ]
          }
        ],
        "code": {
          "coding": [
            {
              "code": "49765-1",
              "system": "http://loinc.org",
              "display": "Calcium [Mass/volume] in Blood"
            }
          ],
          "text": "Calcium [Mass/volume] in Blood"
        },
        "valueQuantity": {
          "system": "http://unitsofmeasure.org",
          "value": 9.8,
          "unit": "mg/dL",
          "code": "mg/dL"
        },
        "referenceRange": [
          {
            "low": {
              "value": 8.5,
              "code": "mg/dL",
              "system": "http://unitsofmeasure.org"
            }
          },
          {
            "high": {
              "value": 10.5,
              "code": "mg/dL",
              "system": "http://unitsofmeasure.org"
            }
          }
        ],
        "text": {
          "status": "generated",
          "div": "<div xmlns=\"http://www.w3.org/1999/xhtml\"><table class=\"hl7__eu__lab__report\"><tr><th>Test</th><th>05-Dec-2016</th><th>Reference&#xA0;Range</th><th>Unit</th></tr><tr><td>Calcium [Mass/volume] in Blood</td><td>9.8</td><td>8.5 - 10.5</td><td></td><td>mg/dL</td></tr></table></div>"
        },
        "status": "final",
        "subject": {
          "reference": "urn:uuid:49a5940b-d2b8-4c82-8b81-5f9cfae54859",
          "display": "Timothy Smith"
        },
        "effectiveDateTime": "2016-12-05T15:48:21Z",
        "specimen": {
          "reference": "urn:uuid:0b47cf35-8be3-479a-b077-8cde9087f739"
        }
      }
    },
    {
      "fullUrl": "urn:uuid:c4ef069a-926c-45b7-ad37-93e64922365a",
      "resource": {
        "resourceType": "Observation",
        "id": "c4ef069a-926c-45b7-ad37-93e64922365a",
        "meta": {
          "profile": [
            "http://hl7.eu/fhir/laboratory/StructureDefinition/Observation-resultslab-eu-lab"
          ]
        },
        "performer": [
          {
            "display": "The Central European Lab"
          }
        ],
        "category": [
          {
            "coding": [
              {
                "system": "http://terminology.hl7.org/CodeSystem/observation-category",
                "code": "laboratory"
              }
            ]
          }
        ],
        "code": {
          "coding": [
            {
              "code": "2947-0",
              "system": "http://loinc.org",
              "display": "Sodium [Moles/volume] in Blood"
            }
          ],
          "text": "Sodium [Moles/volume] in Blood"
        },
        "valueQuantity": {
          "system": "http://unitsofmeasure.org",
          "value": 137.4,
          "unit": "mmol/L",
          "code": "mmol/L"
        },
        "referenceRange": [
          {
            "low": {
              "value": 135,
              "code": "mmol/L",
              "system": "http://unitsofmeasure.org"
            }
          },
          {
            "high": {
              "value": 145,
              "code": "mmol/L",
              "system": "http://unitsofmeasure.org"
            }
          }
        ],
        "text": {
          "status": "generated",
          "div": "<div xmlns=\"http://www.w3.org/1999/xhtml\"><table class=\"hl7__eu__lab__report\"><tr><th>Test</th><th>05-Dec-2016</th><th>Reference&#xA0;Range</th><th>Unit</th></tr><tr><td>Sodium [Moles/volume] in Blood</td><td>137.4</td><td>135 - 145</td><td></td><td>mmol/L</td></tr></table></div>"
        },
        "status": "final",
        "subject": {
          "reference": "urn:uuid:49a5940b-d2b8-4c82-8b81-5f9cfae54859",
          "display": "Timothy Smith"
        },
        "effectiveDateTime": "2016-12-05T15:48:21Z",
        "specimen": {
          "reference": "urn:uuid:0b47cf35-8be3-479a-b077-8cde9087f739"
        }
      }
    },
    {
      "fullUrl": "urn:uuid:b62d8a65-49cd-4373-b08c-deb4a6b35c10",
      "resource": {
        "resourceType": "Observation",
        "id": "b62d8a65-49cd-4373-b08c-deb4a6b35c10",
        "meta": {
          "profile": [
            "http://hl7.eu/fhir/laboratory/StructureDefinition/Observation-resultslab-eu-lab"
          ]
        },
        "performer": [
          {
            "display": "The Central European Lab"
          }
        ],
        "category": [
          {
            "coding": [
              {
                "system": "http://terminology.hl7.org/CodeSystem/observation-category",
                "code": "laboratory"
              }
            ]
          }
        ],
        "code": {
          "coding": [
            {
              "code": "6298-4",
              "system": "http://loinc.org",
              "display": "Potassium [Moles/volume] in Blood"
            }
          ],
          "text": "Potassium [Moles/volume] in Blood"
        },
        "valueQuantity": {
          "system": "http://unitsofmeasure.org",
          "value": 4.5,
          "unit": "mmol/L",
          "code": "mmol/L"
        },
        "referenceRange": [
          {
            "low": {
              "value": 3.5,
              "code": "mmol/L",
              "system": "http://unitsofmeasure.org"
            }
          },
          {
            "high": {
              "value": 5.1,
              "code": "mmol/L",
              "system": "http://unitsofmeasure.org"
            }
          }
        ],
        "text": {
          "status": "generated",
          "div": "<div xmlns=\"http://www.w3.org/1999/xhtml\"><table class=\"hl7__eu__lab__report\"><tr><th>Test</th><th>05-Dec-2016</th><th>Reference&#xA0;Range</th><th>Unit</th></tr><tr><td>Potassium [Moles/volume] in Blood</td><td>4.5</td><td>3.5 - 5.1</td><td></td><td>mmol/L</td></tr></table></div>"
        },
        "status": "final",
        "subject": {
          "reference": "urn:uuid:49a5940b-d2b8-4c82-8b81-5f9cfae54859",
          "display": "Timothy Smith"
        },
        "effectiveDateTime": "2016-12-05T15:48:21Z",
        "specimen": {
          "reference": "urn:uuid:0b47cf35-8be3-479a-b077-8cde9087f739"
        }
      }
    },
    {
      "fullUrl": "urn:uuid:03519dca-26ba-478e-899a-1ab35e08b751",
      "resource": {
        "resourceType": "Observation",
        "id": "03519dca-26ba-478e-899a-1ab35e08b751",
        "meta": {
          "profile": [
            "http://hl7.eu/fhir/laboratory/StructureDefinition/Observation-resultslab-eu-lab"
          ]
        },
        "performer": [
          {
            "display": "The Central European Lab"
          }
        ],
        "category": [
          {
            "coding": [
              {
                "system": "http://terminology.hl7.org/CodeSystem/observation-category",
                "code": "laboratory"
              }
            ]
          }
        ],
        "code": {
          "coding": [
            {
              "code": "2069-3",
              "system": "http://loinc.org",
              "display": "Chloride [Moles/volume] in Blood"
            }
          ],
          "text": "Chloride [Moles/volume] in Blood"
        },
        "valueQuantity": {
          "system": "http://unitsofmeasure.org",
          "value": 106.3,
          "unit": "mmol/L",
          "code": "mmol/L"
        },
        "referenceRange": [
          {
            "low": {
              "value": 98,
              "code": "mmol/L",
              "system": "http://unitsofmeasure.org"
            }
          },
          {
            "high": {
              "value": 107,
              "code": "mmol/L",
              "system": "http://unitsofmeasure.org"
            }
          }
        ],
        "text": {
          "status": "generated",
          "div": "<div xmlns=\"http://www.w3.org/1999/xhtml\"><table class=\"hl7__eu__lab__report\"><tr><th>Test</th><th>05-Dec-2016</th><th>Reference&#xA0;Range</th><th>Unit</th></tr><tr><td>Chloride [Moles/volume] in Blood</td><td>106.3</td><td>98 - 107</td><td></td><td>mmol/L</td></tr></table></div>"
        },
        "status": "final",
        "subject": {
          "reference": "urn:uuid:49a5940b-d2b8-4c82-8b81-5f9cfae54859",
          "display": "Timothy Smith"
        },
        "effectiveDateTime": "2016-12-05T15:48:21Z",
        "specimen": {
          "reference": "urn:uuid:0b47cf35-8be3-479a-b077-8cde9087f739"
        }
      }
    },
    {
      "fullUrl": "urn:uuid:a6560fd5-bdb5-4bb5-9954-826dda67f1c3",
      "resource": {
        "resourceType": "Observation",
        "id": "a6560fd5-bdb5-4bb5-9954-826dda67f1c3",
        "meta": {
          "profile": [
            "http://hl7.eu/fhir/laboratory/StructureDefinition/Observation-resultslab-eu-lab"
          ]
        },
        "performer": [
          {
            "display": "The Central European Lab"
          }
        ],
        "category": [
          {
            "coding": [
              {
                "system": "http://terminology.hl7.org/CodeSystem/observation-category",
                "code": "laboratory"
              }
            ]
          }
        ],
        "code": {
          "coding": [
            {
              "code": "20565-8",
              "system": "http://loinc.org",
              "display": "Carbon dioxide, total [Moles/volume] in Blood"
            }
          ],
          "text": "Carbon dioxide, total [Moles/volume] in Blood"
        },
        "valueQuantity": {
          "system": "http://unitsofmeasure.org",
          "value": 23.8,
          "unit": "mmol/L",
          "code": "mmol/L"
        },
        "referenceRange": [
          {
            "low": {
              "value": 22,
              "code": "mmol/L",
              "system": "http://unitsofmeasure.org"
            }
          },
          {
            "high": {
              "value": 29,
              "code": "mmol/L",
              "system": "http://unitsofmeasure.org"
            }
          }
        ],
        "text": {
          "status": "generated",
          "div": "<div xmlns=\"http://www.w3.org/1999/xhtml\"><table class=\"hl7__eu__lab__report\"><tr><th>Test</th><th>05-Dec-2016</th><th>Reference&#xA0;Range</th><th>Unit</th></tr><tr><td>Carbon dioxide, total [Moles/volume] in Blood</td><td>23.8</td><td>22 - 29</td><td></td><td>mmol/L</td></tr></table></div>"
        },
        "status": "final",
        "subject": {
          "reference": "urn:uuid:49a5940b-d2b8-4c82-8b81-5f9cfae54859",
          "display": "Timothy Smith"
        },
        "effectiveDateTime": "2016-12-05T15:48:21Z",
        "specimen": {
          "reference": "urn:uuid:0b47cf35-8be3-479a-b077-8cde9087f739"
        }
      }
    },
    {
      "fullUrl": "urn:uuid:bdd63bcd-29fb-4db9-95b9-54948f6a31c2",
      "resource": {
        "resourceType": "Observation",
        "id": "bdd63bcd-29fb-4db9-95b9-54948f6a31c2",
        "meta": {
          "profile": [
            "http://hl7.eu/fhir/laboratory/StructureDefinition/Observation-resultslab-eu-lab"
          ]
        },
        "performer": [
          {
            "display": "The Central European Lab"
          }
        ],
        "category": [
          {
            "coding": [
              {
                "system": "http://terminology.hl7.org/CodeSystem/observation-category",
                "code": "laboratory"
              }
            ]
          }
        ],
        "code": {
          "coding": [
            {
              "code": "2093-3",
              "system": "http://loinc.org",
              "display": "Cholesterol [Mass/volume] in Serum or Plasma"
            }
          ],
          "text": "Cholesterol [Mass/volume] in Serum or Plasma"
        },
        "valueQuantity": {
          "system": "http://unitsofmeasure.org",
          "value": 254.2,
          "unit": "mg/dL",
          "code": "mg/dL"
        },
        "referenceRange": [
          {
            "low": {
              "value": 0,
              "code": "mg/dL",
              "system": "http://unitsofmeasure.org"
            }
          },
          {
            "high": {
              "value": 200,
              "code": "mg/dL",
              "system": "http://unitsofmeasure.org"
            }
          }
        ],
        "interpretation": [
          {
            "coding": [
              {
                "code": "H",
                "system": "http://terminology.hl7.org/CodeSystem/v3-ObservationInterpretation",
                "display": "High"
              }
            ]
          }
        ],
        "text": {
          "status": "generated",
          "div": "<div xmlns=\"http://www.w3.org/1999/xhtml\"><table class=\"hl7__eu__lab__report\"><tr><th>Test</th><th>05-Dec-2016</th><th>Reference&#xA0;Range</th><th>Unit</th></tr><tr><td>Cholesterol [Mass/volume] in Serum or Plasma</td><td>254.2</td><td>0 - 200</td><td>H</td><td>mg/dL</td></tr></table></div>"
        },
        "status": "final",
        "subject": {
          "reference": "urn:uuid:49a5940b-d2b8-4c82-8b81-5f9cfae54859",
          "display": "Timothy Smith"
        },
        "effectiveDateTime": "2016-12-05T15:48:21Z",
        "specimen": {
          "reference": "urn:uuid:cf185ed7-d429-47f3-a2c2-0eeecde9ba1c"
        }
      }
    },
    {
      "fullUrl": "urn:uuid:851c5f54-a84d-4c1a-8a45-5dbfc8ad50bc",
      "resource": {
        "resourceType": "Observation",
        "id": "851c5f54-a84d-4c1a-8a45-5dbfc8ad50bc",
        "meta": {
          "profile": [
            "http://hl7.eu/fhir/laboratory/StructureDefinition/Observation-resultslab-eu-lab"
          ]
        },
        "performer": [
          {
            "display": "The Central European Lab"
          }
        ],
        "category": [
          {
            "coding": [
              {
                "system": "http://terminology.hl7.org/CodeSystem/observation-category",
                "code": "laboratory"
              }
            ]
          }
        ],
        "code": {
          "coding": [
            {
              "code": "2571-8",
              "system": "http://loinc.org",
              "display": "Triglyceride [Mass/volume] in Serum or Plasma"
            }
          ],
          "text": "Triglyceride [Mass/volume] in Serum or Plasma"
        },
        "valueQuantity": {
          "system": "http://unitsofmeasure.org",
          "value": 414.3,
          "unit": "mg/dL",
          "code": "mg/dL"
        },
        "referenceRange": [
          {
            "low": {
              "value": 0,
              "code": "mg/dL",
              "system": "http://unitsofmeasure.org"
            }
          },
          {
            "high": {
              "value": 199,
              "code": "mg/dL",
              "system": "http://unitsofmeasure.org"
            }
          }
        ],
        "interpretation": [
          {
            "coding": [
              {
                "code": "H",
                "system": "http://terminology.hl7.org/CodeSystem/v3-ObservationInterpretation",
                "display": "High"
              }
            ]
          }
        ],
        "text": {
          "status": "generated",
          "div": "<div xmlns=\"http://www.w3.org/1999/xhtml\"><table class=\"hl7__eu__lab__report\"><tr><th>Test</th><th>05-Dec-2016</th><th>Reference&#xA0;Range</th><th>Unit</th></tr><tr><td>Triglyceride [Mass/volume] in Serum or Plasma</td><td>414.3</td><td>0 - 199</td><td>H</td><td>mg/dL</td></tr></table></div>"
        },
        "status": "final",
        "subject": {
          "reference": "urn:uuid:49a5940b-d2b8-4c82-8b81-5f9cfae54859",
          "display": "Timothy Smith"
        },
        "effectiveDateTime": "2016-12-05T15:48:21Z",
        "specimen": {
          "reference": "urn:uuid:cf185ed7-d429-47f3-a2c2-0eeecde9ba1c"
        }
      }
    },
    {
      "fullUrl": "urn:uuid:6b1ccb4b-15e4-466e-b94e-84ef62557c14",
      "resource": {
        "resourceType": "Observation",
        "id": "6b1ccb4b-15e4-466e-b94e-84ef62557c14",
        "meta": {
          "profile": [
            "http://hl7.eu/fhir/laboratory/StructureDefinition/Observation-resultslab-eu-lab"
          ]
        },
        "performer": [
          {
            "display": "The Central European Lab"
          }
        ],
        "category": [
          {
            "coding": [
              {
                "system": "http://terminology.hl7.org/CodeSystem/observation-category",
                "code": "laboratory"
              }
            ]
          }
        ],
        "code": {
          "coding": [
            {
              "code": "18262-6",
              "system": "http://loinc.org",
              "display": "Cholesterol in LDL [Mass/volume] in Serum or Plasma by Direct assay"
            }
          ],
          "text": "Cholesterol in LDL [Mass/volume] in Serum or Plasma by Direct assay"
        },
        "valueQuantity": {
          "system": "http://unitsofmeasure.org",
          "value": 147.9,
          "unit": "mg/dL",
          "code": "mg/dL"
        },
        "referenceRange": [
          {
            "low": {
              "value": 0,
              "code": "mg/dL",
              "system": "http://unitsofmeasure.org"
            }
          },
          {
            "high": {
              "value": 130,
              "code": "mg/dL",
              "system": "http://unitsofmeasure.org"
            }
          }
        ],
        "interpretation": [
          {
            "coding": [
              {
                "code": "H",
                "system": "http://terminology.hl7.org/CodeSystem/v3-ObservationInterpretation",
                "display": "High"
              }
            ]
          }
        ],
        "text": {
          "status": "generated",
          "div": "<div xmlns=\"http://www.w3.org/1999/xhtml\"><table class=\"hl7__eu__lab__report\"><tr><th>Test</th><th>05-Dec-2016</th><th>Reference&#xA0;Range</th><th>Unit</th></tr><tr><td>Cholesterol in LDL [Mass/volume] in Serum or Plasma by Direct assay</td><td>147.9</td><td>0 - 130</td><td>H</td><td>mg/dL</td></tr></table></div>"
        },
        "status": "final",
        "subject": {
          "reference": "urn:uuid:49a5940b-d2b8-4c82-8b81-5f9cfae54859",
          "display": "Timothy Smith"
        },
        "effectiveDateTime": "2016-12-05T15:48:21Z",
        "specimen": {
          "reference": "urn:uuid:cf185ed7-d429-47f3-a2c2-0eeecde9ba1c"
        }
      }
    },
    {
      "fullUrl": "urn:uuid:a65f1494-f6cd-4eee-9013-65835462a4c0",
      "resource": {
        "resourceType": "Observation",
        "id": "a65f1494-f6cd-4eee-9013-65835462a4c0",
        "meta": {
          "profile": [
            "http://hl7.eu/fhir/laboratory/StructureDefinition/Observation-resultslab-eu-lab"
          ]
        },
        "performer": [
          {
            "display": "The Central European Lab"
          }
        ],
        "category": [
          {
            "coding": [
              {
                "system": "http://terminology.hl7.org/CodeSystem/observation-category",
                "code": "laboratory"
              }
            ]
          }
        ],
        "code": {
          "coding": [
            {
              "code": "2085-9",
              "system": "http://loinc.org",
              "display": "Cholesterol in HDL [Mass/volume] in Serum or Plasma"
            }
          ],
          "text": "Cholesterol in HDL [Mass/volume] in Serum or Plasma"
        },
        "valueQuantity": {
          "system": "http://unitsofmeasure.org",
          "value": 23.5,
          "unit": "mg/dL",
          "code": "mg/dL"
        },
        "referenceRange": [
          {
            "low": {
              "value": 40,
              "code": "mg/dL",
              "system": "http://unitsofmeasure.org"
            }
          },
          {
            "high": {
              "value": 100,
              "code": "mg/dL",
              "system": "http://unitsofmeasure.org"
            }
          }
        ],
        "interpretation": [
          {
            "coding": [
              {
                "code": "L",
                "system": "http://terminology.hl7.org/CodeSystem/v3-ObservationInterpretation",
                "display": "Low"
              }
            ]
          }
        ],
        "text": {
          "status": "generated",
          "div": "<div xmlns=\"http://www.w3.org/1999/xhtml\"><table class=\"hl7__eu__lab__report\"><tr><th>Test</th><th>05-Dec-2016</th><th>Reference&#xA0;Range</th><th>Unit</th></tr><tr><td>Cholesterol in HDL [Mass/volume] in Serum or Plasma</td><td>23.5</td><td>40 - 100</td><td>L</td><td>mg/dL</td></tr></table></div>"
        },
        "status": "final",
        "subject": {
          "reference": "urn:uuid:49a5940b-d2b8-4c82-8b81-5f9cfae54859",
          "display": "Timothy Smith"
        },
        "effectiveDateTime": "2016-12-05T15:48:21Z",
        "specimen": {
          "reference": "urn:uuid:cf185ed7-d429-47f3-a2c2-0eeecde9ba1c"
        }
      }
    },
    {
      "fullUrl": "urn:uuid:db2554a1-bf57-4b55-b67b-276b6c242329",
      "resource": {
        "resourceType": "Observation",
        "id": "db2554a1-bf57-4b55-b67b-276b6c242329",
        "meta": {
          "profile": [
            "http://hl7.eu/fhir/laboratory/StructureDefinition/Observation-resultslab-eu-lab"
          ]
        },
        "performer": [
          {
            "display": "The Central European Lab"
          }
        ],
        "category": [
          {
            "coding": [
              {
                "system": "http://terminology.hl7.org/CodeSystem/observation-category",
                "code": "laboratory"
              }
            ]
          }
        ],
        "code": {
          "coding": [
            {
              "code": "14959-1",
              "system": "http://loinc.org",
              "display": "Microalbumin/Creatinine [Mass Ratio] in Urine"
            }
          ],
          "text": "Microalbumin/Creatinine [Mass Ratio] in Urine"
        },
        "valueQuantity": {
          "system": "http://unitsofmeasure.org",
          "value": 14.6,
          "unit": "mg/g",
          "code": "mg/g"
        },
        "referenceRange": [
          {
            "low": {
              "value": 0,
              "code": "mg/g",
              "system": "http://unitsofmeasure.org"
            }
          },
          {
            "high": {
              "value": 30,
              "code": "mg/g",
              "system": "http://unitsofmeasure.org"
            }
          }
        ],
        "text": {
          "status": "generated",
          "div": "<div xmlns=\"http://www.w3.org/1999/xhtml\"><table class=\"hl7__eu__lab__report\"><tr><th>Test</th><th>05-Dec-2016</th><th>Reference&#xA0;Range</th><th>Unit</th></tr><tr><td>Microalbumin/Creatinine [Mass Ratio] in Urine</td><td>14.6</td><td>0 - 30</td><td></td><td>mg/g</td></tr></table></div>"
        },
        "status": "final",
        "subject": {
          "reference": "urn:uuid:49a5940b-d2b8-4c82-8b81-5f9cfae54859",
          "display": "Timothy Smith"
        },
        "effectiveDateTime": "2016-12-05T15:48:21Z",
        "specimen": {
          "reference": "urn:uuid:39be4e3a-df62-4b52-ac2a-f518e395b8c5"
        }
      }
    },
    {
      "fullUrl": "urn:uuid:86deaacf-c79d-419d-ba05-1dab9aa1aae1",
      "resource": {
        "resourceType": "Observation",
        "id": "86deaacf-c79d-419d-ba05-1dab9aa1aae1",
        "meta": {
          "profile": [
            "http://hl7.eu/fhir/laboratory/StructureDefinition/Observation-resultslab-eu-lab"
          ]
        },
        "performer": [
          {
            "display": "The Central European Lab"
          }
        ],
        "category": [
          {
            "coding": [
              {
                "system": "http://terminology.hl7.org/CodeSystem/observation-category",
                "code": "laboratory"
              }
            ]
          }
        ],
        "code": {
          "coding": [
            {
              "code": "6690-2",
              "system": "http://loinc.org",
              "display": "Leukocytes [#/volume] in Blood by Automated count"
            }
          ],
          "text": "Leukocytes [#/volume] in Blood by Automated count"
        },
        "valueQuantity": {
          "system": "http://unitsofmeasure.org",
          "value": 9.2,
          "unit": "10*3/uL",
          "code": "10*3/uL"
        },
        "referenceRange": [
          {
            "low": {
              "value": 3.6,
              "code": "10*3/uL",
              "system": "http://unitsofmeasure.org"
            }
          },
          {
            "high": {
              "value": 10.5,
              "code": "10*3/uL",
              "system": "http://unitsofmeasure.org"
            }
          }
        ],
        "text": {
          "status": "generated",
          "div": "<div xmlns=\"http://www.w3.org/1999/xhtml\"><table class=\"hl7__eu__lab__report\"><tr><th>Test</th><th>05-Dec-2016</th><th>Reference&#xA0;Range</th><th>Unit</th></tr><tr><td>Leukocytes [#/volume] in Blood by Automated count</td><td>9.2</td><td>3.6 - 10.5</td><td></td><td>10*3/uL</td></tr></table></div>"
        },
        "status": "final",
        "subject": {
          "reference": "urn:uuid:49a5940b-d2b8-4c82-8b81-5f9cfae54859",
          "display": "Timothy Smith"
        },
        "effectiveDateTime": "2016-12-05T15:48:21Z",
        "specimen": {
          "reference": "urn:uuid:0b47cf35-8be3-479a-b077-8cde9087f739"
        }
      }
    },
    {
      "fullUrl": "urn:uuid:4cc4b9ab-933b-4042-a06c-3ecfa63f9e69",
      "resource": {
        "resourceType": "Observation",
        "id": "4cc4b9ab-933b-4042-a06c-3ecfa63f9e69",
        "meta": {
          "profile": [
            "http://hl7.eu/fhir/laboratory/StructureDefinition/Observation-resultslab-eu-lab"
          ]
        },
        "performer": [
          {
            "display": "The Central European Lab"
          }
        ],
        "category": [
          {
            "coding": [
              {
                "system": "http://terminology.hl7.org/CodeSystem/observation-category",
                "code": "laboratory"
              }
            ]
          }
        ],
        "code": {
          "coding": [
            {
              "code": "789-8",
              "system": "http://loinc.org",
              "display": "Erythrocytes [#/volume] in Blood by Automated count"
            }
          ],
          "text": "Erythrocytes [#/volume] in Blood by Automated count"
        },
        "valueQuantity": {
          "system": "http://unitsofmeasure.org",
          "value": 4.7,
          "unit": "10*6/uL",
          "code": "10*6/uL"
        },
        "referenceRange": [
          {
            "low": {
              "value": 4.3,
              "code": "10*6/uL",
              "system": "http://unitsofmeasure.org"
            }
          },
          {
            "high": {
              "value": 6.1,
              "code": "10*6/uL",
              "system": "http://unitsofmeasure.org"
            }
          }
        ],
        "text": {
          "status": "generated",
          "div": "<div xmlns=\"http://www.w3.org/1999/xhtml\"><table class=\"hl7__eu__lab__report\"><tr><th>Test</th><th>05-Dec-2016</th><th>Reference&#xA0;Range</th><th>Unit</th></tr><tr><td>Erythrocytes [#/volume] in Blood by Automated count</td><td>4.7</td><td>4.3 - 6.1</td><td></td><td>10*6/uL</td></tr></table></div>"
        },
        "status": "final",
        "subject": {
          "reference": "urn:uuid:49a5940b-d2b8-4c82-8b81-5f9cfae54859",
          "display": "Timothy Smith"
        },
        "effectiveDateTime": "2016-12-05T15:48:21Z",
        "specimen": {
          "reference": "urn:uuid:0b47cf35-8be3-479a-b077-8cde9087f739"
        }
      }
    },
    {
      "fullUrl": "urn:uuid:dd6e6241-bb60-44fa-b2e0-a8a7b617546c",
      "resource": {
        "resourceType": "Observation",
        "id": "dd6e6241-bb60-44fa-b2e0-a8a7b617546c",
        "meta": {
          "profile": [
            "http://hl7.eu/fhir/laboratory/StructureDefinition/Observation-resultslab-eu-lab"
          ]
        },
        "performer": [
          {
            "display": "The Central European Lab"
          }
        ],
        "category": [
          {
            "coding": [
              {
                "system": "http://terminology.hl7.org/CodeSystem/observation-category",
                "code": "laboratory"
              }
            ]
          }
        ],
        "code": {
          "coding": [
            {
              "code": "718-7",
              "system": "http://loinc.org",
              "display": "Hemoglobin [Mass/volume] in Blood"
            }
          ],
          "text": "Hemoglobin [Mass/volume] in Blood"
        },
        "valueQuantity": {
          "system": "http://unitsofmeasure.org",
          "value": 15,
          "unit": "g/dL",
          "code": "g/dL"
        },
        "referenceRange": [
          {
            "low": {
              "value": 13.5,
              "code": "g/dL",
              "system": "http://unitsofmeasure.org"
            }
          },
          {
            "high": {
              "value": 17.5,
              "code": "g/dL",
              "system": "http://unitsofmeasure.org"
            }
          }
        ],
        "text": {
          "status": "generated",
          "div": "<div xmlns=\"http://www.w3.org/1999/xhtml\"><table class=\"hl7__eu__lab__report\"><tr><th>Test</th><th>05-Dec-2016</th><th>Reference&#xA0;Range</th><th>Unit</th></tr><tr><td>Hemoglobin [Mass/volume] in Blood</td><td>15.0</td><td>13.5 - 17.5</td><td></td><td>g/dL</td></tr></table></div>"
        },
        "status": "final",
        "subject": {
          "reference": "urn:uuid:49a5940b-d2b8-4c82-8b81-5f9cfae54859",
          "display": "Timothy Smith"
        },
        "effectiveDateTime": "2016-12-05T15:48:21Z",
        "specimen": {
          "reference": "urn:uuid:0b47cf35-8be3-479a-b077-8cde9087f739"
        }
      }
    },
    {
      "fullUrl": "urn:uuid:e8f4a6ea-8650-4bca-8fd7-7c5ea0932e79",
      "resource": {
        "resourceType": "Observation",
        "id": "e8f4a6ea-8650-4bca-8fd7-7c5ea0932e79",
        "meta": {
          "profile": [
            "http://hl7.eu/fhir/laboratory/StructureDefinition/Observation-resultslab-eu-lab"
          ]
        },
        "performer": [
          {
            "display": "The Central European Lab"
          }
        ],
        "category": [
          {
            "coding": [
              {
                "system": "http://terminology.hl7.org/CodeSystem/observation-category",
                "code": "laboratory"
              }
            ]
          }
        ],
        "code": {
          "coding": [
            {
              "code": "4544-3",
              "system": "http://loinc.org",
              "display": "Hematocrit [Volume Fraction] of Blood by Automated count"
            }
          ],
          "text": "Hematocrit [Volume Fraction] of Blood by Automated count"
        },
        "valueQuantity": {
          "system": "http://unitsofmeasure.org",
          "value": 49.1,
          "unit": "%",
          "code": "%"
        },
        "referenceRange": [
          {
            "low": {
              "value": 38,
              "code": "%",
              "system": "http://unitsofmeasure.org"
            }
          },
          {
            "high": {
              "value": 50,
              "code": "%",
              "system": "http://unitsofmeasure.org"
            }
          }
        ],
        "text": {
          "status": "generated",
          "div": "<div xmlns=\"http://www.w3.org/1999/xhtml\"><table class=\"hl7__eu__lab__report\"><tr><th>Test</th><th>05-Dec-2016</th><th>Reference&#xA0;Range</th><th>Unit</th></tr><tr><td>Hematocrit [Volume Fraction] of Blood by Automated count</td><td>49.1</td><td>38 - 50</td><td></td><td>%</td></tr></table></div>"
        },
        "status": "final",
        "subject": {
          "reference": "urn:uuid:49a5940b-d2b8-4c82-8b81-5f9cfae54859",
          "display": "Timothy Smith"
        },
        "effectiveDateTime": "2016-12-05T15:48:21Z",
        "specimen": {
          "reference": "urn:uuid:0b47cf35-8be3-479a-b077-8cde9087f739"
        }
      }
    },
    {
      "fullUrl": "urn:uuid:a7dbb469-0377-456d-b8aa-c81667ad511e",
      "resource": {
        "resourceType": "Observation",
        "id": "a7dbb469-0377-456d-b8aa-c81667ad511e",
        "meta": {
          "profile": [
            "http://hl7.eu/fhir/laboratory/StructureDefinition/Observation-resultslab-eu-lab"
          ]
        },
        "performer": [
          {
            "display": "The Central European Lab"
          }
        ],
        "category": [
          {
            "coding": [
              {
                "system": "http://terminology.hl7.org/CodeSystem/observation-category",
                "code": "laboratory"
              }
            ]
          }
        ],
        "code": {
          "coding": [
            {
              "code": "787-2",
              "system": "http://loinc.org",
              "display": "MCV [Entitic volume] by Automated count"
            }
          ],
          "text": "MCV [Entitic volume] by Automated count"
        },
        "valueQuantity": {
          "system": "http://unitsofmeasure.org",
          "value": 90,
          "unit": "fL",
          "code": "fL"
        },
        "referenceRange": [
          {
            "low": {
              "value": 76,
              "code": "fL",
              "system": "http://unitsofmeasure.org"
            }
          },
          {
            "high": {
              "value": 98,
              "code": "fL",
              "system": "http://unitsofmeasure.org"
            }
          }
        ],
        "text": {
          "status": "generated",
          "div": "<div xmlns=\"http://www.w3.org/1999/xhtml\"><table class=\"hl7__eu__lab__report\"><tr><th>Test</th><th>05-Dec-2016</th><th>Reference&#xA0;Range</th><th>Unit</th></tr><tr><td>MCV [Entitic volume] by Automated count</td><td>90.0</td><td>76 - 98</td><td></td><td>fL</td></tr></table></div>"
        },
        "status": "final",
        "subject": {
          "reference": "urn:uuid:49a5940b-d2b8-4c82-8b81-5f9cfae54859",
          "display": "Timothy Smith"
        },
        "effectiveDateTime": "2016-12-05T15:48:21Z",
        "specimen": {
          "reference": "urn:uuid:0b47cf35-8be3-479a-b077-8cde9087f739"
        }
      }
    },
    {
      "fullUrl": "urn:uuid:f308babc-336e-4d2e-84a8-202bec734b3d",
      "resource": {
        "resourceType": "Observation",
        "id": "f308babc-336e-4d2e-84a8-202bec734b3d",
        "meta": {
          "profile": [
            "http://hl7.eu/fhir/laboratory/StructureDefinition/Observation-resultslab-eu-lab"
          ]
        },
        "performer": [
          {
            "display": "The Central European Lab"
          }
        ],
        "category": [
          {
            "coding": [
              {
                "system": "http://terminology.hl7.org/CodeSystem/observation-category",
                "code": "laboratory"
              }
            ]
          }
        ],
        "code": {
          "coding": [
            {
              "code": "785-6",
              "system": "http://loinc.org",
              "display": "MCH [Entitic mass] by Automated count"
            }
          ],
          "text": "MCH [Entitic mass] by Automated count"
        },
        "valueQuantity": {
          "system": "http://unitsofmeasure.org",
          "value": 31.7,
          "unit": "pg",
          "code": "pg"
        },
        "referenceRange": [
          {
            "low": {
              "value": 27,
              "code": "pg",
              "system": "http://unitsofmeasure.org"
            }
          },
          {
            "high": {
              "value": 33,
              "code": "pg",
              "system": "http://unitsofmeasure.org"
            }
          }
        ],
        "text": {
          "status": "generated",
          "div": "<div xmlns=\"http://www.w3.org/1999/xhtml\"><table class=\"hl7__eu__lab__report\"><tr><th>Test</th><th>05-Dec-2016</th><th>Reference&#xA0;Range</th><th>Unit</th></tr><tr><td>MCH [Entitic mass] by Automated count</td><td>31.7</td><td>27 - 33</td><td></td><td>pg</td></tr></table></div>"
        },
        "status": "final",
        "subject": {
          "reference": "urn:uuid:49a5940b-d2b8-4c82-8b81-5f9cfae54859",
          "display": "Timothy Smith"
        },
        "effectiveDateTime": "2016-12-05T15:48:21Z",
        "specimen": {
          "reference": "urn:uuid:0b47cf35-8be3-479a-b077-8cde9087f739"
        }
      }
    },
    {
      "fullUrl": "urn:uuid:fc7a4cc3-cf46-499b-a200-b1ebc45db33a",
      "resource": {
        "resourceType": "Observation",
        "id": "fc7a4cc3-cf46-499b-a200-b1ebc45db33a",
        "meta": {
          "profile": [
            "http://hl7.eu/fhir/laboratory/StructureDefinition/Observation-resultslab-eu-lab"
          ]
        },
        "performer": [
          {
            "display": "The Central European Lab"
          }
        ],
        "category": [
          {
            "coding": [
              {
                "system": "http://terminology.hl7.org/CodeSystem/observation-category",
                "code": "laboratory"
              }
            ]
          }
        ],
        "code": {
          "coding": [
            {
              "code": "786-4",
              "system": "http://loinc.org",
              "display": "MCHC [Mass/volume] by Automated count"
            }
          ],
          "text": "MCHC [Mass/volume] by Automated count"
        },
        "valueQuantity": {
          "system": "http://unitsofmeasure.org",
          "value": 34.3,
          "unit": "g/dL",
          "code": "g/dL"
        },
        "referenceRange": [
          {
            "low": {
              "value": 31,
              "code": "g/dL",
              "system": "http://unitsofmeasure.org"
            }
          },
          {
            "high": {
              "value": 37,
              "code": "g/dL",
              "system": "http://unitsofmeasure.org"
            }
          }
        ],
        "text": {
          "status": "generated",
          "div": "<div xmlns=\"http://www.w3.org/1999/xhtml\"><table class=\"hl7__eu__lab__report\"><tr><th>Test</th><th>05-Dec-2016</th><th>Reference&#xA0;Range</th><th>Unit</th></tr><tr><td>MCHC [Mass/volume] by Automated count</td><td>34.3</td><td>31 - 37</td><td></td><td>g/dL</td></tr></table></div>"
        },
        "status": "final",
        "subject": {
          "reference": "urn:uuid:49a5940b-d2b8-4c82-8b81-5f9cfae54859",
          "display": "Timothy Smith"
        },
        "effectiveDateTime": "2016-12-05T15:48:21Z",
        "specimen": {
          "reference": "urn:uuid:0b47cf35-8be3-479a-b077-8cde9087f739"
        }
      }
    },
    {
      "fullUrl": "urn:uuid:329ad9b3-bad2-4d87-bf1f-7fd5886dbf67",
      "resource": {
        "resourceType": "Observation",
        "id": "329ad9b3-bad2-4d87-bf1f-7fd5886dbf67",
        "meta": {
          "profile": [
            "http://hl7.eu/fhir/laboratory/StructureDefinition/Observation-resultslab-eu-lab"
          ]
        },
        "performer": [
          {
            "display": "The Central European Lab"
          }
        ],
        "category": [
          {
            "coding": [
              {
                "system": "http://terminology.hl7.org/CodeSystem/observation-category",
                "code": "laboratory"
              }
            ]
          }
        ],
        "code": {
          "coding": [
            {
              "code": "21000-5",
              "system": "http://loinc.org",
              "display": "Erythrocyte distribution width [Entitic volume] by Automated count"
            }
          ],
          "text": "Erythrocyte distribution width [Entitic volume] by Automated count"
        },
        "valueQuantity": {
          "system": "http://unitsofmeasure.org",
          "value": 41.2,
          "unit": "fL",
          "code": "fL"
        },
        "referenceRange": [
          {
            "low": {
              "value": 36.6,
              "code": "fL",
              "system": "http://unitsofmeasure.org"
            }
          },
          {
            "high": {
              "value": 56.6,
              "code": "fL",
              "system": "http://unitsofmeasure.org"
            }
          }
        ],
        "text": {
          "status": "generated",
          "div": "<div xmlns=\"http://www.w3.org/1999/xhtml\"><table class=\"hl7__eu__lab__report\"><tr><th>Test</th><th>05-Dec-2016</th><th>Reference&#xA0;Range</th><th>Unit</th></tr><tr><td>Erythrocyte distribution width [Entitic volume] by Automated count</td><td>41.2</td><td>36.6 - 56.6</td><td></td><td>fL</td></tr></table></div>"
        },
        "status": "final",
        "subject": {
          "reference": "urn:uuid:49a5940b-d2b8-4c82-8b81-5f9cfae54859",
          "display": "Timothy Smith"
        },
        "effectiveDateTime": "2016-12-05T15:48:21Z",
        "specimen": {
          "reference": "urn:uuid:0b47cf35-8be3-479a-b077-8cde9087f739"
        }
      }
    },
    {
      "fullUrl": "urn:uuid:c8170a14-bba6-4d62-b11b-860b938b630f",
      "resource": {
        "resourceType": "Observation",
        "id": "c8170a14-bba6-4d62-b11b-860b938b630f",
        "meta": {
          "profile": [
            "http://hl7.eu/fhir/laboratory/StructureDefinition/Observation-resultslab-eu-lab"
          ]
        },
        "performer": [
          {
            "display": "The Central European Lab"
          }
        ],
        "category": [
          {
            "coding": [
              {
                "system": "http://terminology.hl7.org/CodeSystem/observation-category",
                "code": "laboratory"
              }
            ]
          }
        ],
        "code": {
          "coding": [
            {
              "code": "777-3",
              "system": "http://loinc.org",
              "display": "Platelets [#/volume] in Blood by Automated count"
            }
          ],
          "text": "Platelets [#/volume] in Blood by Automated count"
        },
        "valueQuantity": {
          "system": "http://unitsofmeasure.org",
          "value": 385.8,
          "unit": "10*3/uL",
          "code": "10*3/uL"
        },
        "referenceRange": [
          {
            "low": {
              "value": 155,
              "code": "10*3/uL",
              "system": "http://unitsofmeasure.org"
            }
          },
          {
            "high": {
              "value": 415,
              "code": "10*3/uL",
              "system": "http://unitsofmeasure.org"
            }
          }
        ],
        "text": {
          "status": "generated",
          "div": "<div xmlns=\"http://www.w3.org/1999/xhtml\"><table class=\"hl7__eu__lab__report\"><tr><th>Test</th><th>05-Dec-2016</th><th>Reference&#xA0;Range</th><th>Unit</th></tr><tr><td>Platelets [#/volume] in Blood by Automated count</td><td>385.8</td><td>155 - 415</td><td></td><td>10*3/uL</td></tr></table></div>"
        },
        "status": "final",
        "subject": {
          "reference": "urn:uuid:49a5940b-d2b8-4c82-8b81-5f9cfae54859",
          "display": "Timothy Smith"
        },
        "effectiveDateTime": "2016-12-05T15:48:21Z",
        "specimen": {
          "reference": "urn:uuid:0b47cf35-8be3-479a-b077-8cde9087f739"
        }
      }
    },
    {
      "fullUrl": "urn:uuid:4de927c0-cae8-4d57-a844-d52a1c41079c",
      "resource": {
        "resourceType": "Observation",
        "id": "4de927c0-cae8-4d57-a844-d52a1c41079c",
        "meta": {
          "profile": [
            "http://hl7.eu/fhir/laboratory/StructureDefinition/Observation-resultslab-eu-lab"
          ]
        },
        "performer": [
          {
            "display": "The Central European Lab"
          }
        ],
        "category": [
          {
            "coding": [
              {
                "system": "http://terminology.hl7.org/CodeSystem/observation-category",
                "code": "laboratory"
              }
            ]
          }
        ],
        "code": {
          "coding": [
            {
              "code": "32207-3",
              "system": "http://loinc.org",
              "display": "Platelet distribution width [Entitic volume] in Blood by Automated count"
            }
          ],
          "text": "Platelet distribution width [Entitic volume] in Blood by Automated count"
        },
        "valueQuantity": {
          "system": "http://unitsofmeasure.org",
          "value": 240.2,
          "unit": "fL",
          "code": "fL"
        },
        "referenceRange": [
          {
            "low": {
              "value": 13.4,
              "code": "fL",
              "system": "http://unitsofmeasure.org"
            }
          },
          {
            "high": {
              "value": 17.4,
              "code": "fL",
              "system": "http://unitsofmeasure.org"
            }
          }
        ],
        "interpretation": [
          {
            "coding": [
              {
                "code": "H",
                "system": "http://terminology.hl7.org/CodeSystem/v3-ObservationInterpretation",
                "display": "High"
              }
            ]
          }
        ],
        "text": {
          "status": "generated",
          "div": "<div xmlns=\"http://www.w3.org/1999/xhtml\"><table class=\"hl7__eu__lab__report\"><tr><th>Test</th><th>05-Dec-2016</th><th>Reference&#xA0;Range</th><th>Unit</th></tr><tr><td>Platelet distribution width [Entitic volume] in Blood by Automated count</td><td>240.2</td><td>13.4 - 17.4</td><td>H</td><td>fL</td></tr></table></div>"
        },
        "status": "final",
        "subject": {
          "reference": "urn:uuid:49a5940b-d2b8-4c82-8b81-5f9cfae54859",
          "display": "Timothy Smith"
        },
        "effectiveDateTime": "2016-12-05T15:48:21Z",
        "specimen": {
          "reference": "urn:uuid:0b47cf35-8be3-479a-b077-8cde9087f739"
        }
      }
    },
    {
      "fullUrl": "urn:uuid:6bada598-2248-47d7-b257-fc6b756947a8",
      "resource": {
        "resourceType": "Observation",
        "id": "6bada598-2248-47d7-b257-fc6b756947a8",
        "meta": {
          "profile": [
            "http://hl7.eu/fhir/laboratory/StructureDefinition/Observation-resultslab-eu-lab"
          ]
        },
        "performer": [
          {
            "display": "The Central European Lab"
          }
        ],
        "category": [
          {
            "coding": [
              {
                "system": "http://terminology.hl7.org/CodeSystem/observation-category",
                "code": "laboratory"
              }
            ]
          }
        ],
        "code": {
          "coding": [
            {
              "code": "32623-1",
              "system": "http://loinc.org",
              "display": "Platelet mean volume [Entitic volume] in Blood by Automated count"
            }
          ],
          "text": "Platelet mean volume [Entitic volume] in Blood by Automated count"
        },
        "valueQuantity": {
          "system": "http://unitsofmeasure.org",
          "value": 9.8,
          "unit": "fL",
          "code": "fL"
        },
        "referenceRange": [
          {
            "low": {
              "value": 7.4,
              "code": "fL",
              "system": "http://unitsofmeasure.org"
            }
          },
          {
            "high": {
              "value": 12,
              "code": "fL",
              "system": "http://unitsofmeasure.org"
            }
          }
        ],
        "text": {
          "status": "generated",
          "div": "<div xmlns=\"http://www.w3.org/1999/xhtml\"><table class=\"hl7__eu__lab__report\"><tr><th>Test</th><th>05-Dec-2016</th><th>Reference&#xA0;Range</th><th>Unit</th></tr><tr><td>Platelet mean volume [Entitic volume] in Blood by Automated count</td><td>9.8</td><td>7.4 - 12</td><td></td><td>fL</td></tr></table></div>"
        },
        "status": "final",
        "subject": {
          "reference": "urn:uuid:49a5940b-d2b8-4c82-8b81-5f9cfae54859",
          "display": "Timothy Smith"
        },
        "effectiveDateTime": "2016-12-05T15:48:21Z",
        "specimen": {
          "reference": "urn:uuid:0b47cf35-8be3-479a-b077-8cde9087f739"
        }
      }
    },
    {
      "fullUrl": "urn:uuid:f5cdd4e3-b09a-465a-a680-f44392d0f623",
      "resource": {
        "resourceType": "Device",
        "id": "f5cdd4e3-b09a-465a-a680-f44392d0f623",
        "deviceName": [
          {
            "name": "SYNDERAI Synthetic Generator",
            "type": "manufacturer-name"
          }
        ],
        "version": [
          {
            "value": "5.0"
          }
        ],
        "text": {
          "status": "generated",
          "div": "<div xmlns=\"http://www.w3.org/1999/xhtml\">SYNDERAI Synthetic Generator v5.0</div>"
        },
        "status": "active\"",
        "distinctIdentifier": "synderai-generator-50",
        "manufacturer": "SYNDERAI Project"
      }
    },
    {
      "fullUrl": "urn:uuid:cca5d630-6298-47b6-92ab-8a9a8eaeaae9",
      "resource": {
        "resourceType": "Provenance",
        "id": "cca5d630-6298-47b6-92ab-8a9a8eaeaae9",
        "target": [
          {
            "reference": "Patient/49a5940b-d2b8-4c82-8b81-5f9cfae54859"
          },
          {
            "reference": "Bundle/f8b433f0-b229-439b-a0a1-f61211959b08"
          },
          {
            "reference": "Composition/1dc965ef-a1c1-42db-813c-f980d3731173"
          },
          {
            "reference": "PractitionerRole/9006ea1d-8922-429a-b9dc-4d5c0a7279f1"
          },
          {
            "reference": "Practitioner/f3d63755-1a54-4846-8ea1-8a12e7f696f7"
          },
          {
            "reference": "PractitionerRole/d3950aba-70fa-4130-8fe8-227ce8cfa5e8"
          },
          {
            "reference": "Organization/4ec6b7d8-c58f-4d6b-a4f5-7db37d38c86a"
          }
        ],
        "activity": {
          "text": "Synthetic Example Data Generation"
        },
        "policy": [
          "https://synderai.net/synderai-synthetic-data-policy"
        ],
        "agent": [
          {
            "type": {
              "text": "author"
            },
            "who": {
              "reference": "Device/f5cdd4e3-b09a-465a-a680-f44392d0f623"
            }
          }
        ],
        "reason": [
          {
            "text": "Interoperability Testing and Training (non-clinical use)"
          }
        ],
        "text": {
          "status": "generated",
          "div": "<div xmlns=\"http://www.w3.org/1999/xhtml\">Provenance for SYNDERAI Synthetic Example Data Resource</div>"
        },
        "recorded": "2016-12-05T16:48:21Z"
      }
    },
    {
      "fullUrl": "urn:uuid:9006ea1d-8922-429a-b9dc-4d5c0a7279f1",
      "resource": {
        "resourceType": "PractitionerRole",
        "id": "9006ea1d-8922-429a-b9dc-4d5c0a7279f1",
        "meta": {
          "profile": [
            "http://hl7.eu/fhir/base/StructureDefinition/practitionerRole-eu"
          ]
        },
        "text": {
          "status": "generated",
          "div": "<div xmlns=\"http://www.w3.org/1999/xhtml\">Laboratory Role Id: 9006ea1d-8922-429a-b9dc-4d5c0a7279f1</div>"
        },
        "practitioner": {
          "reference": "urn:uuid:f3d63755-1a54-4846-8ea1-8a12e7f696f7"
        }
      }
    },
    {
      "fullUrl": "urn:uuid:f3d63755-1a54-4846-8ea1-8a12e7f696f7",
      "resource": {
        "resourceType": "Practitioner",
        "id": "f3d63755-1a54-4846-8ea1-8a12e7f696f7",
        "meta": {
          "profile": [
            "http://hl7.eu/fhir/base/StructureDefinition/practitioner-eu"
          ]
        },
        "identifier": [
          {
            "assigner": {
              "display": "HL7 Europe"
            },
            "system": "urn:oid:2.16.840.1.113883.2.51.999",
            "value": "1d7eaee6-aa24-4226-824f-5b1b6458632f"
          }
        ],
        "name": [
          {
            "prefix": [
              "dr"
            ],
            "given": [
              "Ex"
            ],
            "family": "Ample"
          }
        ],
        "address": [
          {
            "line": [
              "Laboratoire Central Europenne",
              "Boulevard du Jardin Botanique 32"
            ],
            "postalCode": "1000",
            "city": "Brussels",
            "country": "Belgium"
          }
        ],
        "text": {
          "status": "generated",
          "div": "<div xmlns=\"http://www.w3.org/1999/xhtml\">Laboratory: Laboratoire Central Europenne, 1000 Brussels, Belgium</div>"
        }
      }
    }
  ],
  "type": "document",
  "timestamp": "2016-12-05T16:48:21Z"
}
