{
  "resourceType": "Bundle",
  "id": "0c00cbcb-2000-4964-af93-668b1077a3d2",
  "meta": {
    "profile": [
      "http://hl7.eu/fhir/laboratory/StructureDefinition/Bundle-eu-lab"
    ]
  },
  "identifier": {
    "assigner": {
      "display": "HL7 Europe"
    },
    "system": "urn:oid:2.16.840.1.113883.2.51.999",
    "value": "c4572f44-06f4-458e-a400-40840fe38ca8"
  },
  "entry": [
    {
      "fullUrl": "urn:uuid:52365753-8700-4e36-8f7b-3cee424b7f8d",
      "resource": {
        "resourceType": "Composition",
        "id": "52365753-8700-4e36-8f7b-3cee424b7f8d",
        "meta": {
          "profile": [
            "http://hl7.eu/fhir/laboratory/StructureDefinition/Composition-eu-lab"
          ]
        },
        "identifier": {
          "assigner": {
            "display": "HL7 Europe"
          },
          "system": "urn:oid:2.16.840.1.113883.2.51.999",
          "value": "4fa16d1d-1bc7-4f66-8c4f-a53c5a7e997e"
        },
        "author": [
          {
            "reference": "urn:uuid:e481113d-1168-4afc-9436-413824285ff3"
          }
        ],
        "category": [
          {
            "coding": [
              {
                "code": "26436-6",
                "system": "http://loinc.org",
                "display": "Laboratory studies (set)"
              }
            ]
          }
        ],
        "type": {
          "coding": [
            {
              "code": "11502-2",
              "system": "http://loinc.org",
              "display": "Laboratory report"
            }
          ],
          "text": "Laboratory Report"
        },
        "section": [
          {
            "code": {
              "coding": [
                {
                  "code": "26436-6",
                  "system": "http://loinc.org",
                  "display": "Laboratory studies (set)"
                }
              ],
              "text": "Laboratory studies"
            },
            "section": [
              {
                "code": {
                  "coding": [
                    {
                      "code": "$18723-7",
                      "system": "http://loinc.org",
                      "display": "Hematology studies (set)"
                    }
                  ],
                  "text": "Hematology"
                },
                "entry": [
                  {
                    "reference": "urn:uuid:ef8ea963-395d-4bc8-9805-40ddd5bcd069"
                  },
                  {
                    "reference": "urn:uuid:8d742e3a-3593-4a59-b4c9-1ae4efe8a8cc"
                  },
                  {
                    "reference": "urn:uuid:54189874-f321-432a-b4e6-244f99d05cb1"
                  },
                  {
                    "reference": "urn:uuid:ebf15b10-5c35-4872-a889-26e25446e4c0"
                  },
                  {
                    "reference": "urn:uuid:a84a1625-e014-4fa4-acea-18fe667f7104"
                  },
                  {
                    "reference": "urn:uuid:42903a19-6e5b-41be-b9df-8bdabb337acf"
                  },
                  {
                    "reference": "urn:uuid:62a695a9-22cb-42e9-bba4-580ab3e7b3a2"
                  },
                  {
                    "reference": "urn:uuid:8a2602d7-5e4f-4745-a52f-50a064d7c988"
                  },
                  {
                    "reference": "urn:uuid:b3ada9aa-f119-42f5-bd4d-b8b5c06bab46"
                  }
                ],
                "text": {
                  "status": "generated",
                  "div": "<div xmlns=\"http://www.w3.org/1999/xhtml\"><h3>Hematology</h3><table class=\"hl7__eu__lab__report\"><thead><tr><th>Test</th><th>23-MAY-2017</th><th>Reference&#xA0;Range</th><th>Unit</th></tr></thead><tbody><tr><td>Leukocytes [#/volume] in Blood by Automated count</td><td>5.2</td><td>4 - 11</td><td>10*3/uL</td></tr><tr><td>Erythrocytes [#/volume] in Blood by Automated count</td><td>5.4</td><td>3.8 - 5.7</td><td>10*6/uL</td></tr><tr><td>Hemoglobin [Mass/volume] in Blood</td><td><strong>11.7 L</strong></td><td>12 - 16</td><td>g/dL</td></tr><tr><td>Hematocrit [Volume Fraction] of Blood by Automated count</td><td><strong>34.8 L</strong></td><td>38 - 56</td><td>%</td></tr><tr><td>MCV [Entitic volume] by Automated count</td><td>79.6</td><td>78 - 98</td><td>fL</td></tr><tr><td>MCH [Entitic mass] by Automated count</td><td>28.5</td><td>27 - 34</td><td>pg</td></tr><tr><td>MCHC [Mass/volume] by Automated count</td><td><strong>31.5 L</strong></td><td>32 - 35</td><td>g/dL</td></tr><tr><td>Erythrocyte distribution width [Ratio] by Automated count</td><td>14.5</td><td>11.6 - 16.5</td><td>%</td></tr><tr><td>Platelets [#/volume] in Blood by Automated count</td><td><strong>426.3 H</strong></td><td>157 - 415</td><td>10*3/uL</td></tr></tbody></table></div>"
                },
                "title": "Hematology"
              },
              {
                "code": {
                  "coding": [
                    {
                      "code": "$18719-5",
                      "system": "http://loinc.org",
                      "display": "Chemistry studies (set)"
                    }
                  ],
                  "text": "Chemistry"
                },
                "entry": [
                  {
                    "reference": "urn:uuid:78d93f56-22a8-4528-b28c-e2ffabfd8974"
                  },
                  {
                    "reference": "urn:uuid:0ab44865-065f-4641-b144-a0f5367b6526"
                  },
                  {
                    "reference": "urn:uuid:352f2cdb-8505-41fe-8f3f-862d5cb31a2a"
                  },
                  {
                    "reference": "urn:uuid:ab09f66a-2ca1-440b-b810-6d8ae1cfac9b"
                  },
                  {
                    "reference": "urn:uuid:8d533c2c-7bea-4a4a-84e3-1fa831f6fe5a"
                  },
                  {
                    "reference": "urn:uuid:46389a34-fbf9-4cdd-a2df-5b8740792cdb"
                  },
                  {
                    "reference": "urn:uuid:a14e9bed-1e92-464b-ac24-175cfb4da07f"
                  },
                  {
                    "reference": "urn:uuid:23f8f40f-2963-4aca-8190-a588a964ecf3"
                  },
                  {
                    "reference": "urn:uuid:8d79494f-5a60-4dd7-b733-f563562979de"
                  },
                  {
                    "reference": "urn:uuid:07c73354-f3b5-4bf9-aabf-6d2ecbad1fcb"
                  },
                  {
                    "reference": "urn:uuid:f9c09c8b-fde6-4ab9-8bd4-12798e2b76a2"
                  },
                  {
                    "reference": "urn:uuid:5f422173-2d6d-4477-b4bb-3c7771b1b6b0"
                  },
                  {
                    "reference": "urn:uuid:166eff71-61c0-4c1e-8e0a-fd8062e35d8f"
                  },
                  {
                    "reference": "urn:uuid:1a91481e-5d65-446e-ba38-9de641937c5f"
                  },
                  {
                    "reference": "urn:uuid:e3b634fe-1bb5-4a65-8042-55b5725027f3"
                  },
                  {
                    "reference": "urn:uuid:f6ac3291-ace5-4355-9e0f-e8bc0b6db01f"
                  },
                  {
                    "reference": "urn:uuid:0fd01b4b-3cb6-4f4f-8740-c4ba343e2dcc"
                  },
                  {
                    "reference": "urn:uuid:1608ab33-2bf4-46b1-a7c0-f27810ac7654"
                  },
                  {
                    "reference": "urn:uuid:cb6fd726-4d67-4033-9f5c-b997225fa8b8"
                  },
                  {
                    "reference": "urn:uuid:f6debb18-a7dd-404c-a535-0ebf59a5eec8"
                  },
                  {
                    "reference": "urn:uuid:d7efd220-973b-4457-88c3-59f1c529396e"
                  },
                  {
                    "reference": "urn:uuid:375a08dc-d6e2-43dd-881d-44b5d638860e"
                  },
                  {
                    "reference": "urn:uuid:2b47808d-77e1-4061-ad17-26f6e947c648"
                  },
                  {
                    "reference": "urn:uuid:0d184b3e-141b-412b-98c6-21507f89736c"
                  },
                  {
                    "reference": "urn:uuid:5cf04667-4872-4f43-b829-bee6fe45d710"
                  }
                ],
                "text": {
                  "status": "generated",
                  "div": "<div xmlns=\"http://www.w3.org/1999/xhtml\"><h3>Chemistry</h3><table class=\"hl7__eu__lab__report\"><thead><tr><th>Test</th><th>23-MAY-2017</th><th>Reference&#xA0;Range</th><th>Unit</th></tr></thead><tbody><tr><td>Glucose [Mass/volume] in Serum or Plasma</td><td>71.5</td><td>70 - 99</td><td>mg/dL</td></tr><tr><td>Urea nitrogen [Mass/volume] in Serum or Plasma</td><td>7.8</td><td>7 - 20</td><td>mg/dL</td></tr><tr><td>Creatinine [Mass/volume] in Serum or Plasma</td><td><strong>2.6 H</strong></td><td>0.6 - 1.3</td><td>mg/dL</td></tr><tr><td>Calcium [Mass/volume] in Serum or Plasma</td><td>9.7</td><td>8.5 - 10.4</td><td>mg/dL</td></tr><tr><td>Sodium [Moles/volume] in Serum or Plasma</td><td>136.6</td><td>135 - 145</td><td>mmol/L</td></tr><tr><td>Potassium [Moles/volume] in Serum or Plasma</td><td>4.3</td><td>3.5 - 5.1</td><td>mmol/L</td></tr><tr><td>Chloride [Moles/volume] in Serum or Plasma</td><td>105.0</td><td>98 - 108</td><td>mmol/L</td></tr><tr><td>Carbon dioxide, total [Moles/volume] in Serum or Plasma</td><td>23.3</td><td>22 - 32</td><td>mmol/L</td></tr><tr><td>Protein [Mass/volume] in Serum or Plasma</td><td>6.1</td><td>6 - 8.3</td><td>g/dL</td></tr><tr><td>Albumin [Mass/volume] in Serum or Plasma</td><td>4.2</td><td>3.5 - 5</td><td>g/dL</td></tr><tr><td>Bilirubin.total [Mass/volume] in Serum or Plasma</td><td><strong>11.0 H</strong></td><td>0.3 - 1.2</td><td>mg/dL</td></tr><tr><td>Alkaline phosphatase [Enzymatic activity/volume] in Serum or Plasma</td><td>98.4</td><td>32 - 150</td><td>U/L</td></tr><tr><td>Alanine aminotransferase [Enzymatic activity/volume] in Serum or Plasma</td><td><strong>35.6 H</strong></td><td>13 - 32</td><td>U/L</td></tr><tr><td>Aspartate aminotransferase [Enzymatic activity/volume] in Serum or Plasma</td><td>28.0</td><td>10 - 40</td><td>U/L</td></tr><tr><td>Magnesium [Mass/volume] in Serum or Plasma</td><td>1.9</td><td>1.7 - 2.6</td><td>mg/dL</td></tr><tr><td>Phosphate [Mass/volume] in Serum or Plasma</td><td>4.0</td><td>2.5 - 4.5</td><td>mg/dL</td></tr><tr><td>pH of Arterial blood</td><td><strong>7.0 L</strong></td><td>7.35 - 7.45</td><td>[pH]</td></tr><tr><td>Carbon dioxide [Partial pressure] in Arterial blood</td><td>40.2</td><td>38 - 48</td><td>mm[Hg]</td></tr><tr><td>Oxygen [Partial pressure] in Arterial blood</td><td>97.8</td><td>75 - 100</td><td>mm[Hg]</td></tr><tr><td>Bicarbonate [Moles/volume] in Arterial blood</td><td>22.8</td><td>22 - 31</td><td>mmol/L</td></tr><tr><td>Oxygen saturation in Arterial blood</td><td><strong>94.0 L</strong></td><td>95 - 100</td><td>%</td></tr><tr><td>Cholesterol [Mass/volume] in Serum or Plasma</td><td><strong>299.5 H</strong></td><td>130 - 200</td><td>mg/dL</td></tr><tr><td>Triglyceride [Mass/volume] in Serum or Plasma</td><td>140.8</td><td>0 - 199</td><td>mg/dL</td></tr><tr><td>Cholesterol in LDL [Mass/volume] in Serum or Plasma by Direct assay</td><td><strong>210.5 H</strong></td><td>0 - 130</td><td>mg/dL</td></tr><tr><td>Cholesterol in HDL [Mass/volume] in Serum or Plasma</td><td>60.9</td><td>50 - 100</td><td>mg/dL</td></tr></tbody></table></div>"
                },
                "title": "Chemistry"
              },
              {
                "code": {
                  "coding": [
                    {
                      "code": "$18720-3",
                      "system": "http://loinc.org",
                      "display": "Coagulation studies (set)"
                    }
                  ],
                  "text": "Coagulation"
                },
                "entry": [
                  {
                    "reference": "urn:uuid:01d0a9dd-ffdc-4694-abe0-50c278e99263"
                  },
                  {
                    "reference": "urn:uuid:70d55ad5-8c01-4f92-9755-cff83938d5ee"
                  },
                  {
                    "reference": "urn:uuid:4e387ff9-4b1b-44e3-9292-15f47b1fb7a9"
                  }
                ],
                "text": {
                  "status": "generated",
                  "div": "<div xmlns=\"http://www.w3.org/1999/xhtml\"><h3>Coagulation</h3><table class=\"hl7__eu__lab__report\"><thead><tr><th>Test</th><th>23-MAY-2017</th><th>Reference&#xA0;Range</th><th>Unit</th></tr></thead><tbody><tr><td>Prothrombin time (PT)</td><td><strong>10.1 L</strong></td><td>11 - 15</td><td>s</td></tr><tr><td>INR in Platelet poor plasma by Coagulation assay</td><td><strong>1.2 H</strong></td><td>0.9 - 1.1</td><td>{INR}</td></tr><tr><td>aPTT in Blood by Coagulation assay</td><td>32.9</td><td>25 - 35</td><td>s</td></tr></tbody></table></div>"
                },
                "title": "Coagulation"
              }
            ],
            "title": "Laboratory Report"
          },
          {
            "text": {
              "status": "generated",
              "div": "<div xmlns=\"http://www.w3.org/1999/xhtml\"><h3>Annotation</h3><table class=\"hl7__eu__lab__report\"><tr><th>Conclusion and Recommendations based on this report and previous findings known to us</th></tr><tr><td>The patient shows mild normocytic, hypochromic anemia, thrombocytosis, impaired renal function (elevated creatinine), marked hyperbilirubinemia, mildly elevated ALT, and significant metabolic acidosis (low pH, low O2 saturation). Coagulation is slightly altered (low PT, high INR). Lipid profile is markedly abnormal (high total and LDL cholesterol). Findings suggest possible liver dysfunction, renal impairment, and increased cardiovascular risk. Immediate clinical correlation and further evaluation are recommended.</td></tr></table></div>"
            },
            "code": {
              "coding": [
                {
                  "system": "http://loinc.org",
                  "code": "48767-8",
                  "display": "Annotation comment"
                }
              ]
            },
            "title": "Annotation comment"
          }
        ],
        "status": "final",
        "subject": {
          "reference": "urn:uuid:417e7fcf-9945-45af-9d09-613bcd6764e0",
          "display": "Aniela Prażmo"
        },
        "date": "2017-05-23T20:47:50Z",
        "title": "Laboratory Report",
        "confidentiality": "N"
      }
    },
    {
      "fullUrl": "urn:uuid:5c537105-8eb4-4766-82b4-bf7195292954",
      "resource": {
        "resourceType": "DiagnosticReport",
        "id": "5c537105-8eb4-4766-82b4-bf7195292954",
        "meta": {
          "profile": [
            "http://hl7.eu/fhir/laboratory/StructureDefinition/DiagnosticReport-eu-lab"
          ]
        },
        "identifier": [
          {
            "assigner": {
              "display": "HL7 Europe"
            },
            "system": "urn:oid:2.16.840.1.113883.2.51.999",
            "value": "2cfaaf5c-019e-40d2-bd7e-952852057591"
          }
        ],
        "extension": [
          {
            "url": "http://hl7.org/fhir/5.0/StructureDefinition/extension-DiagnosticReport.composition",
            "valueReference": {
              "reference": "urn:uuid:4fa16d1d-1bc7-4f66-8c4f-a53c5a7e997e"
            }
          }
        ],
        "category": [
          {
            "coding": [
              {
                "code": "26436-6",
                "system": "http://loinc.org",
                "display": "Laboratory studies (set)"
              }
            ]
          }
        ],
        "specimen": [
          {
            "reference": "urn:uuid:44e1e391-7c79-46d3-b4ab-166918f909d7"
          },
          {
            "reference": "urn:uuid:44e1e391-7c79-46d3-b4ab-166918f909d7"
          },
          {
            "reference": "urn:uuid:bbd39aaf-9aba-430f-8651-9d223c99e05e"
          },
          {
            "reference": "urn:uuid:bfe50cae-c83e-4561-9cdb-e7f114538e32"
          },
          {
            "reference": "urn:uuid:600e566f-ccce-42f6-bd64-136e597e5706"
          }
        ],
        "result": [
          {
            "reference": "urn:uuid:ef8ea963-395d-4bc8-9805-40ddd5bcd069"
          },
          {
            "reference": "urn:uuid:8d742e3a-3593-4a59-b4c9-1ae4efe8a8cc"
          },
          {
            "reference": "urn:uuid:54189874-f321-432a-b4e6-244f99d05cb1"
          },
          {
            "reference": "urn:uuid:ebf15b10-5c35-4872-a889-26e25446e4c0"
          },
          {
            "reference": "urn:uuid:a84a1625-e014-4fa4-acea-18fe667f7104"
          },
          {
            "reference": "urn:uuid:42903a19-6e5b-41be-b9df-8bdabb337acf"
          },
          {
            "reference": "urn:uuid:62a695a9-22cb-42e9-bba4-580ab3e7b3a2"
          },
          {
            "reference": "urn:uuid:8a2602d7-5e4f-4745-a52f-50a064d7c988"
          },
          {
            "reference": "urn:uuid:b3ada9aa-f119-42f5-bd4d-b8b5c06bab46"
          },
          {
            "reference": "urn:uuid:78d93f56-22a8-4528-b28c-e2ffabfd8974"
          },
          {
            "reference": "urn:uuid:0ab44865-065f-4641-b144-a0f5367b6526"
          },
          {
            "reference": "urn:uuid:352f2cdb-8505-41fe-8f3f-862d5cb31a2a"
          },
          {
            "reference": "urn:uuid:ab09f66a-2ca1-440b-b810-6d8ae1cfac9b"
          },
          {
            "reference": "urn:uuid:8d533c2c-7bea-4a4a-84e3-1fa831f6fe5a"
          },
          {
            "reference": "urn:uuid:46389a34-fbf9-4cdd-a2df-5b8740792cdb"
          },
          {
            "reference": "urn:uuid:a14e9bed-1e92-464b-ac24-175cfb4da07f"
          },
          {
            "reference": "urn:uuid:23f8f40f-2963-4aca-8190-a588a964ecf3"
          },
          {
            "reference": "urn:uuid:8d79494f-5a60-4dd7-b733-f563562979de"
          },
          {
            "reference": "urn:uuid:07c73354-f3b5-4bf9-aabf-6d2ecbad1fcb"
          },
          {
            "reference": "urn:uuid:f9c09c8b-fde6-4ab9-8bd4-12798e2b76a2"
          },
          {
            "reference": "urn:uuid:5f422173-2d6d-4477-b4bb-3c7771b1b6b0"
          },
          {
            "reference": "urn:uuid:166eff71-61c0-4c1e-8e0a-fd8062e35d8f"
          },
          {
            "reference": "urn:uuid:1a91481e-5d65-446e-ba38-9de641937c5f"
          },
          {
            "reference": "urn:uuid:e3b634fe-1bb5-4a65-8042-55b5725027f3"
          },
          {
            "reference": "urn:uuid:f6ac3291-ace5-4355-9e0f-e8bc0b6db01f"
          },
          {
            "reference": "urn:uuid:01d0a9dd-ffdc-4694-abe0-50c278e99263"
          },
          {
            "reference": "urn:uuid:70d55ad5-8c01-4f92-9755-cff83938d5ee"
          },
          {
            "reference": "urn:uuid:4e387ff9-4b1b-44e3-9292-15f47b1fb7a9"
          },
          {
            "reference": "urn:uuid:0fd01b4b-3cb6-4f4f-8740-c4ba343e2dcc"
          },
          {
            "reference": "urn:uuid:1608ab33-2bf4-46b1-a7c0-f27810ac7654"
          },
          {
            "reference": "urn:uuid:cb6fd726-4d67-4033-9f5c-b997225fa8b8"
          },
          {
            "reference": "urn:uuid:f6debb18-a7dd-404c-a535-0ebf59a5eec8"
          },
          {
            "reference": "urn:uuid:d7efd220-973b-4457-88c3-59f1c529396e"
          },
          {
            "reference": "urn:uuid:375a08dc-d6e2-43dd-881d-44b5d638860e"
          },
          {
            "reference": "urn:uuid:2b47808d-77e1-4061-ad17-26f6e947c648"
          },
          {
            "reference": "urn:uuid:0d184b3e-141b-412b-98c6-21507f89736c"
          },
          {
            "reference": "urn:uuid:5cf04667-4872-4f43-b829-bee6fe45d710"
          }
        ],
        "status": "registered",
        "code": {
          "coding": [
            {
              "code": "11502-2",
              "system": "http://loinc.org",
              "display": "Laboratory report"
            }
          ]
        },
        "subject": {
          "reference": "urn:uuid:417e7fcf-9945-45af-9d09-613bcd6764e0",
          "display": "Aniela Prażmo"
        }
      }
    },
    {
      "fullUrl": "urn:uuid:417e7fcf-9945-45af-9d09-613bcd6764e0",
      "resource": {
        "resourceType": "Patient",
        "id": "417e7fcf-9945-45af-9d09-613bcd6764e0",
        "meta": {
          "security": [
            {
              "system": "http://terminology.hl7.org/CodeSystem/v3-ActReason",
              "code": "HTEST"
            },
            {
              "system": "http://terminology.hl7.org/CodeSystem/v3-ActReason",
              "code": "TRAIN"
            }
          ],
          "tag": [
            {
              "system": "https://synderai.net/fhir/CodeSystem/tags",
              "code": "synthetic",
              "display": "SYNDERAI Synthetic data"
            }
          ],
          "profile": [
            "http://hl7.eu/fhir/base/StructureDefinition/patient-eu-core"
          ]
        },
        "identifier": [
          {
            "type": {
              "coding": [
                {
                  "code": "PT",
                  "system": "http://terminology.hl7.org/CodeSystem/v2-0203"
                }
              ]
            },
            "system": "http://ec.europa.eu/identifier/eci",
            "value": "9657-869171-7"
          },
          {
            "type": {
              "coding": [
                {
                  "code": "MR",
                  "system": "http://terminology.hl7.org/CodeSystem/v2-0203"
                }
              ]
            },
            "system": "http://local.setting.eu/identifier",
            "value": "ab00158c-e2d0-01e4-6cf5-730949937551"
          }
        ],
        "name": [
          {
            "family": "Prażmo"
          },
          {
            "given": [
              "Aniela"
            ]
          },
          {
            "text": "Aniela Prażmo"
          }
        ],
        "address": [
          {
            "line": [
              "pl. Kołłątaja 62/43"
            ],
            "use": "home",
            "type": "physical",
            "postalCode": "97-200",
            "city": "Tomaszów Mazowiecki",
            "country": "Poland"
          }
        ],
        "telecom": [
          {
            "system": "phone",
            "value": "+48 782 809 233"
          }
        ],
        "extension": [
          {
            "url": "http://hl7.org/fhir/StructureDefinition/patient-nationality",
            "valueCodeableConcept": {
              "coding": [
                {
                  "code": "PL",
                  "system": "http://hl7.org/fhir/ValueSet/country"
                }
              ]
            }
          }
        ],
        "text": {
          "status": "generated",
          "div": "<div xmlns=\"http://www.w3.org/1999/xhtml\"><table class=\"hl7__ips\"><tr><td>Aniela Prażmo</td><td>female</td><td>08-Feb-1941</td></tr></table></div>"
        },
        "gender": "female",
        "birthDate": "1941-02-08"
      }
    },
    {
      "fullUrl": "urn:uuid:8a187c9f-7588-432f-b5c7-c6b135006070",
      "resource": {
        "resourceType": "ServiceRequest",
        "id": "8a187c9f-7588-432f-b5c7-c6b135006070",
        "meta": {
          "profile": [
            "http://hl7.eu/fhir/laboratory/StructureDefinition/ServiceRequest-eu-lab"
          ]
        },
        "identifier": [
          {
            "system": "http://example.org",
            "value": "2247ff5b-eb5c-42f1-9a71-2ff174069b33"
          }
        ],
        "specimen": [
          {
            "reference": "urn:uuid:44e1e391-7c79-46d3-b4ab-166918f909d7"
          },
          {
            "reference": "urn:uuid:bbd39aaf-9aba-430f-8651-9d223c99e05e"
          },
          {
            "reference": "urn:uuid:bfe50cae-c83e-4561-9cdb-e7f114538e32"
          },
          {
            "reference": "urn:uuid:600e566f-ccce-42f6-bd64-136e597e5706"
          }
        ],
        "reasonCode": [
          {
            "coding": [
              {
                "code": "64859006",
                "system": "http://snomed.info/sct",
                "display": "Osteoporosis"
              }
            ]
          },
          {
            "coding": [
              {
                "code": "55822004",
                "system": "http://snomed.info/sct",
                "display": "Hyperlipidemia"
              }
            ]
          },
          {
            "coding": [
              {
                "code": "414545008",
                "system": "http://snomed.info/sct",
                "display": "Ischemic heart disease"
              }
            ]
          },
          {
            "coding": [
              {
                "code": "59621000",
                "system": "http://snomed.info/sct",
                "display": "Essential hypertension"
              }
            ]
          },
          {
            "coding": [
              {
                "code": "40055000",
                "system": "http://snomed.info/sct",
                "display": "Chronic sinusitis"
              }
            ]
          }
        ],
        "status": "active",
        "intent": "order",
        "code": {
          "coding": [
            {
              "code": "108252007",
              "system": "http://snomed.info/sct",
              "display": "Laboratory procedure"
            }
          ]
        },
        "subject": {
          "reference": "urn:uuid:417e7fcf-9945-45af-9d09-613bcd6764e0",
          "display": "Aniela Prażmo"
        },
        "requester": {
          "reference": "urn:uuid:b584a7a3-f8e2-43e9-9584-86bc51e0a0bf"
        }
      }
    },
    {
      "fullUrl": "urn:uuid:b584a7a3-f8e2-43e9-9584-86bc51e0a0bf",
      "resource": {
        "resourceType": "PractitionerRole",
        "id": "b584a7a3-f8e2-43e9-9584-86bc51e0a0bf",
        "meta": {
          "profile": [
            "http://hl7.eu/fhir/base/StructureDefinition/practitionerRole-eu"
          ]
        },
        "text": {
          "status": "generated",
          "div": "<div xmlns=\"http://www.w3.org/1999/xhtml\">Provider Role Id: b584a7a3-f8e2-43e9-9584-86bc51e0a0bf</div>"
        },
        "organization": {
          "reference": "urn:uuid:0ab5a2c7-6dd7-4971-ac62-73296625f066"
        }
      }
    },
    {
      "fullUrl": "urn:uuid:0ab5a2c7-6dd7-4971-ac62-73296625f066",
      "resource": {
        "resourceType": "Organization",
        "id": "0ab5a2c7-6dd7-4971-ac62-73296625f066",
        "meta": {
          "profile": [
            "http://hl7.eu/fhir/base/StructureDefinition/organization-eu"
          ]
        },
        "identifier": [
          {
            "assigner": {
              "display": "HL7 Europe"
            },
            "system": "urn:oid:2.16.840.1.113883.2.51.999",
            "value": "addb2073-75ed-47de-b5c0-6580db007ce2"
          }
        ],
        "address": [
          {
            "city": "Tomaszów Mazowiecki",
            "postalCode": "97-200",
            "country": "Poland"
          }
        ],
        "text": {
          "status": "generated",
          "div": "<div xmlns=\"http://www.w3.org/1999/xhtml\">Provider Organization: Poradnia rehabilitacyjna</div>"
        },
        "name": "Poradnia rehabilitacyjna"
      }
    },
    {
      "fullUrl": "urn:uuid:44e1e391-7c79-46d3-b4ab-166918f909d7",
      "resource": {
        "resourceType": "Specimen",
        "id": "44e1e391-7c79-46d3-b4ab-166918f909d7",
        "meta": {
          "profile": [
            "http://hl7.eu/fhir/laboratory/StructureDefinition/Specimen-eu-lab"
          ]
        },
        "collection": {
          "collectedDateTime": "2017-05-23"
        },
        "text": {
          "status": "generated",
          "div": "<div xmlns=\"http://www.w3.org/1999/xhtml\"><table class=\"hl7__eu__lab__report\"><tr><th>Specimen</th><th>Collection Date</th></tr><tr><td>Whole blood specimen (specimen)</td><td><span class=\"nb\">23-May-2017</span></td></tr></table></div>"
        },
        "type": {
          "coding": [
            {
              "code": "258580003",
              "system": "http://snomed.info/sct",
              "display": "Whole blood specimen (specimen)"
            }
          ]
        }
      }
    },
    {
      "fullUrl": "urn:uuid:44e1e391-7c79-46d3-b4ab-166918f909d7",
      "resource": {
        "resourceType": "Specimen",
        "id": "44e1e391-7c79-46d3-b4ab-166918f909d7",
        "meta": {
          "profile": [
            "http://hl7.eu/fhir/laboratory/StructureDefinition/Specimen-eu-lab"
          ]
        },
        "collection": {
          "collectedDateTime": "2017-05-23"
        },
        "text": {
          "status": "generated",
          "div": "<div xmlns=\"http://www.w3.org/1999/xhtml\"><table class=\"hl7__eu__lab__report\"><tr><th>Specimen</th><th>Collection Date</th></tr><tr><td>Whole blood specimen (specimen)</td><td><span class=\"nb\">23-May-2017</span></td></tr></table></div>"
        },
        "type": {
          "coding": [
            {
              "code": "258580003",
              "system": "http://snomed.info/sct",
              "display": "Whole blood specimen (specimen)"
            }
          ]
        }
      }
    },
    {
      "fullUrl": "urn:uuid:bbd39aaf-9aba-430f-8651-9d223c99e05e",
      "resource": {
        "resourceType": "Specimen",
        "id": "bbd39aaf-9aba-430f-8651-9d223c99e05e",
        "meta": {
          "profile": [
            "http://hl7.eu/fhir/laboratory/StructureDefinition/Specimen-eu-lab"
          ]
        },
        "collection": {
          "collectedDateTime": "2017-05-23"
        },
        "text": {
          "status": "generated",
          "div": "<div xmlns=\"http://www.w3.org/1999/xhtml\"><table class=\"hl7__eu__lab__report\"><tr><th>Specimen</th><th>Collection Date</th></tr><tr><td>Acellular blood (serum or plasma) specimen</td><td><span class=\"nb\">23-May-2017</span></td></tr></table></div>"
        },
        "type": {
          "coding": [
            {
              "code": "122592007",
              "system": "http://snomed.info/sct",
              "display": "Acellular blood (serum or plasma) specimen"
            }
          ]
        }
      }
    },
    {
      "fullUrl": "urn:uuid:bfe50cae-c83e-4561-9cdb-e7f114538e32",
      "resource": {
        "resourceType": "Specimen",
        "id": "bfe50cae-c83e-4561-9cdb-e7f114538e32",
        "meta": {
          "profile": [
            "http://hl7.eu/fhir/laboratory/StructureDefinition/Specimen-eu-lab"
          ]
        },
        "collection": {
          "collectedDateTime": "2017-05-23"
        },
        "text": {
          "status": "generated",
          "div": "<div xmlns=\"http://www.w3.org/1999/xhtml\"><table class=\"hl7__eu__lab__report\"><tr><th>Specimen</th><th>Collection Date</th></tr><tr><td>Platelet poor plasma specimen</td><td><span class=\"nb\">23-May-2017</span></td></tr></table></div>"
        },
        "type": {
          "coding": [
            {
              "code": "119362004",
              "system": "http://snomed.info/sct",
              "display": "Platelet poor plasma specimen"
            }
          ]
        }
      }
    },
    {
      "fullUrl": "urn:uuid:600e566f-ccce-42f6-bd64-136e597e5706",
      "resource": {
        "resourceType": "Specimen",
        "id": "600e566f-ccce-42f6-bd64-136e597e5706",
        "meta": {
          "profile": [
            "http://hl7.eu/fhir/laboratory/StructureDefinition/Specimen-eu-lab"
          ]
        },
        "collection": {
          "collectedDateTime": "2017-05-23"
        },
        "text": {
          "status": "generated",
          "div": "<div xmlns=\"http://www.w3.org/1999/xhtml\"><table class=\"hl7__eu__lab__report\"><tr><th>Specimen</th><th>Collection Date</th></tr><tr><td>Arterial blood specimen</td><td><span class=\"nb\">23-May-2017</span></td></tr></table></div>"
        },
        "type": {
          "coding": [
            {
              "code": "122552005",
              "system": "http://snomed.info/sct",
              "display": "Arterial blood specimen"
            }
          ]
        }
      }
    },
    {
      "fullUrl": "urn:uuid:ef8ea963-395d-4bc8-9805-40ddd5bcd069",
      "resource": {
        "resourceType": "Observation",
        "id": "ef8ea963-395d-4bc8-9805-40ddd5bcd069",
        "meta": {
          "profile": [
            "http://hl7.eu/fhir/laboratory/StructureDefinition/Observation-resultslab-eu-lab"
          ]
        },
        "performer": [
          {
            "display": "The Central European Lab"
          }
        ],
        "category": [
          {
            "coding": [
              {
                "system": "http://terminology.hl7.org/CodeSystem/observation-category",
                "code": "laboratory"
              }
            ]
          }
        ],
        "code": {
          "coding": [
            {
              "code": "6690-2",
              "system": "http://loinc.org",
              "display": "Leukocytes [#/volume] in Blood by Automated count"
            }
          ],
          "text": "Leukocytes [#/volume] in Blood by Automated count"
        },
        "valueQuantity": {
          "system": "http://unitsofmeasure.org",
          "value": 5.2,
          "unit": "10*3/uL",
          "code": "10*3/uL"
        },
        "referenceRange": [
          {
            "low": {
              "value": 4,
              "code": "10*3/uL",
              "system": "http://unitsofmeasure.org"
            }
          },
          {
            "high": {
              "value": 11,
              "code": "10*3/uL",
              "system": "http://unitsofmeasure.org"
            }
          }
        ],
        "text": {
          "status": "generated",
          "div": "<div xmlns=\"http://www.w3.org/1999/xhtml\"><table class=\"hl7__eu__lab__report\"><tr><th>Test</th><th>23-May-2017</th><th>Reference&#xA0;Range</th><th>Unit</th></tr><tr><td>Leukocytes [#/volume] in Blood by Automated count</td><td>5.2</td><td>4 - 11</td><td></td><td>10*3/uL</td></tr></table></div>"
        },
        "status": "final",
        "subject": {
          "reference": "urn:uuid:417e7fcf-9945-45af-9d09-613bcd6764e0",
          "display": "Aniela Prażmo"
        },
        "effectiveDateTime": "2017-05-23T18:47:50Z",
        "specimen": {
          "reference": "urn:uuid:44e1e391-7c79-46d3-b4ab-166918f909d7"
        }
      }
    },
    {
      "fullUrl": "urn:uuid:8d742e3a-3593-4a59-b4c9-1ae4efe8a8cc",
      "resource": {
        "resourceType": "Observation",
        "id": "8d742e3a-3593-4a59-b4c9-1ae4efe8a8cc",
        "meta": {
          "profile": [
            "http://hl7.eu/fhir/laboratory/StructureDefinition/Observation-resultslab-eu-lab"
          ]
        },
        "performer": [
          {
            "display": "The Central European Lab"
          }
        ],
        "category": [
          {
            "coding": [
              {
                "system": "http://terminology.hl7.org/CodeSystem/observation-category",
                "code": "laboratory"
              }
            ]
          }
        ],
        "code": {
          "coding": [
            {
              "code": "789-8",
              "system": "http://loinc.org",
              "display": "Erythrocytes [#/volume] in Blood by Automated count"
            }
          ],
          "text": "Erythrocytes [#/volume] in Blood by Automated count"
        },
        "valueQuantity": {
          "system": "http://unitsofmeasure.org",
          "value": 5.4,
          "unit": "10*6/uL",
          "code": "10*6/uL"
        },
        "referenceRange": [
          {
            "low": {
              "value": 3.8,
              "code": "10*6/uL",
              "system": "http://unitsofmeasure.org"
            }
          },
          {
            "high": {
              "value": 5.7,
              "code": "10*6/uL",
              "system": "http://unitsofmeasure.org"
            }
          }
        ],
        "text": {
          "status": "generated",
          "div": "<div xmlns=\"http://www.w3.org/1999/xhtml\"><table class=\"hl7__eu__lab__report\"><tr><th>Test</th><th>23-May-2017</th><th>Reference&#xA0;Range</th><th>Unit</th></tr><tr><td>Erythrocytes [#/volume] in Blood by Automated count</td><td>5.4</td><td>3.8 - 5.7</td><td></td><td>10*6/uL</td></tr></table></div>"
        },
        "status": "final",
        "subject": {
          "reference": "urn:uuid:417e7fcf-9945-45af-9d09-613bcd6764e0",
          "display": "Aniela Prażmo"
        },
        "effectiveDateTime": "2017-05-23T18:47:50Z",
        "specimen": {
          "reference": "urn:uuid:44e1e391-7c79-46d3-b4ab-166918f909d7"
        }
      }
    },
    {
      "fullUrl": "urn:uuid:54189874-f321-432a-b4e6-244f99d05cb1",
      "resource": {
        "resourceType": "Observation",
        "id": "54189874-f321-432a-b4e6-244f99d05cb1",
        "meta": {
          "profile": [
            "http://hl7.eu/fhir/laboratory/StructureDefinition/Observation-resultslab-eu-lab"
          ]
        },
        "performer": [
          {
            "display": "The Central European Lab"
          }
        ],
        "category": [
          {
            "coding": [
              {
                "system": "http://terminology.hl7.org/CodeSystem/observation-category",
                "code": "laboratory"
              }
            ]
          }
        ],
        "code": {
          "coding": [
            {
              "code": "718-7",
              "system": "http://loinc.org",
              "display": "Hemoglobin [Mass/volume] in Blood"
            }
          ],
          "text": "Hemoglobin [Mass/volume] in Blood"
        },
        "valueQuantity": {
          "system": "http://unitsofmeasure.org",
          "value": 11.7,
          "unit": "g/dL",
          "code": "g/dL"
        },
        "referenceRange": [
          {
            "low": {
              "value": 12,
              "code": "g/dL",
              "system": "http://unitsofmeasure.org"
            }
          },
          {
            "high": {
              "value": 16,
              "code": "g/dL",
              "system": "http://unitsofmeasure.org"
            }
          }
        ],
        "interpretation": [
          {
            "coding": [
              {
                "code": "L",
                "system": "http://terminology.hl7.org/CodeSystem/v3-ObservationInterpretation",
                "display": "Low"
              }
            ]
          }
        ],
        "text": {
          "status": "generated",
          "div": "<div xmlns=\"http://www.w3.org/1999/xhtml\"><table class=\"hl7__eu__lab__report\"><tr><th>Test</th><th>23-May-2017</th><th>Reference&#xA0;Range</th><th>Unit</th></tr><tr><td>Hemoglobin [Mass/volume] in Blood</td><td>11.7</td><td>12 - 16</td><td>L</td><td>g/dL</td></tr></table></div>"
        },
        "status": "final",
        "subject": {
          "reference": "urn:uuid:417e7fcf-9945-45af-9d09-613bcd6764e0",
          "display": "Aniela Prażmo"
        },
        "effectiveDateTime": "2017-05-23T18:47:50Z",
        "specimen": {
          "reference": "urn:uuid:44e1e391-7c79-46d3-b4ab-166918f909d7"
        }
      }
    },
    {
      "fullUrl": "urn:uuid:ebf15b10-5c35-4872-a889-26e25446e4c0",
      "resource": {
        "resourceType": "Observation",
        "id": "ebf15b10-5c35-4872-a889-26e25446e4c0",
        "meta": {
          "profile": [
            "http://hl7.eu/fhir/laboratory/StructureDefinition/Observation-resultslab-eu-lab"
          ]
        },
        "performer": [
          {
            "display": "The Central European Lab"
          }
        ],
        "category": [
          {
            "coding": [
              {
                "system": "http://terminology.hl7.org/CodeSystem/observation-category",
                "code": "laboratory"
              }
            ]
          }
        ],
        "code": {
          "coding": [
            {
              "code": "4544-3",
              "system": "http://loinc.org",
              "display": "Hematocrit [Volume Fraction] of Blood by Automated count"
            }
          ],
          "text": "Hematocrit [Volume Fraction] of Blood by Automated count"
        },
        "valueQuantity": {
          "system": "http://unitsofmeasure.org",
          "value": 34.8,
          "unit": "%",
          "code": "%"
        },
        "referenceRange": [
          {
            "low": {
              "value": 38,
              "code": "%",
              "system": "http://unitsofmeasure.org"
            }
          },
          {
            "high": {
              "value": 56,
              "code": "%",
              "system": "http://unitsofmeasure.org"
            }
          }
        ],
        "interpretation": [
          {
            "coding": [
              {
                "code": "L",
                "system": "http://terminology.hl7.org/CodeSystem/v3-ObservationInterpretation",
                "display": "Low"
              }
            ]
          }
        ],
        "text": {
          "status": "generated",
          "div": "<div xmlns=\"http://www.w3.org/1999/xhtml\"><table class=\"hl7__eu__lab__report\"><tr><th>Test</th><th>23-May-2017</th><th>Reference&#xA0;Range</th><th>Unit</th></tr><tr><td>Hematocrit [Volume Fraction] of Blood by Automated count</td><td>34.8</td><td>38 - 56</td><td>L</td><td>%</td></tr></table></div>"
        },
        "status": "final",
        "subject": {
          "reference": "urn:uuid:417e7fcf-9945-45af-9d09-613bcd6764e0",
          "display": "Aniela Prażmo"
        },
        "effectiveDateTime": "2017-05-23T18:47:50Z",
        "specimen": {
          "reference": "urn:uuid:44e1e391-7c79-46d3-b4ab-166918f909d7"
        }
      }
    },
    {
      "fullUrl": "urn:uuid:a84a1625-e014-4fa4-acea-18fe667f7104",
      "resource": {
        "resourceType": "Observation",
        "id": "a84a1625-e014-4fa4-acea-18fe667f7104",
        "meta": {
          "profile": [
            "http://hl7.eu/fhir/laboratory/StructureDefinition/Observation-resultslab-eu-lab"
          ]
        },
        "performer": [
          {
            "display": "The Central European Lab"
          }
        ],
        "category": [
          {
            "coding": [
              {
                "system": "http://terminology.hl7.org/CodeSystem/observation-category",
                "code": "laboratory"
              }
            ]
          }
        ],
        "code": {
          "coding": [
            {
              "code": "787-2",
              "system": "http://loinc.org",
              "display": "MCV [Entitic volume] by Automated count"
            }
          ],
          "text": "MCV [Entitic volume] by Automated count"
        },
        "valueQuantity": {
          "system": "http://unitsofmeasure.org",
          "value": 79.6,
          "unit": "fL",
          "code": "fL"
        },
        "referenceRange": [
          {
            "low": {
              "value": 78,
              "code": "fL",
              "system": "http://unitsofmeasure.org"
            }
          },
          {
            "high": {
              "value": 98,
              "code": "fL",
              "system": "http://unitsofmeasure.org"
            }
          }
        ],
        "text": {
          "status": "generated",
          "div": "<div xmlns=\"http://www.w3.org/1999/xhtml\"><table class=\"hl7__eu__lab__report\"><tr><th>Test</th><th>23-May-2017</th><th>Reference&#xA0;Range</th><th>Unit</th></tr><tr><td>MCV [Entitic volume] by Automated count</td><td>79.6</td><td>78 - 98</td><td></td><td>fL</td></tr></table></div>"
        },
        "status": "final",
        "subject": {
          "reference": "urn:uuid:417e7fcf-9945-45af-9d09-613bcd6764e0",
          "display": "Aniela Prażmo"
        },
        "effectiveDateTime": "2017-05-23T18:47:50Z",
        "specimen": {
          "reference": "urn:uuid:44e1e391-7c79-46d3-b4ab-166918f909d7"
        }
      }
    },
    {
      "fullUrl": "urn:uuid:42903a19-6e5b-41be-b9df-8bdabb337acf",
      "resource": {
        "resourceType": "Observation",
        "id": "42903a19-6e5b-41be-b9df-8bdabb337acf",
        "meta": {
          "profile": [
            "http://hl7.eu/fhir/laboratory/StructureDefinition/Observation-resultslab-eu-lab"
          ]
        },
        "performer": [
          {
            "display": "The Central European Lab"
          }
        ],
        "category": [
          {
            "coding": [
              {
                "system": "http://terminology.hl7.org/CodeSystem/observation-category",
                "code": "laboratory"
              }
            ]
          }
        ],
        "code": {
          "coding": [
            {
              "code": "785-6",
              "system": "http://loinc.org",
              "display": "MCH [Entitic mass] by Automated count"
            }
          ],
          "text": "MCH [Entitic mass] by Automated count"
        },
        "valueQuantity": {
          "system": "http://unitsofmeasure.org",
          "value": 28.5,
          "unit": "pg",
          "code": "pg"
        },
        "referenceRange": [
          {
            "low": {
              "value": 27,
              "code": "pg",
              "system": "http://unitsofmeasure.org"
            }
          },
          {
            "high": {
              "value": 34,
              "code": "pg",
              "system": "http://unitsofmeasure.org"
            }
          }
        ],
        "text": {
          "status": "generated",
          "div": "<div xmlns=\"http://www.w3.org/1999/xhtml\"><table class=\"hl7__eu__lab__report\"><tr><th>Test</th><th>23-May-2017</th><th>Reference&#xA0;Range</th><th>Unit</th></tr><tr><td>MCH [Entitic mass] by Automated count</td><td>28.5</td><td>27 - 34</td><td></td><td>pg</td></tr></table></div>"
        },
        "status": "final",
        "subject": {
          "reference": "urn:uuid:417e7fcf-9945-45af-9d09-613bcd6764e0",
          "display": "Aniela Prażmo"
        },
        "effectiveDateTime": "2017-05-23T18:47:50Z",
        "specimen": {
          "reference": "urn:uuid:44e1e391-7c79-46d3-b4ab-166918f909d7"
        }
      }
    },
    {
      "fullUrl": "urn:uuid:62a695a9-22cb-42e9-bba4-580ab3e7b3a2",
      "resource": {
        "resourceType": "Observation",
        "id": "62a695a9-22cb-42e9-bba4-580ab3e7b3a2",
        "meta": {
          "profile": [
            "http://hl7.eu/fhir/laboratory/StructureDefinition/Observation-resultslab-eu-lab"
          ]
        },
        "performer": [
          {
            "display": "The Central European Lab"
          }
        ],
        "category": [
          {
            "coding": [
              {
                "system": "http://terminology.hl7.org/CodeSystem/observation-category",
                "code": "laboratory"
              }
            ]
          }
        ],
        "code": {
          "coding": [
            {
              "code": "786-4",
              "system": "http://loinc.org",
              "display": "MCHC [Mass/volume] by Automated count"
            }
          ],
          "text": "MCHC [Mass/volume] by Automated count"
        },
        "valueQuantity": {
          "system": "http://unitsofmeasure.org",
          "value": 31.5,
          "unit": "g/dL",
          "code": "g/dL"
        },
        "referenceRange": [
          {
            "low": {
              "value": 32,
              "code": "g/dL",
              "system": "http://unitsofmeasure.org"
            }
          },
          {
            "high": {
              "value": 35,
              "code": "g/dL",
              "system": "http://unitsofmeasure.org"
            }
          }
        ],
        "interpretation": [
          {
            "coding": [
              {
                "code": "L",
                "system": "http://terminology.hl7.org/CodeSystem/v3-ObservationInterpretation",
                "display": "Low"
              }
            ]
          }
        ],
        "text": {
          "status": "generated",
          "div": "<div xmlns=\"http://www.w3.org/1999/xhtml\"><table class=\"hl7__eu__lab__report\"><tr><th>Test</th><th>23-May-2017</th><th>Reference&#xA0;Range</th><th>Unit</th></tr><tr><td>MCHC [Mass/volume] by Automated count</td><td>31.5</td><td>32 - 35</td><td>L</td><td>g/dL</td></tr></table></div>"
        },
        "status": "final",
        "subject": {
          "reference": "urn:uuid:417e7fcf-9945-45af-9d09-613bcd6764e0",
          "display": "Aniela Prażmo"
        },
        "effectiveDateTime": "2017-05-23T18:47:50Z",
        "specimen": {
          "reference": "urn:uuid:44e1e391-7c79-46d3-b4ab-166918f909d7"
        }
      }
    },
    {
      "fullUrl": "urn:uuid:8a2602d7-5e4f-4745-a52f-50a064d7c988",
      "resource": {
        "resourceType": "Observation",
        "id": "8a2602d7-5e4f-4745-a52f-50a064d7c988",
        "meta": {
          "profile": [
            "http://hl7.eu/fhir/laboratory/StructureDefinition/Observation-resultslab-eu-lab"
          ]
        },
        "performer": [
          {
            "display": "The Central European Lab"
          }
        ],
        "category": [
          {
            "coding": [
              {
                "system": "http://terminology.hl7.org/CodeSystem/observation-category",
                "code": "laboratory"
              }
            ]
          }
        ],
        "code": {
          "coding": [
            {
              "code": "788-0",
              "system": "http://loinc.org",
              "display": "Erythrocyte distribution width [Ratio] by Automated count"
            }
          ],
          "text": "Erythrocyte distribution width [Ratio] by Automated count"
        },
        "valueQuantity": {
          "system": "http://unitsofmeasure.org",
          "value": 14.5,
          "unit": "%",
          "code": "%"
        },
        "referenceRange": [
          {
            "low": {
              "value": 11.6,
              "code": "%",
              "system": "http://unitsofmeasure.org"
            }
          },
          {
            "high": {
              "value": 16.5,
              "code": "%",
              "system": "http://unitsofmeasure.org"
            }
          }
        ],
        "text": {
          "status": "generated",
          "div": "<div xmlns=\"http://www.w3.org/1999/xhtml\"><table class=\"hl7__eu__lab__report\"><tr><th>Test</th><th>23-May-2017</th><th>Reference&#xA0;Range</th><th>Unit</th></tr><tr><td>Erythrocyte distribution width [Ratio] by Automated count</td><td>14.5</td><td>11.6 - 16.5</td><td></td><td>%</td></tr></table></div>"
        },
        "status": "final",
        "subject": {
          "reference": "urn:uuid:417e7fcf-9945-45af-9d09-613bcd6764e0",
          "display": "Aniela Prażmo"
        },
        "effectiveDateTime": "2017-05-23T18:47:50Z",
        "specimen": {
          "reference": "urn:uuid:44e1e391-7c79-46d3-b4ab-166918f909d7"
        }
      }
    },
    {
      "fullUrl": "urn:uuid:b3ada9aa-f119-42f5-bd4d-b8b5c06bab46",
      "resource": {
        "resourceType": "Observation",
        "id": "b3ada9aa-f119-42f5-bd4d-b8b5c06bab46",
        "meta": {
          "profile": [
            "http://hl7.eu/fhir/laboratory/StructureDefinition/Observation-resultslab-eu-lab"
          ]
        },
        "performer": [
          {
            "display": "The Central European Lab"
          }
        ],
        "category": [
          {
            "coding": [
              {
                "system": "http://terminology.hl7.org/CodeSystem/observation-category",
                "code": "laboratory"
              }
            ]
          }
        ],
        "code": {
          "coding": [
            {
              "code": "777-3",
              "system": "http://loinc.org",
              "display": "Platelets [#/volume] in Blood by Automated count"
            }
          ],
          "text": "Platelets [#/volume] in Blood by Automated count"
        },
        "valueQuantity": {
          "system": "http://unitsofmeasure.org",
          "value": 426.3,
          "unit": "10*3/uL",
          "code": "10*3/uL"
        },
        "referenceRange": [
          {
            "low": {
              "value": 157,
              "code": "10*3/uL",
              "system": "http://unitsofmeasure.org"
            }
          },
          {
            "high": {
              "value": 415,
              "code": "10*3/uL",
              "system": "http://unitsofmeasure.org"
            }
          }
        ],
        "interpretation": [
          {
            "coding": [
              {
                "code": "H",
                "system": "http://terminology.hl7.org/CodeSystem/v3-ObservationInterpretation",
                "display": "High"
              }
            ]
          }
        ],
        "text": {
          "status": "generated",
          "div": "<div xmlns=\"http://www.w3.org/1999/xhtml\"><table class=\"hl7__eu__lab__report\"><tr><th>Test</th><th>23-May-2017</th><th>Reference&#xA0;Range</th><th>Unit</th></tr><tr><td>Platelets [#/volume] in Blood by Automated count</td><td>426.3</td><td>157 - 415</td><td>H</td><td>10*3/uL</td></tr></table></div>"
        },
        "status": "final",
        "subject": {
          "reference": "urn:uuid:417e7fcf-9945-45af-9d09-613bcd6764e0",
          "display": "Aniela Prażmo"
        },
        "effectiveDateTime": "2017-05-23T18:47:50Z",
        "specimen": {
          "reference": "urn:uuid:44e1e391-7c79-46d3-b4ab-166918f909d7"
        }
      }
    },
    {
      "fullUrl": "urn:uuid:78d93f56-22a8-4528-b28c-e2ffabfd8974",
      "resource": {
        "resourceType": "Observation",
        "id": "78d93f56-22a8-4528-b28c-e2ffabfd8974",
        "meta": {
          "profile": [
            "http://hl7.eu/fhir/laboratory/StructureDefinition/Observation-resultslab-eu-lab"
          ]
        },
        "performer": [
          {
            "display": "The Central European Lab"
          }
        ],
        "category": [
          {
            "coding": [
              {
                "system": "http://terminology.hl7.org/CodeSystem/observation-category",
                "code": "laboratory"
              }
            ]
          }
        ],
        "code": {
          "coding": [
            {
              "code": "2345-7",
              "system": "http://loinc.org",
              "display": "Glucose [Mass/volume] in Serum or Plasma"
            }
          ],
          "text": "Glucose [Mass/volume] in Serum or Plasma"
        },
        "valueQuantity": {
          "system": "http://unitsofmeasure.org",
          "value": 71.5,
          "unit": "mg/dL",
          "code": "mg/dL"
        },
        "referenceRange": [
          {
            "low": {
              "value": 70,
              "code": "mg/dL",
              "system": "http://unitsofmeasure.org"
            }
          },
          {
            "high": {
              "value": 99,
              "code": "mg/dL",
              "system": "http://unitsofmeasure.org"
            }
          }
        ],
        "text": {
          "status": "generated",
          "div": "<div xmlns=\"http://www.w3.org/1999/xhtml\"><table class=\"hl7__eu__lab__report\"><tr><th>Test</th><th>23-May-2017</th><th>Reference&#xA0;Range</th><th>Unit</th></tr><tr><td>Glucose [Mass/volume] in Serum or Plasma</td><td>71.5</td><td>70 - 99</td><td></td><td>mg/dL</td></tr></table></div>"
        },
        "status": "final",
        "subject": {
          "reference": "urn:uuid:417e7fcf-9945-45af-9d09-613bcd6764e0",
          "display": "Aniela Prażmo"
        },
        "effectiveDateTime": "2017-05-23T18:47:50Z",
        "specimen": {
          "reference": "urn:uuid:bbd39aaf-9aba-430f-8651-9d223c99e05e"
        }
      }
    },
    {
      "fullUrl": "urn:uuid:0ab44865-065f-4641-b144-a0f5367b6526",
      "resource": {
        "resourceType": "Observation",
        "id": "0ab44865-065f-4641-b144-a0f5367b6526",
        "meta": {
          "profile": [
            "http://hl7.eu/fhir/laboratory/StructureDefinition/Observation-resultslab-eu-lab"
          ]
        },
        "performer": [
          {
            "display": "The Central European Lab"
          }
        ],
        "category": [
          {
            "coding": [
              {
                "system": "http://terminology.hl7.org/CodeSystem/observation-category",
                "code": "laboratory"
              }
            ]
          }
        ],
        "code": {
          "coding": [
            {
              "code": "3094-0",
              "system": "http://loinc.org",
              "display": "Urea nitrogen [Mass/volume] in Serum or Plasma"
            }
          ],
          "text": "Urea nitrogen [Mass/volume] in Serum or Plasma"
        },
        "valueQuantity": {
          "system": "http://unitsofmeasure.org",
          "value": 7.8,
          "unit": "mg/dL",
          "code": "mg/dL"
        },
        "referenceRange": [
          {
            "low": {
              "value": 7,
              "code": "mg/dL",
              "system": "http://unitsofmeasure.org"
            }
          },
          {
            "high": {
              "value": 20,
              "code": "mg/dL",
              "system": "http://unitsofmeasure.org"
            }
          }
        ],
        "text": {
          "status": "generated",
          "div": "<div xmlns=\"http://www.w3.org/1999/xhtml\"><table class=\"hl7__eu__lab__report\"><tr><th>Test</th><th>23-May-2017</th><th>Reference&#xA0;Range</th><th>Unit</th></tr><tr><td>Urea nitrogen [Mass/volume] in Serum or Plasma</td><td>7.8</td><td>7 - 20</td><td></td><td>mg/dL</td></tr></table></div>"
        },
        "status": "final",
        "subject": {
          "reference": "urn:uuid:417e7fcf-9945-45af-9d09-613bcd6764e0",
          "display": "Aniela Prażmo"
        },
        "effectiveDateTime": "2017-05-23T18:47:50Z",
        "specimen": {
          "reference": "urn:uuid:bbd39aaf-9aba-430f-8651-9d223c99e05e"
        }
      }
    },
    {
      "fullUrl": "urn:uuid:352f2cdb-8505-41fe-8f3f-862d5cb31a2a",
      "resource": {
        "resourceType": "Observation",
        "id": "352f2cdb-8505-41fe-8f3f-862d5cb31a2a",
        "meta": {
          "profile": [
            "http://hl7.eu/fhir/laboratory/StructureDefinition/Observation-resultslab-eu-lab"
          ]
        },
        "performer": [
          {
            "display": "The Central European Lab"
          }
        ],
        "category": [
          {
            "coding": [
              {
                "system": "http://terminology.hl7.org/CodeSystem/observation-category",
                "code": "laboratory"
              }
            ]
          }
        ],
        "code": {
          "coding": [
            {
              "code": "2160-0",
              "system": "http://loinc.org",
              "display": "Creatinine [Mass/volume] in Serum or Plasma"
            }
          ],
          "text": "Creatinine [Mass/volume] in Serum or Plasma"
        },
        "valueQuantity": {
          "system": "http://unitsofmeasure.org",
          "value": 2.6,
          "unit": "mg/dL",
          "code": "mg/dL"
        },
        "referenceRange": [
          {
            "low": {
              "value": 0.6,
              "code": "mg/dL",
              "system": "http://unitsofmeasure.org"
            }
          },
          {
            "high": {
              "value": 1.3,
              "code": "mg/dL",
              "system": "http://unitsofmeasure.org"
            }
          }
        ],
        "interpretation": [
          {
            "coding": [
              {
                "code": "H",
                "system": "http://terminology.hl7.org/CodeSystem/v3-ObservationInterpretation",
                "display": "High"
              }
            ]
          }
        ],
        "text": {
          "status": "generated",
          "div": "<div xmlns=\"http://www.w3.org/1999/xhtml\"><table class=\"hl7__eu__lab__report\"><tr><th>Test</th><th>23-May-2017</th><th>Reference&#xA0;Range</th><th>Unit</th></tr><tr><td>Creatinine [Mass/volume] in Serum or Plasma</td><td>2.6</td><td>0.6 - 1.3</td><td>H</td><td>mg/dL</td></tr></table></div>"
        },
        "status": "final",
        "subject": {
          "reference": "urn:uuid:417e7fcf-9945-45af-9d09-613bcd6764e0",
          "display": "Aniela Prażmo"
        },
        "effectiveDateTime": "2017-05-23T18:47:50Z",
        "specimen": {
          "reference": "urn:uuid:bbd39aaf-9aba-430f-8651-9d223c99e05e"
        }
      }
    },
    {
      "fullUrl": "urn:uuid:ab09f66a-2ca1-440b-b810-6d8ae1cfac9b",
      "resource": {
        "resourceType": "Observation",
        "id": "ab09f66a-2ca1-440b-b810-6d8ae1cfac9b",
        "meta": {
          "profile": [
            "http://hl7.eu/fhir/laboratory/StructureDefinition/Observation-resultslab-eu-lab"
          ]
        },
        "performer": [
          {
            "display": "The Central European Lab"
          }
        ],
        "category": [
          {
            "coding": [
              {
                "system": "http://terminology.hl7.org/CodeSystem/observation-category",
                "code": "laboratory"
              }
            ]
          }
        ],
        "code": {
          "coding": [
            {
              "code": "17861-6",
              "system": "http://loinc.org",
              "display": "Calcium [Mass/volume] in Serum or Plasma"
            }
          ],
          "text": "Calcium [Mass/volume] in Serum or Plasma"
        },
        "valueQuantity": {
          "system": "http://unitsofmeasure.org",
          "value": 9.7,
          "unit": "mg/dL",
          "code": "mg/dL"
        },
        "referenceRange": [
          {
            "low": {
              "value": 8.5,
              "code": "mg/dL",
              "system": "http://unitsofmeasure.org"
            }
          },
          {
            "high": {
              "value": 10.4,
              "code": "mg/dL",
              "system": "http://unitsofmeasure.org"
            }
          }
        ],
        "text": {
          "status": "generated",
          "div": "<div xmlns=\"http://www.w3.org/1999/xhtml\"><table class=\"hl7__eu__lab__report\"><tr><th>Test</th><th>23-May-2017</th><th>Reference&#xA0;Range</th><th>Unit</th></tr><tr><td>Calcium [Mass/volume] in Serum or Plasma</td><td>9.7</td><td>8.5 - 10.4</td><td></td><td>mg/dL</td></tr></table></div>"
        },
        "status": "final",
        "subject": {
          "reference": "urn:uuid:417e7fcf-9945-45af-9d09-613bcd6764e0",
          "display": "Aniela Prażmo"
        },
        "effectiveDateTime": "2017-05-23T18:47:50Z",
        "specimen": {
          "reference": "urn:uuid:bbd39aaf-9aba-430f-8651-9d223c99e05e"
        }
      }
    },
    {
      "fullUrl": "urn:uuid:8d533c2c-7bea-4a4a-84e3-1fa831f6fe5a",
      "resource": {
        "resourceType": "Observation",
        "id": "8d533c2c-7bea-4a4a-84e3-1fa831f6fe5a",
        "meta": {
          "profile": [
            "http://hl7.eu/fhir/laboratory/StructureDefinition/Observation-resultslab-eu-lab"
          ]
        },
        "performer": [
          {
            "display": "The Central European Lab"
          }
        ],
        "category": [
          {
            "coding": [
              {
                "system": "http://terminology.hl7.org/CodeSystem/observation-category",
                "code": "laboratory"
              }
            ]
          }
        ],
        "code": {
          "coding": [
            {
              "code": "2951-2",
              "system": "http://loinc.org",
              "display": "Sodium [Moles/volume] in Serum or Plasma"
            }
          ],
          "text": "Sodium [Moles/volume] in Serum or Plasma"
        },
        "valueQuantity": {
          "system": "http://unitsofmeasure.org",
          "value": 136.6,
          "unit": "mmol/L",
          "code": "mmol/L"
        },
        "referenceRange": [
          {
            "low": {
              "value": 135,
              "code": "mmol/L",
              "system": "http://unitsofmeasure.org"
            }
          },
          {
            "high": {
              "value": 145,
              "code": "mmol/L",
              "system": "http://unitsofmeasure.org"
            }
          }
        ],
        "text": {
          "status": "generated",
          "div": "<div xmlns=\"http://www.w3.org/1999/xhtml\"><table class=\"hl7__eu__lab__report\"><tr><th>Test</th><th>23-May-2017</th><th>Reference&#xA0;Range</th><th>Unit</th></tr><tr><td>Sodium [Moles/volume] in Serum or Plasma</td><td>136.6</td><td>135 - 145</td><td></td><td>mmol/L</td></tr></table></div>"
        },
        "status": "final",
        "subject": {
          "reference": "urn:uuid:417e7fcf-9945-45af-9d09-613bcd6764e0",
          "display": "Aniela Prażmo"
        },
        "effectiveDateTime": "2017-05-23T18:47:50Z",
        "specimen": {
          "reference": "urn:uuid:bbd39aaf-9aba-430f-8651-9d223c99e05e"
        }
      }
    },
    {
      "fullUrl": "urn:uuid:46389a34-fbf9-4cdd-a2df-5b8740792cdb",
      "resource": {
        "resourceType": "Observation",
        "id": "46389a34-fbf9-4cdd-a2df-5b8740792cdb",
        "meta": {
          "profile": [
            "http://hl7.eu/fhir/laboratory/StructureDefinition/Observation-resultslab-eu-lab"
          ]
        },
        "performer": [
          {
            "display": "The Central European Lab"
          }
        ],
        "category": [
          {
            "coding": [
              {
                "system": "http://terminology.hl7.org/CodeSystem/observation-category",
                "code": "laboratory"
              }
            ]
          }
        ],
        "code": {
          "coding": [
            {
              "code": "2823-3",
              "system": "http://loinc.org",
              "display": "Potassium [Moles/volume] in Serum or Plasma"
            }
          ],
          "text": "Potassium [Moles/volume] in Serum or Plasma"
        },
        "valueQuantity": {
          "system": "http://unitsofmeasure.org",
          "value": 4.3,
          "unit": "mmol/L",
          "code": "mmol/L"
        },
        "referenceRange": [
          {
            "low": {
              "value": 3.5,
              "code": "mmol/L",
              "system": "http://unitsofmeasure.org"
            }
          },
          {
            "high": {
              "value": 5.1,
              "code": "mmol/L",
              "system": "http://unitsofmeasure.org"
            }
          }
        ],
        "text": {
          "status": "generated",
          "div": "<div xmlns=\"http://www.w3.org/1999/xhtml\"><table class=\"hl7__eu__lab__report\"><tr><th>Test</th><th>23-May-2017</th><th>Reference&#xA0;Range</th><th>Unit</th></tr><tr><td>Potassium [Moles/volume] in Serum or Plasma</td><td>4.3</td><td>3.5 - 5.1</td><td></td><td>mmol/L</td></tr></table></div>"
        },
        "status": "final",
        "subject": {
          "reference": "urn:uuid:417e7fcf-9945-45af-9d09-613bcd6764e0",
          "display": "Aniela Prażmo"
        },
        "effectiveDateTime": "2017-05-23T18:47:50Z",
        "specimen": {
          "reference": "urn:uuid:bbd39aaf-9aba-430f-8651-9d223c99e05e"
        }
      }
    },
    {
      "fullUrl": "urn:uuid:a14e9bed-1e92-464b-ac24-175cfb4da07f",
      "resource": {
        "resourceType": "Observation",
        "id": "a14e9bed-1e92-464b-ac24-175cfb4da07f",
        "meta": {
          "profile": [
            "http://hl7.eu/fhir/laboratory/StructureDefinition/Observation-resultslab-eu-lab"
          ]
        },
        "performer": [
          {
            "display": "The Central European Lab"
          }
        ],
        "category": [
          {
            "coding": [
              {
                "system": "http://terminology.hl7.org/CodeSystem/observation-category",
                "code": "laboratory"
              }
            ]
          }
        ],
        "code": {
          "coding": [
            {
              "code": "2075-0",
              "system": "http://loinc.org",
              "display": "Chloride [Moles/volume] in Serum or Plasma"
            }
          ],
          "text": "Chloride [Moles/volume] in Serum or Plasma"
        },
        "valueQuantity": {
          "system": "http://unitsofmeasure.org",
          "value": 105,
          "unit": "mmol/L",
          "code": "mmol/L"
        },
        "referenceRange": [
          {
            "low": {
              "value": 98,
              "code": "mmol/L",
              "system": "http://unitsofmeasure.org"
            }
          },
          {
            "high": {
              "value": 108,
              "code": "mmol/L",
              "system": "http://unitsofmeasure.org"
            }
          }
        ],
        "text": {
          "status": "generated",
          "div": "<div xmlns=\"http://www.w3.org/1999/xhtml\"><table class=\"hl7__eu__lab__report\"><tr><th>Test</th><th>23-May-2017</th><th>Reference&#xA0;Range</th><th>Unit</th></tr><tr><td>Chloride [Moles/volume] in Serum or Plasma</td><td>105.0</td><td>98 - 108</td><td></td><td>mmol/L</td></tr></table></div>"
        },
        "status": "final",
        "subject": {
          "reference": "urn:uuid:417e7fcf-9945-45af-9d09-613bcd6764e0",
          "display": "Aniela Prażmo"
        },
        "effectiveDateTime": "2017-05-23T18:47:50Z",
        "specimen": {
          "reference": "urn:uuid:bbd39aaf-9aba-430f-8651-9d223c99e05e"
        }
      }
    },
    {
      "fullUrl": "urn:uuid:23f8f40f-2963-4aca-8190-a588a964ecf3",
      "resource": {
        "resourceType": "Observation",
        "id": "23f8f40f-2963-4aca-8190-a588a964ecf3",
        "meta": {
          "profile": [
            "http://hl7.eu/fhir/laboratory/StructureDefinition/Observation-resultslab-eu-lab"
          ]
        },
        "performer": [
          {
            "display": "The Central European Lab"
          }
        ],
        "category": [
          {
            "coding": [
              {
                "system": "http://terminology.hl7.org/CodeSystem/observation-category",
                "code": "laboratory"
              }
            ]
          }
        ],
        "code": {
          "coding": [
            {
              "code": "2028-9",
              "system": "http://loinc.org",
              "display": "Carbon dioxide, total [Moles/volume] in Serum or Plasma"
            }
          ],
          "text": "Carbon dioxide, total [Moles/volume] in Serum or Plasma"
        },
        "valueQuantity": {
          "system": "http://unitsofmeasure.org",
          "value": 23.3,
          "unit": "mmol/L",
          "code": "mmol/L"
        },
        "referenceRange": [
          {
            "low": {
              "value": 22,
              "code": "mmol/L",
              "system": "http://unitsofmeasure.org"
            }
          },
          {
            "high": {
              "value": 32,
              "code": "mmol/L",
              "system": "http://unitsofmeasure.org"
            }
          }
        ],
        "text": {
          "status": "generated",
          "div": "<div xmlns=\"http://www.w3.org/1999/xhtml\"><table class=\"hl7__eu__lab__report\"><tr><th>Test</th><th>23-May-2017</th><th>Reference&#xA0;Range</th><th>Unit</th></tr><tr><td>Carbon dioxide, total [Moles/volume] in Serum or Plasma</td><td>23.3</td><td>22 - 32</td><td></td><td>mmol/L</td></tr></table></div>"
        },
        "status": "final",
        "subject": {
          "reference": "urn:uuid:417e7fcf-9945-45af-9d09-613bcd6764e0",
          "display": "Aniela Prażmo"
        },
        "effectiveDateTime": "2017-05-23T18:47:50Z",
        "specimen": {
          "reference": "urn:uuid:bbd39aaf-9aba-430f-8651-9d223c99e05e"
        }
      }
    },
    {
      "fullUrl": "urn:uuid:8d79494f-5a60-4dd7-b733-f563562979de",
      "resource": {
        "resourceType": "Observation",
        "id": "8d79494f-5a60-4dd7-b733-f563562979de",
        "meta": {
          "profile": [
            "http://hl7.eu/fhir/laboratory/StructureDefinition/Observation-resultslab-eu-lab"
          ]
        },
        "performer": [
          {
            "display": "The Central European Lab"
          }
        ],
        "category": [
          {
            "coding": [
              {
                "system": "http://terminology.hl7.org/CodeSystem/observation-category",
                "code": "laboratory"
              }
            ]
          }
        ],
        "code": {
          "coding": [
            {
              "code": "2885-2",
              "system": "http://loinc.org",
              "display": "Protein [Mass/volume] in Serum or Plasma"
            }
          ],
          "text": "Protein [Mass/volume] in Serum or Plasma"
        },
        "valueQuantity": {
          "system": "http://unitsofmeasure.org",
          "value": 6.1,
          "unit": "g/dL",
          "code": "g/dL"
        },
        "referenceRange": [
          {
            "low": {
              "value": 6,
              "code": "g/dL",
              "system": "http://unitsofmeasure.org"
            }
          },
          {
            "high": {
              "value": 8.3,
              "code": "g/dL",
              "system": "http://unitsofmeasure.org"
            }
          }
        ],
        "text": {
          "status": "generated",
          "div": "<div xmlns=\"http://www.w3.org/1999/xhtml\"><table class=\"hl7__eu__lab__report\"><tr><th>Test</th><th>23-May-2017</th><th>Reference&#xA0;Range</th><th>Unit</th></tr><tr><td>Protein [Mass/volume] in Serum or Plasma</td><td>6.1</td><td>6 - 8.3</td><td></td><td>g/dL</td></tr></table></div>"
        },
        "status": "final",
        "subject": {
          "reference": "urn:uuid:417e7fcf-9945-45af-9d09-613bcd6764e0",
          "display": "Aniela Prażmo"
        },
        "effectiveDateTime": "2017-05-23T18:47:50Z",
        "specimen": {
          "reference": "urn:uuid:bbd39aaf-9aba-430f-8651-9d223c99e05e"
        }
      }
    },
    {
      "fullUrl": "urn:uuid:07c73354-f3b5-4bf9-aabf-6d2ecbad1fcb",
      "resource": {
        "resourceType": "Observation",
        "id": "07c73354-f3b5-4bf9-aabf-6d2ecbad1fcb",
        "meta": {
          "profile": [
            "http://hl7.eu/fhir/laboratory/StructureDefinition/Observation-resultslab-eu-lab"
          ]
        },
        "performer": [
          {
            "display": "The Central European Lab"
          }
        ],
        "category": [
          {
            "coding": [
              {
                "system": "http://terminology.hl7.org/CodeSystem/observation-category",
                "code": "laboratory"
              }
            ]
          }
        ],
        "code": {
          "coding": [
            {
              "code": "1751-7",
              "system": "http://loinc.org",
              "display": "Albumin [Mass/volume] in Serum or Plasma"
            }
          ],
          "text": "Albumin [Mass/volume] in Serum or Plasma"
        },
        "valueQuantity": {
          "system": "http://unitsofmeasure.org",
          "value": 4.2,
          "unit": "g/dL",
          "code": "g/dL"
        },
        "referenceRange": [
          {
            "low": {
              "value": 3.5,
              "code": "g/dL",
              "system": "http://unitsofmeasure.org"
            }
          },
          {
            "high": {
              "value": 5,
              "code": "g/dL",
              "system": "http://unitsofmeasure.org"
            }
          }
        ],
        "text": {
          "status": "generated",
          "div": "<div xmlns=\"http://www.w3.org/1999/xhtml\"><table class=\"hl7__eu__lab__report\"><tr><th>Test</th><th>23-May-2017</th><th>Reference&#xA0;Range</th><th>Unit</th></tr><tr><td>Albumin [Mass/volume] in Serum or Plasma</td><td>4.2</td><td>3.5 - 5</td><td></td><td>g/dL</td></tr></table></div>"
        },
        "status": "final",
        "subject": {
          "reference": "urn:uuid:417e7fcf-9945-45af-9d09-613bcd6764e0",
          "display": "Aniela Prażmo"
        },
        "effectiveDateTime": "2017-05-23T18:47:50Z",
        "specimen": {
          "reference": "urn:uuid:bbd39aaf-9aba-430f-8651-9d223c99e05e"
        }
      }
    },
    {
      "fullUrl": "urn:uuid:f9c09c8b-fde6-4ab9-8bd4-12798e2b76a2",
      "resource": {
        "resourceType": "Observation",
        "id": "f9c09c8b-fde6-4ab9-8bd4-12798e2b76a2",
        "meta": {
          "profile": [
            "http://hl7.eu/fhir/laboratory/StructureDefinition/Observation-resultslab-eu-lab"
          ]
        },
        "performer": [
          {
            "display": "The Central European Lab"
          }
        ],
        "category": [
          {
            "coding": [
              {
                "system": "http://terminology.hl7.org/CodeSystem/observation-category",
                "code": "laboratory"
              }
            ]
          }
        ],
        "code": {
          "coding": [
            {
              "code": "1975-2",
              "system": "http://loinc.org",
              "display": "Bilirubin.total [Mass/volume] in Serum or Plasma"
            }
          ],
          "text": "Bilirubin.total [Mass/volume] in Serum or Plasma"
        },
        "valueQuantity": {
          "system": "http://unitsofmeasure.org",
          "value": 11,
          "unit": "mg/dL",
          "code": "mg/dL"
        },
        "referenceRange": [
          {
            "low": {
              "value": 0.3,
              "code": "mg/dL",
              "system": "http://unitsofmeasure.org"
            }
          },
          {
            "high": {
              "value": 1.2,
              "code": "mg/dL",
              "system": "http://unitsofmeasure.org"
            }
          }
        ],
        "interpretation": [
          {
            "coding": [
              {
                "code": "H",
                "system": "http://terminology.hl7.org/CodeSystem/v3-ObservationInterpretation",
                "display": "High"
              }
            ]
          }
        ],
        "text": {
          "status": "generated",
          "div": "<div xmlns=\"http://www.w3.org/1999/xhtml\"><table class=\"hl7__eu__lab__report\"><tr><th>Test</th><th>23-May-2017</th><th>Reference&#xA0;Range</th><th>Unit</th></tr><tr><td>Bilirubin.total [Mass/volume] in Serum or Plasma</td><td>11.0</td><td>0.3 - 1.2</td><td>H</td><td>mg/dL</td></tr></table></div>"
        },
        "status": "final",
        "subject": {
          "reference": "urn:uuid:417e7fcf-9945-45af-9d09-613bcd6764e0",
          "display": "Aniela Prażmo"
        },
        "effectiveDateTime": "2017-05-23T18:47:50Z",
        "specimen": {
          "reference": "urn:uuid:bbd39aaf-9aba-430f-8651-9d223c99e05e"
        }
      }
    },
    {
      "fullUrl": "urn:uuid:5f422173-2d6d-4477-b4bb-3c7771b1b6b0",
      "resource": {
        "resourceType": "Observation",
        "id": "5f422173-2d6d-4477-b4bb-3c7771b1b6b0",
        "meta": {
          "profile": [
            "http://hl7.eu/fhir/laboratory/StructureDefinition/Observation-resultslab-eu-lab"
          ]
        },
        "performer": [
          {
            "display": "The Central European Lab"
          }
        ],
        "category": [
          {
            "coding": [
              {
                "system": "http://terminology.hl7.org/CodeSystem/observation-category",
                "code": "laboratory"
              }
            ]
          }
        ],
        "code": {
          "coding": [
            {
              "code": "6768-6",
              "system": "http://loinc.org",
              "display": "Alkaline phosphatase [Enzymatic activity/volume] in Serum or Plasma"
            }
          ],
          "text": "Alkaline phosphatase [Enzymatic activity/volume] in Serum or Plasma"
        },
        "valueQuantity": {
          "system": "http://unitsofmeasure.org",
          "value": 98.4,
          "unit": "U/L",
          "code": "U/L"
        },
        "referenceRange": [
          {
            "low": {
              "value": 32,
              "code": "U/L",
              "system": "http://unitsofmeasure.org"
            }
          },
          {
            "high": {
              "value": 150,
              "code": "U/L",
              "system": "http://unitsofmeasure.org"
            }
          }
        ],
        "text": {
          "status": "generated",
          "div": "<div xmlns=\"http://www.w3.org/1999/xhtml\"><table class=\"hl7__eu__lab__report\"><tr><th>Test</th><th>23-May-2017</th><th>Reference&#xA0;Range</th><th>Unit</th></tr><tr><td>Alkaline phosphatase [Enzymatic activity/volume] in Serum or Plasma</td><td>98.4</td><td>32 - 150</td><td></td><td>U/L</td></tr></table></div>"
        },
        "status": "final",
        "subject": {
          "reference": "urn:uuid:417e7fcf-9945-45af-9d09-613bcd6764e0",
          "display": "Aniela Prażmo"
        },
        "effectiveDateTime": "2017-05-23T18:47:50Z",
        "specimen": {
          "reference": "urn:uuid:bbd39aaf-9aba-430f-8651-9d223c99e05e"
        }
      }
    },
    {
      "fullUrl": "urn:uuid:166eff71-61c0-4c1e-8e0a-fd8062e35d8f",
      "resource": {
        "resourceType": "Observation",
        "id": "166eff71-61c0-4c1e-8e0a-fd8062e35d8f",
        "meta": {
          "profile": [
            "http://hl7.eu/fhir/laboratory/StructureDefinition/Observation-resultslab-eu-lab"
          ]
        },
        "performer": [
          {
            "display": "The Central European Lab"
          }
        ],
        "category": [
          {
            "coding": [
              {
                "system": "http://terminology.hl7.org/CodeSystem/observation-category",
                "code": "laboratory"
              }
            ]
          }
        ],
        "code": {
          "coding": [
            {
              "code": "1742-6",
              "system": "http://loinc.org",
              "display": "Alanine aminotransferase [Enzymatic activity/volume] in Serum or Plasma"
            }
          ],
          "text": "Alanine aminotransferase [Enzymatic activity/volume] in Serum or Plasma"
        },
        "valueQuantity": {
          "system": "http://unitsofmeasure.org",
          "value": 35.6,
          "unit": "U/L",
          "code": "U/L"
        },
        "referenceRange": [
          {
            "low": {
              "value": 13,
              "code": "U/L",
              "system": "http://unitsofmeasure.org"
            }
          },
          {
            "high": {
              "value": 32,
              "code": "U/L",
              "system": "http://unitsofmeasure.org"
            }
          }
        ],
        "interpretation": [
          {
            "coding": [
              {
                "code": "H",
                "system": "http://terminology.hl7.org/CodeSystem/v3-ObservationInterpretation",
                "display": "High"
              }
            ]
          }
        ],
        "text": {
          "status": "generated",
          "div": "<div xmlns=\"http://www.w3.org/1999/xhtml\"><table class=\"hl7__eu__lab__report\"><tr><th>Test</th><th>23-May-2017</th><th>Reference&#xA0;Range</th><th>Unit</th></tr><tr><td>Alanine aminotransferase [Enzymatic activity/volume] in Serum or Plasma</td><td>35.6</td><td>13 - 32</td><td>H</td><td>U/L</td></tr></table></div>"
        },
        "status": "final",
        "subject": {
          "reference": "urn:uuid:417e7fcf-9945-45af-9d09-613bcd6764e0",
          "display": "Aniela Prażmo"
        },
        "effectiveDateTime": "2017-05-23T18:47:50Z",
        "specimen": {
          "reference": "urn:uuid:bbd39aaf-9aba-430f-8651-9d223c99e05e"
        }
      }
    },
    {
      "fullUrl": "urn:uuid:1a91481e-5d65-446e-ba38-9de641937c5f",
      "resource": {
        "resourceType": "Observation",
        "id": "1a91481e-5d65-446e-ba38-9de641937c5f",
        "meta": {
          "profile": [
            "http://hl7.eu/fhir/laboratory/StructureDefinition/Observation-resultslab-eu-lab"
          ]
        },
        "performer": [
          {
            "display": "The Central European Lab"
          }
        ],
        "category": [
          {
            "coding": [
              {
                "system": "http://terminology.hl7.org/CodeSystem/observation-category",
                "code": "laboratory"
              }
            ]
          }
        ],
        "code": {
          "coding": [
            {
              "code": "1920-8",
              "system": "http://loinc.org",
              "display": "Aspartate aminotransferase [Enzymatic activity/volume] in Serum or Plasma"
            }
          ],
          "text": "Aspartate aminotransferase [Enzymatic activity/volume] in Serum or Plasma"
        },
        "valueQuantity": {
          "system": "http://unitsofmeasure.org",
          "value": 28,
          "unit": "U/L",
          "code": "U/L"
        },
        "referenceRange": [
          {
            "low": {
              "value": 10,
              "code": "U/L",
              "system": "http://unitsofmeasure.org"
            }
          },
          {
            "high": {
              "value": 40,
              "code": "U/L",
              "system": "http://unitsofmeasure.org"
            }
          }
        ],
        "text": {
          "status": "generated",
          "div": "<div xmlns=\"http://www.w3.org/1999/xhtml\"><table class=\"hl7__eu__lab__report\"><tr><th>Test</th><th>23-May-2017</th><th>Reference&#xA0;Range</th><th>Unit</th></tr><tr><td>Aspartate aminotransferase [Enzymatic activity/volume] in Serum or Plasma</td><td>28.0</td><td>10 - 40</td><td></td><td>U/L</td></tr></table></div>"
        },
        "status": "final",
        "subject": {
          "reference": "urn:uuid:417e7fcf-9945-45af-9d09-613bcd6764e0",
          "display": "Aniela Prażmo"
        },
        "effectiveDateTime": "2017-05-23T18:47:50Z",
        "specimen": {
          "reference": "urn:uuid:bbd39aaf-9aba-430f-8651-9d223c99e05e"
        }
      }
    },
    {
      "fullUrl": "urn:uuid:e3b634fe-1bb5-4a65-8042-55b5725027f3",
      "resource": {
        "resourceType": "Observation",
        "id": "e3b634fe-1bb5-4a65-8042-55b5725027f3",
        "meta": {
          "profile": [
            "http://hl7.eu/fhir/laboratory/StructureDefinition/Observation-resultslab-eu-lab"
          ]
        },
        "performer": [
          {
            "display": "The Central European Lab"
          }
        ],
        "category": [
          {
            "coding": [
              {
                "system": "http://terminology.hl7.org/CodeSystem/observation-category",
                "code": "laboratory"
              }
            ]
          }
        ],
        "code": {
          "coding": [
            {
              "code": "19123-9",
              "system": "http://loinc.org",
              "display": "Magnesium [Mass/volume] in Serum or Plasma"
            }
          ],
          "text": "Magnesium [Mass/volume] in Serum or Plasma"
        },
        "valueQuantity": {
          "system": "http://unitsofmeasure.org",
          "value": 1.9,
          "unit": "mg/dL",
          "code": "mg/dL"
        },
        "referenceRange": [
          {
            "low": {
              "value": 1.7,
              "code": "mg/dL",
              "system": "http://unitsofmeasure.org"
            }
          },
          {
            "high": {
              "value": 2.6,
              "code": "mg/dL",
              "system": "http://unitsofmeasure.org"
            }
          }
        ],
        "text": {
          "status": "generated",
          "div": "<div xmlns=\"http://www.w3.org/1999/xhtml\"><table class=\"hl7__eu__lab__report\"><tr><th>Test</th><th>23-May-2017</th><th>Reference&#xA0;Range</th><th>Unit</th></tr><tr><td>Magnesium [Mass/volume] in Serum or Plasma</td><td>1.9</td><td>1.7 - 2.6</td><td></td><td>mg/dL</td></tr></table></div>"
        },
        "status": "final",
        "subject": {
          "reference": "urn:uuid:417e7fcf-9945-45af-9d09-613bcd6764e0",
          "display": "Aniela Prażmo"
        },
        "effectiveDateTime": "2017-05-23T18:47:50Z",
        "specimen": {
          "reference": "urn:uuid:bbd39aaf-9aba-430f-8651-9d223c99e05e"
        }
      }
    },
    {
      "fullUrl": "urn:uuid:f6ac3291-ace5-4355-9e0f-e8bc0b6db01f",
      "resource": {
        "resourceType": "Observation",
        "id": "f6ac3291-ace5-4355-9e0f-e8bc0b6db01f",
        "meta": {
          "profile": [
            "http://hl7.eu/fhir/laboratory/StructureDefinition/Observation-resultslab-eu-lab"
          ]
        },
        "performer": [
          {
            "display": "The Central European Lab"
          }
        ],
        "category": [
          {
            "coding": [
              {
                "system": "http://terminology.hl7.org/CodeSystem/observation-category",
                "code": "laboratory"
              }
            ]
          }
        ],
        "code": {
          "coding": [
            {
              "code": "2777-1",
              "system": "http://loinc.org",
              "display": "Phosphate [Mass/volume] in Serum or Plasma"
            }
          ],
          "text": "Phosphate [Mass/volume] in Serum or Plasma"
        },
        "valueQuantity": {
          "system": "http://unitsofmeasure.org",
          "value": 4,
          "unit": "mg/dL",
          "code": "mg/dL"
        },
        "referenceRange": [
          {
            "low": {
              "value": 2.5,
              "code": "mg/dL",
              "system": "http://unitsofmeasure.org"
            }
          },
          {
            "high": {
              "value": 4.5,
              "code": "mg/dL",
              "system": "http://unitsofmeasure.org"
            }
          }
        ],
        "text": {
          "status": "generated",
          "div": "<div xmlns=\"http://www.w3.org/1999/xhtml\"><table class=\"hl7__eu__lab__report\"><tr><th>Test</th><th>23-May-2017</th><th>Reference&#xA0;Range</th><th>Unit</th></tr><tr><td>Phosphate [Mass/volume] in Serum or Plasma</td><td>4.0</td><td>2.5 - 4.5</td><td></td><td>mg/dL</td></tr></table></div>"
        },
        "status": "final",
        "subject": {
          "reference": "urn:uuid:417e7fcf-9945-45af-9d09-613bcd6764e0",
          "display": "Aniela Prażmo"
        },
        "effectiveDateTime": "2017-05-23T18:47:50Z",
        "specimen": {
          "reference": "urn:uuid:bbd39aaf-9aba-430f-8651-9d223c99e05e"
        }
      }
    },
    {
      "fullUrl": "urn:uuid:01d0a9dd-ffdc-4694-abe0-50c278e99263",
      "resource": {
        "resourceType": "Observation",
        "id": "01d0a9dd-ffdc-4694-abe0-50c278e99263",
        "meta": {
          "profile": [
            "http://hl7.eu/fhir/laboratory/StructureDefinition/Observation-resultslab-eu-lab"
          ]
        },
        "performer": [
          {
            "display": "The Central European Lab"
          }
        ],
        "category": [
          {
            "coding": [
              {
                "system": "http://terminology.hl7.org/CodeSystem/observation-category",
                "code": "laboratory"
              }
            ]
          }
        ],
        "code": {
          "coding": [
            {
              "code": "5902-2",
              "system": "http://loinc.org",
              "display": "Prothrombin time (PT)"
            }
          ],
          "text": "Prothrombin time (PT)"
        },
        "valueQuantity": {
          "system": "http://unitsofmeasure.org",
          "value": 10.1,
          "unit": "s",
          "code": "s"
        },
        "referenceRange": [
          {
            "low": {
              "value": 11,
              "code": "s",
              "system": "http://unitsofmeasure.org"
            }
          },
          {
            "high": {
              "value": 15,
              "code": "s",
              "system": "http://unitsofmeasure.org"
            }
          }
        ],
        "interpretation": [
          {
            "coding": [
              {
                "code": "L",
                "system": "http://terminology.hl7.org/CodeSystem/v3-ObservationInterpretation",
                "display": "Low"
              }
            ]
          }
        ],
        "text": {
          "status": "generated",
          "div": "<div xmlns=\"http://www.w3.org/1999/xhtml\"><table class=\"hl7__eu__lab__report\"><tr><th>Test</th><th>23-May-2017</th><th>Reference&#xA0;Range</th><th>Unit</th></tr><tr><td>Prothrombin time (PT)</td><td>10.1</td><td>11 - 15</td><td>L</td><td>s</td></tr></table></div>"
        },
        "status": "final",
        "subject": {
          "reference": "urn:uuid:417e7fcf-9945-45af-9d09-613bcd6764e0",
          "display": "Aniela Prażmo"
        },
        "effectiveDateTime": "2017-05-23T18:47:50Z",
        "specimen": {
          "reference": "urn:uuid:bfe50cae-c83e-4561-9cdb-e7f114538e32"
        }
      }
    },
    {
      "fullUrl": "urn:uuid:70d55ad5-8c01-4f92-9755-cff83938d5ee",
      "resource": {
        "resourceType": "Observation",
        "id": "70d55ad5-8c01-4f92-9755-cff83938d5ee",
        "meta": {
          "profile": [
            "http://hl7.eu/fhir/laboratory/StructureDefinition/Observation-resultslab-eu-lab"
          ]
        },
        "performer": [
          {
            "display": "The Central European Lab"
          }
        ],
        "category": [
          {
            "coding": [
              {
                "system": "http://terminology.hl7.org/CodeSystem/observation-category",
                "code": "laboratory"
              }
            ]
          }
        ],
        "code": {
          "coding": [
            {
              "code": "6301-6",
              "system": "http://loinc.org",
              "display": "INR in Platelet poor plasma by Coagulation assay"
            }
          ],
          "text": "INR in Platelet poor plasma by Coagulation assay"
        },
        "valueQuantity": {
          "system": "http://unitsofmeasure.org",
          "value": 1.2,
          "unit": "{INR}",
          "code": "{INR}"
        },
        "referenceRange": [
          {
            "low": {
              "value": 0.9,
              "code": "INR",
              "system": "http://unitsofmeasure.org"
            }
          },
          {
            "high": {
              "value": 1.1,
              "code": "INR",
              "system": "http://unitsofmeasure.org"
            }
          }
        ],
        "interpretation": [
          {
            "coding": [
              {
                "code": "H",
                "system": "http://terminology.hl7.org/CodeSystem/v3-ObservationInterpretation",
                "display": "High"
              }
            ]
          }
        ],
        "text": {
          "status": "generated",
          "div": "<div xmlns=\"http://www.w3.org/1999/xhtml\"><table class=\"hl7__eu__lab__report\"><tr><th>Test</th><th>23-May-2017</th><th>Reference&#xA0;Range</th><th>Unit</th></tr><tr><td>INR in Platelet poor plasma by Coagulation assay</td><td>1.2</td><td>0.9 - 1.1</td><td>H</td><td>{INR}</td></tr></table></div>"
        },
        "status": "final",
        "subject": {
          "reference": "urn:uuid:417e7fcf-9945-45af-9d09-613bcd6764e0",
          "display": "Aniela Prażmo"
        },
        "effectiveDateTime": "2017-05-23T18:47:50Z",
        "specimen": {
          "reference": "urn:uuid:bfe50cae-c83e-4561-9cdb-e7f114538e32"
        }
      }
    },
    {
      "fullUrl": "urn:uuid:4e387ff9-4b1b-44e3-9292-15f47b1fb7a9",
      "resource": {
        "resourceType": "Observation",
        "id": "4e387ff9-4b1b-44e3-9292-15f47b1fb7a9",
        "meta": {
          "profile": [
            "http://hl7.eu/fhir/laboratory/StructureDefinition/Observation-resultslab-eu-lab"
          ]
        },
        "performer": [
          {
            "display": "The Central European Lab"
          }
        ],
        "category": [
          {
            "coding": [
              {
                "system": "http://terminology.hl7.org/CodeSystem/observation-category",
                "code": "laboratory"
              }
            ]
          }
        ],
        "code": {
          "coding": [
            {
              "code": "3173-2",
              "system": "http://loinc.org",
              "display": "aPTT in Blood by Coagulation assay"
            }
          ],
          "text": "aPTT in Blood by Coagulation assay"
        },
        "valueQuantity": {
          "system": "http://unitsofmeasure.org",
          "value": 32.9,
          "unit": "s",
          "code": "s"
        },
        "referenceRange": [
          {
            "low": {
              "value": 25,
              "code": "seconds",
              "system": "http://unitsofmeasure.org"
            }
          },
          {
            "high": {
              "value": 35,
              "code": "seconds",
              "system": "http://unitsofmeasure.org"
            }
          }
        ],
        "text": {
          "status": "generated",
          "div": "<div xmlns=\"http://www.w3.org/1999/xhtml\"><table class=\"hl7__eu__lab__report\"><tr><th>Test</th><th>23-May-2017</th><th>Reference&#xA0;Range</th><th>Unit</th></tr><tr><td>aPTT in Blood by Coagulation assay</td><td>32.9</td><td>25 - 35</td><td></td><td>s</td></tr></table></div>"
        },
        "status": "final",
        "subject": {
          "reference": "urn:uuid:417e7fcf-9945-45af-9d09-613bcd6764e0",
          "display": "Aniela Prażmo"
        },
        "effectiveDateTime": "2017-05-23T18:47:50Z",
        "specimen": {
          "reference": "urn:uuid:44e1e391-7c79-46d3-b4ab-166918f909d7"
        }
      }
    },
    {
      "fullUrl": "urn:uuid:0fd01b4b-3cb6-4f4f-8740-c4ba343e2dcc",
      "resource": {
        "resourceType": "Observation",
        "id": "0fd01b4b-3cb6-4f4f-8740-c4ba343e2dcc",
        "meta": {
          "profile": [
            "http://hl7.eu/fhir/laboratory/StructureDefinition/Observation-resultslab-eu-lab"
          ]
        },
        "performer": [
          {
            "display": "The Central European Lab"
          }
        ],
        "category": [
          {
            "coding": [
              {
                "system": "http://terminology.hl7.org/CodeSystem/observation-category",
                "code": "laboratory"
              }
            ]
          }
        ],
        "code": {
          "coding": [
            {
              "code": "2744-1",
              "system": "http://loinc.org",
              "display": "pH of Arterial blood"
            }
          ],
          "text": "pH of Arterial blood"
        },
        "valueQuantity": {
          "system": "http://unitsofmeasure.org",
          "value": 7,
          "unit": "[pH]",
          "code": "[pH]"
        },
        "referenceRange": [
          {
            "low": {
              "value": 7.35,
              "code": "pH",
              "system": "http://unitsofmeasure.org"
            }
          },
          {
            "high": {
              "value": 7.45,
              "code": "pH",
              "system": "http://unitsofmeasure.org"
            }
          }
        ],
        "interpretation": [
          {
            "coding": [
              {
                "code": "L",
                "system": "http://terminology.hl7.org/CodeSystem/v3-ObservationInterpretation",
                "display": "Low"
              }
            ]
          }
        ],
        "text": {
          "status": "generated",
          "div": "<div xmlns=\"http://www.w3.org/1999/xhtml\"><table class=\"hl7__eu__lab__report\"><tr><th>Test</th><th>23-May-2017</th><th>Reference&#xA0;Range</th><th>Unit</th></tr><tr><td>pH of Arterial blood</td><td>7.0</td><td>7.35 - 7.45</td><td>L</td><td>[pH]</td></tr></table></div>"
        },
        "status": "final",
        "subject": {
          "reference": "urn:uuid:417e7fcf-9945-45af-9d09-613bcd6764e0",
          "display": "Aniela Prażmo"
        },
        "effectiveDateTime": "2017-05-23T18:47:50Z",
        "specimen": {
          "reference": "urn:uuid:600e566f-ccce-42f6-bd64-136e597e5706"
        }
      }
    },
    {
      "fullUrl": "urn:uuid:1608ab33-2bf4-46b1-a7c0-f27810ac7654",
      "resource": {
        "resourceType": "Observation",
        "id": "1608ab33-2bf4-46b1-a7c0-f27810ac7654",
        "meta": {
          "profile": [
            "http://hl7.eu/fhir/laboratory/StructureDefinition/Observation-resultslab-eu-lab"
          ]
        },
        "performer": [
          {
            "display": "The Central European Lab"
          }
        ],
        "category": [
          {
            "coding": [
              {
                "system": "http://terminology.hl7.org/CodeSystem/observation-category",
                "code": "laboratory"
              }
            ]
          }
        ],
        "code": {
          "coding": [
            {
              "code": "2019-8",
              "system": "http://loinc.org",
              "display": "Carbon dioxide [Partial pressure] in Arterial blood"
            }
          ],
          "text": "Carbon dioxide [Partial pressure] in Arterial blood"
        },
        "valueQuantity": {
          "system": "http://unitsofmeasure.org",
          "value": 40.2,
          "unit": "mm[Hg]",
          "code": "mm[Hg]"
        },
        "referenceRange": [
          {
            "low": {
              "value": 38,
              "code": "mm[Hg]",
              "system": "http://unitsofmeasure.org"
            }
          },
          {
            "high": {
              "value": 48,
              "code": "mm[Hg]",
              "system": "http://unitsofmeasure.org"
            }
          }
        ],
        "text": {
          "status": "generated",
          "div": "<div xmlns=\"http://www.w3.org/1999/xhtml\"><table class=\"hl7__eu__lab__report\"><tr><th>Test</th><th>23-May-2017</th><th>Reference&#xA0;Range</th><th>Unit</th></tr><tr><td>Carbon dioxide [Partial pressure] in Arterial blood</td><td>40.2</td><td>38 - 48</td><td></td><td>mm[Hg]</td></tr></table></div>"
        },
        "status": "final",
        "subject": {
          "reference": "urn:uuid:417e7fcf-9945-45af-9d09-613bcd6764e0",
          "display": "Aniela Prażmo"
        },
        "effectiveDateTime": "2017-05-23T18:47:50Z",
        "specimen": {
          "reference": "urn:uuid:600e566f-ccce-42f6-bd64-136e597e5706"
        }
      }
    },
    {
      "fullUrl": "urn:uuid:cb6fd726-4d67-4033-9f5c-b997225fa8b8",
      "resource": {
        "resourceType": "Observation",
        "id": "cb6fd726-4d67-4033-9f5c-b997225fa8b8",
        "meta": {
          "profile": [
            "http://hl7.eu/fhir/laboratory/StructureDefinition/Observation-resultslab-eu-lab"
          ]
        },
        "performer": [
          {
            "display": "The Central European Lab"
          }
        ],
        "category": [
          {
            "coding": [
              {
                "system": "http://terminology.hl7.org/CodeSystem/observation-category",
                "code": "laboratory"
              }
            ]
          }
        ],
        "code": {
          "coding": [
            {
              "code": "2703-7",
              "system": "http://loinc.org",
              "display": "Oxygen [Partial pressure] in Arterial blood"
            }
          ],
          "text": "Oxygen [Partial pressure] in Arterial blood"
        },
        "valueQuantity": {
          "system": "http://unitsofmeasure.org",
          "value": 97.8,
          "unit": "mm[Hg]",
          "code": "mm[Hg]"
        },
        "referenceRange": [
          {
            "low": {
              "value": 75,
              "code": "mm[Hg]",
              "system": "http://unitsofmeasure.org"
            }
          },
          {
            "high": {
              "value": 100,
              "code": "mm[Hg]",
              "system": "http://unitsofmeasure.org"
            }
          }
        ],
        "text": {
          "status": "generated",
          "div": "<div xmlns=\"http://www.w3.org/1999/xhtml\"><table class=\"hl7__eu__lab__report\"><tr><th>Test</th><th>23-May-2017</th><th>Reference&#xA0;Range</th><th>Unit</th></tr><tr><td>Oxygen [Partial pressure] in Arterial blood</td><td>97.8</td><td>75 - 100</td><td></td><td>mm[Hg]</td></tr></table></div>"
        },
        "status": "final",
        "subject": {
          "reference": "urn:uuid:417e7fcf-9945-45af-9d09-613bcd6764e0",
          "display": "Aniela Prażmo"
        },
        "effectiveDateTime": "2017-05-23T18:47:50Z",
        "specimen": {
          "reference": "urn:uuid:600e566f-ccce-42f6-bd64-136e597e5706"
        }
      }
    },
    {
      "fullUrl": "urn:uuid:f6debb18-a7dd-404c-a535-0ebf59a5eec8",
      "resource": {
        "resourceType": "Observation",
        "id": "f6debb18-a7dd-404c-a535-0ebf59a5eec8",
        "meta": {
          "profile": [
            "http://hl7.eu/fhir/laboratory/StructureDefinition/Observation-resultslab-eu-lab"
          ]
        },
        "performer": [
          {
            "display": "The Central European Lab"
          }
        ],
        "category": [
          {
            "coding": [
              {
                "system": "http://terminology.hl7.org/CodeSystem/observation-category",
                "code": "laboratory"
              }
            ]
          }
        ],
        "code": {
          "coding": [
            {
              "code": "1960-4",
              "system": "http://loinc.org",
              "display": "Bicarbonate [Moles/volume] in Arterial blood"
            }
          ],
          "text": "Bicarbonate [Moles/volume] in Arterial blood"
        },
        "valueQuantity": {
          "system": "http://unitsofmeasure.org",
          "value": 22.8,
          "unit": "mmol/L",
          "code": "mmol/L"
        },
        "referenceRange": [
          {
            "low": {
              "value": 22,
              "code": "mmol/L",
              "system": "http://unitsofmeasure.org"
            }
          },
          {
            "high": {
              "value": 31,
              "code": "mmol/L",
              "system": "http://unitsofmeasure.org"
            }
          }
        ],
        "text": {
          "status": "generated",
          "div": "<div xmlns=\"http://www.w3.org/1999/xhtml\"><table class=\"hl7__eu__lab__report\"><tr><th>Test</th><th>23-May-2017</th><th>Reference&#xA0;Range</th><th>Unit</th></tr><tr><td>Bicarbonate [Moles/volume] in Arterial blood</td><td>22.8</td><td>22 - 31</td><td></td><td>mmol/L</td></tr></table></div>"
        },
        "status": "final",
        "subject": {
          "reference": "urn:uuid:417e7fcf-9945-45af-9d09-613bcd6764e0",
          "display": "Aniela Prażmo"
        },
        "effectiveDateTime": "2017-05-23T18:47:50Z",
        "specimen": {
          "reference": "urn:uuid:600e566f-ccce-42f6-bd64-136e597e5706"
        }
      }
    },
    {
      "fullUrl": "urn:uuid:d7efd220-973b-4457-88c3-59f1c529396e",
      "resource": {
        "resourceType": "Observation",
        "id": "d7efd220-973b-4457-88c3-59f1c529396e",
        "meta": {
          "profile": [
            "http://hl7.eu/fhir/laboratory/StructureDefinition/Observation-resultslab-eu-lab"
          ]
        },
        "performer": [
          {
            "display": "The Central European Lab"
          }
        ],
        "category": [
          {
            "coding": [
              {
                "system": "http://terminology.hl7.org/CodeSystem/observation-category",
                "code": "laboratory"
              }
            ]
          }
        ],
        "code": {
          "coding": [
            {
              "code": "2708-6",
              "system": "http://loinc.org",
              "display": "Oxygen saturation in Arterial blood"
            }
          ],
          "text": "Oxygen saturation in Arterial blood"
        },
        "valueQuantity": {
          "system": "http://unitsofmeasure.org",
          "value": 94,
          "unit": "%",
          "code": "%"
        },
        "referenceRange": [
          {
            "low": {
              "value": 95,
              "code": "%",
              "system": "http://unitsofmeasure.org"
            }
          },
          {
            "high": {
              "value": 100,
              "code": "%",
              "system": "http://unitsofmeasure.org"
            }
          }
        ],
        "interpretation": [
          {
            "coding": [
              {
                "code": "L",
                "system": "http://terminology.hl7.org/CodeSystem/v3-ObservationInterpretation",
                "display": "Low"
              }
            ]
          }
        ],
        "text": {
          "status": "generated",
          "div": "<div xmlns=\"http://www.w3.org/1999/xhtml\"><table class=\"hl7__eu__lab__report\"><tr><th>Test</th><th>23-May-2017</th><th>Reference&#xA0;Range</th><th>Unit</th></tr><tr><td>Oxygen saturation in Arterial blood</td><td>94.0</td><td>95 - 100</td><td>L</td><td>%</td></tr></table></div>"
        },
        "status": "final",
        "subject": {
          "reference": "urn:uuid:417e7fcf-9945-45af-9d09-613bcd6764e0",
          "display": "Aniela Prażmo"
        },
        "effectiveDateTime": "2017-05-23T18:47:50Z",
        "specimen": {
          "reference": "urn:uuid:600e566f-ccce-42f6-bd64-136e597e5706"
        }
      }
    },
    {
      "fullUrl": "urn:uuid:375a08dc-d6e2-43dd-881d-44b5d638860e",
      "resource": {
        "resourceType": "Observation",
        "id": "375a08dc-d6e2-43dd-881d-44b5d638860e",
        "meta": {
          "profile": [
            "http://hl7.eu/fhir/laboratory/StructureDefinition/Observation-resultslab-eu-lab"
          ]
        },
        "performer": [
          {
            "display": "The Central European Lab"
          }
        ],
        "category": [
          {
            "coding": [
              {
                "system": "http://terminology.hl7.org/CodeSystem/observation-category",
                "code": "laboratory"
              }
            ]
          }
        ],
        "code": {
          "coding": [
            {
              "code": "2093-3",
              "system": "http://loinc.org",
              "display": "Cholesterol [Mass/volume] in Serum or Plasma"
            }
          ],
          "text": "Cholesterol [Mass/volume] in Serum or Plasma"
        },
        "valueQuantity": {
          "system": "http://unitsofmeasure.org",
          "value": 299.5,
          "unit": "mg/dL",
          "code": "mg/dL"
        },
        "referenceRange": [
          {
            "low": {
              "value": 130,
              "code": "mg/dL",
              "system": "http://unitsofmeasure.org"
            }
          },
          {
            "high": {
              "value": 200,
              "code": "mg/dL",
              "system": "http://unitsofmeasure.org"
            }
          }
        ],
        "interpretation": [
          {
            "coding": [
              {
                "code": "H",
                "system": "http://terminology.hl7.org/CodeSystem/v3-ObservationInterpretation",
                "display": "High"
              }
            ]
          }
        ],
        "text": {
          "status": "generated",
          "div": "<div xmlns=\"http://www.w3.org/1999/xhtml\"><table class=\"hl7__eu__lab__report\"><tr><th>Test</th><th>23-May-2017</th><th>Reference&#xA0;Range</th><th>Unit</th></tr><tr><td>Cholesterol [Mass/volume] in Serum or Plasma</td><td>299.5</td><td>130 - 200</td><td>H</td><td>mg/dL</td></tr></table></div>"
        },
        "status": "final",
        "subject": {
          "reference": "urn:uuid:417e7fcf-9945-45af-9d09-613bcd6764e0",
          "display": "Aniela Prażmo"
        },
        "effectiveDateTime": "2017-05-23T18:47:50Z",
        "specimen": {
          "reference": "urn:uuid:bbd39aaf-9aba-430f-8651-9d223c99e05e"
        }
      }
    },
    {
      "fullUrl": "urn:uuid:2b47808d-77e1-4061-ad17-26f6e947c648",
      "resource": {
        "resourceType": "Observation",
        "id": "2b47808d-77e1-4061-ad17-26f6e947c648",
        "meta": {
          "profile": [
            "http://hl7.eu/fhir/laboratory/StructureDefinition/Observation-resultslab-eu-lab"
          ]
        },
        "performer": [
          {
            "display": "The Central European Lab"
          }
        ],
        "category": [
          {
            "coding": [
              {
                "system": "http://terminology.hl7.org/CodeSystem/observation-category",
                "code": "laboratory"
              }
            ]
          }
        ],
        "code": {
          "coding": [
            {
              "code": "2571-8",
              "system": "http://loinc.org",
              "display": "Triglyceride [Mass/volume] in Serum or Plasma"
            }
          ],
          "text": "Triglyceride [Mass/volume] in Serum or Plasma"
        },
        "valueQuantity": {
          "system": "http://unitsofmeasure.org",
          "value": 140.8,
          "unit": "mg/dL",
          "code": "mg/dL"
        },
        "referenceRange": [
          {
            "low": {
              "value": 0,
              "code": "mg/dL",
              "system": "http://unitsofmeasure.org"
            }
          },
          {
            "high": {
              "value": 199,
              "code": "mg/dL",
              "system": "http://unitsofmeasure.org"
            }
          }
        ],
        "text": {
          "status": "generated",
          "div": "<div xmlns=\"http://www.w3.org/1999/xhtml\"><table class=\"hl7__eu__lab__report\"><tr><th>Test</th><th>23-May-2017</th><th>Reference&#xA0;Range</th><th>Unit</th></tr><tr><td>Triglyceride [Mass/volume] in Serum or Plasma</td><td>140.8</td><td>0 - 199</td><td></td><td>mg/dL</td></tr></table></div>"
        },
        "status": "final",
        "subject": {
          "reference": "urn:uuid:417e7fcf-9945-45af-9d09-613bcd6764e0",
          "display": "Aniela Prażmo"
        },
        "effectiveDateTime": "2017-05-23T18:47:50Z",
        "specimen": {
          "reference": "urn:uuid:bbd39aaf-9aba-430f-8651-9d223c99e05e"
        }
      }
    },
    {
      "fullUrl": "urn:uuid:0d184b3e-141b-412b-98c6-21507f89736c",
      "resource": {
        "resourceType": "Observation",
        "id": "0d184b3e-141b-412b-98c6-21507f89736c",
        "meta": {
          "profile": [
            "http://hl7.eu/fhir/laboratory/StructureDefinition/Observation-resultslab-eu-lab"
          ]
        },
        "performer": [
          {
            "display": "The Central European Lab"
          }
        ],
        "category": [
          {
            "coding": [
              {
                "system": "http://terminology.hl7.org/CodeSystem/observation-category",
                "code": "laboratory"
              }
            ]
          }
        ],
        "code": {
          "coding": [
            {
              "code": "18262-6",
              "system": "http://loinc.org",
              "display": "Cholesterol in LDL [Mass/volume] in Serum or Plasma by Direct assay"
            }
          ],
          "text": "Cholesterol in LDL [Mass/volume] in Serum or Plasma by Direct assay"
        },
        "valueQuantity": {
          "system": "http://unitsofmeasure.org",
          "value": 210.5,
          "unit": "mg/dL",
          "code": "mg/dL"
        },
        "referenceRange": [
          {
            "low": {
              "value": 0,
              "code": "mg/dL",
              "system": "http://unitsofmeasure.org"
            }
          },
          {
            "high": {
              "value": 130,
              "code": "mg/dL",
              "system": "http://unitsofmeasure.org"
            }
          }
        ],
        "interpretation": [
          {
            "coding": [
              {
                "code": "H",
                "system": "http://terminology.hl7.org/CodeSystem/v3-ObservationInterpretation",
                "display": "High"
              }
            ]
          }
        ],
        "text": {
          "status": "generated",
          "div": "<div xmlns=\"http://www.w3.org/1999/xhtml\"><table class=\"hl7__eu__lab__report\"><tr><th>Test</th><th>23-May-2017</th><th>Reference&#xA0;Range</th><th>Unit</th></tr><tr><td>Cholesterol in LDL [Mass/volume] in Serum or Plasma by Direct assay</td><td>210.5</td><td>0 - 130</td><td>H</td><td>mg/dL</td></tr></table></div>"
        },
        "status": "final",
        "subject": {
          "reference": "urn:uuid:417e7fcf-9945-45af-9d09-613bcd6764e0",
          "display": "Aniela Prażmo"
        },
        "effectiveDateTime": "2017-05-23T18:47:50Z",
        "specimen": {
          "reference": "urn:uuid:bbd39aaf-9aba-430f-8651-9d223c99e05e"
        }
      }
    },
    {
      "fullUrl": "urn:uuid:5cf04667-4872-4f43-b829-bee6fe45d710",
      "resource": {
        "resourceType": "Observation",
        "id": "5cf04667-4872-4f43-b829-bee6fe45d710",
        "meta": {
          "profile": [
            "http://hl7.eu/fhir/laboratory/StructureDefinition/Observation-resultslab-eu-lab"
          ]
        },
        "performer": [
          {
            "display": "The Central European Lab"
          }
        ],
        "category": [
          {
            "coding": [
              {
                "system": "http://terminology.hl7.org/CodeSystem/observation-category",
                "code": "laboratory"
              }
            ]
          }
        ],
        "code": {
          "coding": [
            {
              "code": "2085-9",
              "system": "http://loinc.org",
              "display": "Cholesterol in HDL [Mass/volume] in Serum or Plasma"
            }
          ],
          "text": "Cholesterol in HDL [Mass/volume] in Serum or Plasma"
        },
        "valueQuantity": {
          "system": "http://unitsofmeasure.org",
          "value": 60.9,
          "unit": "mg/dL",
          "code": "mg/dL"
        },
        "referenceRange": [
          {
            "low": {
              "value": 50,
              "code": "mg/dL",
              "system": "http://unitsofmeasure.org"
            }
          },
          {
            "high": {
              "value": 100,
              "code": "mg/dL",
              "system": "http://unitsofmeasure.org"
            }
          }
        ],
        "text": {
          "status": "generated",
          "div": "<div xmlns=\"http://www.w3.org/1999/xhtml\"><table class=\"hl7__eu__lab__report\"><tr><th>Test</th><th>23-May-2017</th><th>Reference&#xA0;Range</th><th>Unit</th></tr><tr><td>Cholesterol in HDL [Mass/volume] in Serum or Plasma</td><td>60.9</td><td>50 - 100</td><td></td><td>mg/dL</td></tr></table></div>"
        },
        "status": "final",
        "subject": {
          "reference": "urn:uuid:417e7fcf-9945-45af-9d09-613bcd6764e0",
          "display": "Aniela Prażmo"
        },
        "effectiveDateTime": "2017-05-23T18:47:50Z",
        "specimen": {
          "reference": "urn:uuid:bbd39aaf-9aba-430f-8651-9d223c99e05e"
        }
      }
    },
    {
      "fullUrl": "urn:uuid:423ce7c1-5cb9-4141-b4be-1509866d4ba9",
      "resource": {
        "resourceType": "Device",
        "id": "423ce7c1-5cb9-4141-b4be-1509866d4ba9",
        "deviceName": [
          {
            "name": "SYNDERAI Synthetic Generator",
            "type": "manufacturer-name"
          }
        ],
        "version": [
          {
            "value": "5.0"
          }
        ],
        "text": {
          "status": "generated",
          "div": "<div xmlns=\"http://www.w3.org/1999/xhtml\">SYNDERAI Synthetic Generator v5.0</div>"
        },
        "status": "active\"",
        "distinctIdentifier": "synderai-generator-50",
        "manufacturer": "SYNDERAI Project"
      }
    },
    {
      "fullUrl": "urn:uuid:3875bef6-79be-4346-bd0a-ecf2d173cfb9",
      "resource": {
        "resourceType": "Provenance",
        "id": "3875bef6-79be-4346-bd0a-ecf2d173cfb9",
        "target": [
          {
            "reference": "Patient/417e7fcf-9945-45af-9d09-613bcd6764e0"
          },
          {
            "reference": "Bundle/0c00cbcb-2000-4964-af93-668b1077a3d2"
          },
          {
            "reference": "Composition/52365753-8700-4e36-8f7b-3cee424b7f8d"
          },
          {
            "reference": "PractitionerRole/e481113d-1168-4afc-9436-413824285ff3"
          },
          {
            "reference": "Practitioner/122c81fb-83dd-4931-b0a2-262e3480ea61"
          },
          {
            "reference": "PractitionerRole/b584a7a3-f8e2-43e9-9584-86bc51e0a0bf"
          },
          {
            "reference": "Organization/0ab5a2c7-6dd7-4971-ac62-73296625f066"
          }
        ],
        "activity": {
          "text": "Synthetic Example Data Generation"
        },
        "policy": [
          "https://synderai.net/synderai-synthetic-data-policy"
        ],
        "agent": [
          {
            "type": {
              "text": "author"
            },
            "who": {
              "reference": "Device/423ce7c1-5cb9-4141-b4be-1509866d4ba9"
            }
          }
        ],
        "reason": [
          {
            "text": "Interoperability Testing and Training (non-clinical use)"
          }
        ],
        "text": {
          "status": "generated",
          "div": "<div xmlns=\"http://www.w3.org/1999/xhtml\">Provenance for SYNDERAI Synthetic Example Data Resource</div>"
        },
        "recorded": "2017-05-23T20:47:50Z"
      }
    },
    {
      "fullUrl": "urn:uuid:e481113d-1168-4afc-9436-413824285ff3",
      "resource": {
        "resourceType": "PractitionerRole",
        "id": "e481113d-1168-4afc-9436-413824285ff3",
        "meta": {
          "profile": [
            "http://hl7.eu/fhir/base/StructureDefinition/practitionerRole-eu"
          ]
        },
        "text": {
          "status": "generated",
          "div": "<div xmlns=\"http://www.w3.org/1999/xhtml\">Laboratory Role Id: e481113d-1168-4afc-9436-413824285ff3</div>"
        },
        "practitioner": {
          "reference": "urn:uuid:122c81fb-83dd-4931-b0a2-262e3480ea61"
        }
      }
    },
    {
      "fullUrl": "urn:uuid:122c81fb-83dd-4931-b0a2-262e3480ea61",
      "resource": {
        "resourceType": "Practitioner",
        "id": "122c81fb-83dd-4931-b0a2-262e3480ea61",
        "meta": {
          "profile": [
            "http://hl7.eu/fhir/base/StructureDefinition/practitioner-eu"
          ]
        },
        "identifier": [
          {
            "assigner": {
              "display": "HL7 Europe"
            },
            "system": "urn:oid:2.16.840.1.113883.2.51.999",
            "value": "3a52b353-b69c-4751-b9ab-981f1ef804f4"
          }
        ],
        "name": [
          {
            "prefix": [
              "dr"
            ],
            "given": [
              "Ex"
            ],
            "family": "Ample"
          }
        ],
        "address": [
          {
            "line": [
              "Laboratoire Central Européenne",
              "Boulevard du Jardin Botanique 32"
            ],
            "postalCode": "1000",
            "city": "Brussels",
            "country": "Belgium"
          }
        ],
        "text": {
          "status": "generated",
          "div": "<div xmlns=\"http://www.w3.org/1999/xhtml\">Laboratory: Laboratoire Central Européenne, 1000 Brussels, Belgium</div>"
        }
      }
    }
  ],
  "type": "document",
  "timestamp": "2017-05-23T20:47:50Z"
}
