{
  "resourceType": "Bundle",
  "id": "b827b35b-33b6-4382-949e-b43d99da3469",
  "meta": {
    "profile": [
      "http://hl7.eu/fhir/laboratory/StructureDefinition/Bundle-eu-lab"
    ]
  },
  "identifier": {
    "assigner": {
      "display": "HL7 Europe"
    },
    "system": "urn:oid:2.16.840.1.113883.2.51.999",
    "value": "7331da45-e4d6-4556-b1ab-f71a875cce33"
  },
  "entry": [
    {
      "fullUrl": "urn:uuid:80519704-fd8a-4b43-a6fb-b934b73a17eb",
      "resource": {
        "resourceType": "Composition",
        "id": "80519704-fd8a-4b43-a6fb-b934b73a17eb",
        "meta": {
          "profile": [
            "http://hl7.eu/fhir/laboratory/StructureDefinition/Composition-eu-lab"
          ]
        },
        "identifier": {
          "assigner": {
            "display": "HL7 Europe"
          },
          "system": "urn:oid:2.16.840.1.113883.2.51.999",
          "value": "8d946c08-65d0-4134-b712-6da62522086f"
        },
        "author": [
          {
            "reference": "urn:uuid:34d56cb9-ecde-4355-a073-458b3097375c"
          }
        ],
        "category": [
          {
            "coding": [
              {
                "code": "26436-6",
                "system": "http://loinc.org",
                "display": "Laboratory studies (set)"
              }
            ]
          }
        ],
        "type": {
          "coding": [
            {
              "code": "11502-2",
              "system": "http://loinc.org",
              "display": "Laboratory report"
            }
          ],
          "text": "Laboratory Report"
        },
        "section": [
          {
            "code": {
              "coding": [
                {
                  "code": "26436-6",
                  "system": "http://loinc.org",
                  "display": "Laboratory studies (set)"
                }
              ],
              "text": "Laboratory studies"
            },
            "section": [
              {
                "code": {
                  "coding": [
                    {
                      "code": "$18719-5",
                      "system": "http://loinc.org",
                      "display": "Chemistry studies (set)"
                    }
                  ],
                  "text": "Chemistry"
                },
                "entry": [
                  {
                    "reference": "urn:uuid:816c90db-0620-4458-9749-ccda3a9ecdb1"
                  },
                  {
                    "reference": "urn:uuid:fe2f37c3-083d-4cf8-9f05-b0ed043b14dd"
                  },
                  {
                    "reference": "urn:uuid:d36bc905-fb28-4d4c-88b7-1c88c50b2f49"
                  },
                  {
                    "reference": "urn:uuid:5b587f69-c32e-461f-ab74-53d92c055efd"
                  },
                  {
                    "reference": "urn:uuid:2ad3a5be-fb6c-4314-a3a0-9fe79761ee4a"
                  },
                  {
                    "reference": "urn:uuid:48d42d65-1cf8-4ec7-968c-7aed3ed37284"
                  },
                  {
                    "reference": "urn:uuid:f8efa4bb-0bc8-4701-851c-6894c21e39c3"
                  },
                  {
                    "reference": "urn:uuid:d9a09aec-2103-486f-a715-f026ed520fba"
                  },
                  {
                    "reference": "urn:uuid:e60d9e59-d4ad-4387-9444-168529859db3"
                  }
                ],
                "text": {
                  "status": "generated",
                  "div": "<div xmlns=\"http://www.w3.org/1999/xhtml\"><h3>Chemistry</h3><table class=\"hl7__eu__lab__report\"><thead><tr><th>Test</th><th>31-OCT-2017</th><th>Reference&#xA0;Range</th><th>Unit</th></tr></thead><tbody><tr><td>Hemoglobin A1c/Hemoglobin.total in Blood</td><td>6.1</td><td>4.5 - 6.4</td><td>%</td></tr><tr><td>Glucose [Mass/volume] in Blood</td><td>87.7</td><td>70 - 140</td><td>mg/dL</td></tr><tr><td>Urea nitrogen [Mass/volume] in Blood</td><td>9.3</td><td>7 - 43</td><td>mg/dL</td></tr><tr><td>Creatinine [Mass/volume] in Blood</td><td>0.7</td><td>0.7 - 1.1</td><td>mg/dL</td></tr><tr><td>Calcium [Mass/volume] in Blood</td><td>9.8</td><td>8.5 - 10.4</td><td>mg/dL</td></tr><tr><td>Sodium [Moles/volume] in Blood</td><td>139.7</td><td>135 - 145</td><td>mmol/L</td></tr><tr><td>Potassium [Moles/volume] in Blood</td><td>3.8</td><td>3.5 - 5.1</td><td>mmol/L</td></tr><tr><td>Chloride [Moles/volume] in Blood</td><td><strong>107.9 H</strong></td><td>98 - 107</td><td>mmol/L</td></tr><tr><td>Carbon dioxide, total [Moles/volume] in Blood</td><td><strong>21.8 L</strong></td><td>22 - 32</td><td>mmol/L</td></tr></tbody></table></div>"
                },
                "title": "Chemistry"
              }
            ],
            "title": "Laboratory Report"
          },
          {
            "text": {
              "status": "generated",
              "div": "<div xmlns=\"http://www.w3.org/1999/xhtml\"><h3>Annotation</h3><table class=\"hl7__eu__lab__report\"><tr><th>Conclusion and Recommendations based on this report and previous findings known to us</th></tr><tr><td>All measured parameters are within or close to normal limits, except for a mildly elevated chloride and slightly decreased total CO₂, which may suggest a mild non-anion gap metabolic acidosis. Renal function, glucose, and electrolytes are otherwise unremarkable. No acute laboratory concerns; clinical correlation is recommended.</td></tr></table></div>"
            },
            "code": {
              "coding": [
                {
                  "system": "http://loinc.org",
                  "code": "48767-8",
                  "display": "Annotation comment"
                }
              ]
            },
            "title": "Annotation comment"
          }
        ],
        "status": "final",
        "subject": {
          "reference": "urn:uuid:75a94bc5-7fd8-44d8-8c5d-342e439df510",
          "display": "Louise Köster"
        },
        "date": "2017-10-31T05:02:53Z",
        "title": "Laboratory Report",
        "confidentiality": "N"
      }
    },
    {
      "fullUrl": "urn:uuid:a3571103-a9ac-49c0-b50d-880c185bec53",
      "resource": {
        "resourceType": "DiagnosticReport",
        "id": "a3571103-a9ac-49c0-b50d-880c185bec53",
        "meta": {
          "profile": [
            "http://hl7.eu/fhir/laboratory/StructureDefinition/DiagnosticReport-eu-lab"
          ]
        },
        "identifier": [
          {
            "assigner": {
              "display": "HL7 Europe"
            },
            "system": "urn:oid:2.16.840.1.113883.2.51.999",
            "value": "913eabcd-cf5a-4ec2-8304-aac2c1f31777"
          }
        ],
        "extension": [
          {
            "url": "http://hl7.org/fhir/5.0/StructureDefinition/extension-DiagnosticReport.composition",
            "valueReference": {
              "reference": "urn:uuid:8d946c08-65d0-4134-b712-6da62522086f"
            }
          }
        ],
        "category": [
          {
            "coding": [
              {
                "code": "26436-6",
                "system": "http://loinc.org",
                "display": "Laboratory studies (set)"
              }
            ]
          }
        ],
        "specimen": [
          {
            "reference": "urn:uuid:cae8f991-2df7-4173-a21c-f966ba1687b9"
          }
        ],
        "result": [
          {
            "reference": "urn:uuid:816c90db-0620-4458-9749-ccda3a9ecdb1"
          },
          {
            "reference": "urn:uuid:fe2f37c3-083d-4cf8-9f05-b0ed043b14dd"
          },
          {
            "reference": "urn:uuid:d36bc905-fb28-4d4c-88b7-1c88c50b2f49"
          },
          {
            "reference": "urn:uuid:5b587f69-c32e-461f-ab74-53d92c055efd"
          },
          {
            "reference": "urn:uuid:2ad3a5be-fb6c-4314-a3a0-9fe79761ee4a"
          },
          {
            "reference": "urn:uuid:48d42d65-1cf8-4ec7-968c-7aed3ed37284"
          },
          {
            "reference": "urn:uuid:f8efa4bb-0bc8-4701-851c-6894c21e39c3"
          },
          {
            "reference": "urn:uuid:d9a09aec-2103-486f-a715-f026ed520fba"
          },
          {
            "reference": "urn:uuid:e60d9e59-d4ad-4387-9444-168529859db3"
          }
        ],
        "status": "registered",
        "code": {
          "coding": [
            {
              "code": "11502-2",
              "system": "http://loinc.org",
              "display": "Laboratory report"
            }
          ]
        },
        "subject": {
          "reference": "urn:uuid:75a94bc5-7fd8-44d8-8c5d-342e439df510",
          "display": "Louise Köster"
        }
      }
    },
    {
      "fullUrl": "urn:uuid:75a94bc5-7fd8-44d8-8c5d-342e439df510",
      "resource": {
        "resourceType": "Patient",
        "id": "75a94bc5-7fd8-44d8-8c5d-342e439df510",
        "meta": {
          "security": [
            {
              "system": "http://terminology.hl7.org/CodeSystem/v3-ActReason",
              "code": "HTEST"
            },
            {
              "system": "http://terminology.hl7.org/CodeSystem/v3-ActReason",
              "code": "TRAIN"
            }
          ],
          "tag": [
            {
              "system": "https://synderai.net/fhir/CodeSystem/tags",
              "code": "synthetic",
              "display": "SYNDERAI Synthetic data"
            }
          ],
          "profile": [
            "http://hl7.eu/fhir/base/StructureDefinition/patient-eu-core"
          ]
        },
        "identifier": [
          {
            "type": {
              "coding": [
                {
                  "code": "PT",
                  "system": "http://terminology.hl7.org/CodeSystem/v2-0203"
                }
              ]
            },
            "system": "http://ec.europa.eu/identifier/eci",
            "value": "1053-167357-1"
          },
          {
            "type": {
              "coding": [
                {
                  "code": "MR",
                  "system": "http://terminology.hl7.org/CodeSystem/v2-0203"
                }
              ]
            },
            "system": "http://local.setting.eu/identifier",
            "value": "706b1a23-528f-0ed7-639f-1dc54e8ecc5d"
          }
        ],
        "name": [
          {
            "family": "Köster"
          },
          {
            "given": [
              "Louise"
            ]
          },
          {
            "text": "Louise Köster"
          }
        ],
        "address": [
          {
            "line": [
              "Regina-Butte-Ring 737"
            ],
            "use": "home",
            "type": "physical",
            "postalCode": "88348",
            "city": "Saulgau",
            "country": "Germany"
          }
        ],
        "telecom": [
          {
            "system": "phone",
            "value": "+49(0)2075293938"
          }
        ],
        "extension": [
          {
            "url": "http://hl7.org/fhir/StructureDefinition/patient-nationality",
            "valueCodeableConcept": {
              "coding": [
                {
                  "code": "DE",
                  "system": "http://hl7.org/fhir/ValueSet/country"
                }
              ]
            }
          }
        ],
        "text": {
          "status": "generated",
          "div": "<div xmlns=\"http://www.w3.org/1999/xhtml\"><table class=\"hl7__ips\"><tr><td>Louise Köster</td><td>female</td><td>01-Jul-1957</td></tr></table></div>"
        },
        "gender": "female",
        "birthDate": "1957-07-01"
      }
    },
    {
      "fullUrl": "urn:uuid:cdb9a04c-00e5-4ad5-ad31-d51b1c334955",
      "resource": {
        "resourceType": "ServiceRequest",
        "id": "cdb9a04c-00e5-4ad5-ad31-d51b1c334955",
        "meta": {
          "profile": [
            "http://hl7.eu/fhir/laboratory/StructureDefinition/ServiceRequest-eu-lab"
          ]
        },
        "identifier": [
          {
            "system": "http://example.org",
            "value": "5d95d7d6-7abe-418d-9937-cb17315313c3"
          }
        ],
        "specimen": [
          {
            "reference": "urn:uuid:cae8f991-2df7-4173-a21c-f966ba1687b9"
          }
        ],
        "reasonCode": [
          {
            "coding": [
              {
                "code": "15777000",
                "system": "http://snomed.info/sct",
                "display": "Prediabetes"
              }
            ]
          },
          {
            "coding": [
              {
                "code": "237602007",
                "system": "http://snomed.info/sct",
                "display": "Metabolic syndrome X"
              }
            ]
          },
          {
            "coding": [
              {
                "code": "414545008",
                "system": "http://snomed.info/sct",
                "display": "Ischemic heart disease"
              }
            ]
          },
          {
            "coding": [
              {
                "code": "59621000",
                "system": "http://snomed.info/sct",
                "display": "Essential hypertension"
              }
            ]
          }
        ],
        "status": "active",
        "intent": "order",
        "code": {
          "coding": [
            {
              "code": "108252007",
              "system": "http://snomed.info/sct",
              "display": "Laboratory procedure"
            }
          ]
        },
        "subject": {
          "reference": "urn:uuid:75a94bc5-7fd8-44d8-8c5d-342e439df510",
          "display": "Louise Köster"
        },
        "requester": {
          "reference": "urn:uuid:2e326df8-7f09-445f-850d-4a71656f12d0"
        }
      }
    },
    {
      "fullUrl": "urn:uuid:2e326df8-7f09-445f-850d-4a71656f12d0",
      "resource": {
        "resourceType": "PractitionerRole",
        "id": "2e326df8-7f09-445f-850d-4a71656f12d0",
        "meta": {
          "profile": [
            "http://hl7.eu/fhir/base/StructureDefinition/practitionerRole-eu"
          ]
        },
        "text": {
          "status": "generated",
          "div": "<div xmlns=\"http://www.w3.org/1999/xhtml\">Provider Role Id: 2e326df8-7f09-445f-850d-4a71656f12d0</div>"
        },
        "organization": {
          "reference": "urn:uuid:a501ef7c-8300-4239-8c17-ff71c67aea45"
        }
      }
    },
    {
      "fullUrl": "urn:uuid:a501ef7c-8300-4239-8c17-ff71c67aea45",
      "resource": {
        "resourceType": "Organization",
        "id": "a501ef7c-8300-4239-8c17-ff71c67aea45",
        "meta": {
          "profile": [
            "http://hl7.eu/fhir/base/StructureDefinition/organization-eu"
          ]
        },
        "identifier": [
          {
            "assigner": {
              "display": "HL7 Europe"
            },
            "system": "urn:oid:2.16.840.1.113883.2.51.999",
            "value": "23184b68-41e9-4bb4-bd32-075c7e674eeb"
          }
        ],
        "address": [
          {
            "line": [
              "Am Schönen Moos 7"
            ],
            "city": "Bad Saulgau",
            "postalCode": "88348",
            "country": "Germany"
          }
        ],
        "text": {
          "status": "generated",
          "div": "<div xmlns=\"http://www.w3.org/1999/xhtml\">Provider Organization: Klinik am schönen Moos</div>"
        },
        "name": "Klinik am schönen Moos"
      }
    },
    {
      "fullUrl": "urn:uuid:cae8f991-2df7-4173-a21c-f966ba1687b9",
      "resource": {
        "resourceType": "Specimen",
        "id": "cae8f991-2df7-4173-a21c-f966ba1687b9",
        "meta": {
          "profile": [
            "http://hl7.eu/fhir/laboratory/StructureDefinition/Specimen-eu-lab"
          ]
        },
        "collection": {
          "collectedDateTime": "2017-10-31"
        },
        "text": {
          "status": "generated",
          "div": "<div xmlns=\"http://www.w3.org/1999/xhtml\"><table class=\"hl7__eu__lab__report\"><tr><th>Specimen</th><th>Collection Date</th></tr><tr><td>Whole blood specimen (specimen)</td><td><span class=\"nb\">31-Oct-2017</span></td></tr></table></div>"
        },
        "type": {
          "coding": [
            {
              "code": "258580003",
              "system": "http://snomed.info/sct",
              "display": "Whole blood specimen (specimen)"
            }
          ]
        }
      }
    },
    {
      "fullUrl": "urn:uuid:816c90db-0620-4458-9749-ccda3a9ecdb1",
      "resource": {
        "resourceType": "Observation",
        "id": "816c90db-0620-4458-9749-ccda3a9ecdb1",
        "meta": {
          "profile": [
            "http://hl7.eu/fhir/laboratory/StructureDefinition/Observation-resultslab-eu-lab"
          ]
        },
        "performer": [
          {
            "display": "The Central European Lab"
          }
        ],
        "category": [
          {
            "coding": [
              {
                "system": "http://terminology.hl7.org/CodeSystem/observation-category",
                "code": "laboratory"
              }
            ]
          }
        ],
        "code": {
          "coding": [
            {
              "code": "4548-4",
              "system": "http://loinc.org",
              "display": "Hemoglobin A1c/Hemoglobin.total in Blood"
            }
          ],
          "text": "Hemoglobin A1c/Hemoglobin.total in Blood"
        },
        "valueQuantity": {
          "system": "http://unitsofmeasure.org",
          "value": 6.1,
          "unit": "%",
          "code": "%"
        },
        "referenceRange": [
          {
            "low": {
              "value": 4.5,
              "code": "%",
              "system": "http://unitsofmeasure.org"
            }
          },
          {
            "high": {
              "value": 6.4,
              "code": "%",
              "system": "http://unitsofmeasure.org"
            }
          }
        ],
        "text": {
          "status": "generated",
          "div": "<div xmlns=\"http://www.w3.org/1999/xhtml\"><table class=\"hl7__eu__lab__report\"><tr><th>Test</th><th>31-Oct-2017</th><th>Reference&#xA0;Range</th><th>Unit</th></tr><tr><td>Hemoglobin A1c/Hemoglobin.total in Blood</td><td>6.1</td><td>4.5 - 6.4</td><td></td><td>%</td></tr></table></div>"
        },
        "status": "final",
        "subject": {
          "reference": "urn:uuid:75a94bc5-7fd8-44d8-8c5d-342e439df510",
          "display": "Louise Köster"
        },
        "effectiveDateTime": "2017-10-31T04:02:53Z",
        "specimen": {
          "reference": "urn:uuid:cae8f991-2df7-4173-a21c-f966ba1687b9"
        }
      }
    },
    {
      "fullUrl": "urn:uuid:fe2f37c3-083d-4cf8-9f05-b0ed043b14dd",
      "resource": {
        "resourceType": "Observation",
        "id": "fe2f37c3-083d-4cf8-9f05-b0ed043b14dd",
        "meta": {
          "profile": [
            "http://hl7.eu/fhir/laboratory/StructureDefinition/Observation-resultslab-eu-lab"
          ]
        },
        "performer": [
          {
            "display": "The Central European Lab"
          }
        ],
        "category": [
          {
            "coding": [
              {
                "system": "http://terminology.hl7.org/CodeSystem/observation-category",
                "code": "laboratory"
              }
            ]
          }
        ],
        "code": {
          "coding": [
            {
              "code": "2339-0",
              "system": "http://loinc.org",
              "display": "Glucose [Mass/volume] in Blood"
            }
          ],
          "text": "Glucose [Mass/volume] in Blood"
        },
        "valueQuantity": {
          "system": "http://unitsofmeasure.org",
          "value": 87.7,
          "unit": "mg/dL",
          "code": "mg/dL"
        },
        "referenceRange": [
          {
            "low": {
              "value": 70,
              "code": "mg/dL",
              "system": "http://unitsofmeasure.org"
            }
          },
          {
            "high": {
              "value": 140,
              "code": "mg/dL",
              "system": "http://unitsofmeasure.org"
            }
          }
        ],
        "text": {
          "status": "generated",
          "div": "<div xmlns=\"http://www.w3.org/1999/xhtml\"><table class=\"hl7__eu__lab__report\"><tr><th>Test</th><th>31-Oct-2017</th><th>Reference&#xA0;Range</th><th>Unit</th></tr><tr><td>Glucose [Mass/volume] in Blood</td><td>87.7</td><td>70 - 140</td><td></td><td>mg/dL</td></tr></table></div>"
        },
        "status": "final",
        "subject": {
          "reference": "urn:uuid:75a94bc5-7fd8-44d8-8c5d-342e439df510",
          "display": "Louise Köster"
        },
        "effectiveDateTime": "2017-10-31T04:02:53Z",
        "specimen": {
          "reference": "urn:uuid:cae8f991-2df7-4173-a21c-f966ba1687b9"
        }
      }
    },
    {
      "fullUrl": "urn:uuid:d36bc905-fb28-4d4c-88b7-1c88c50b2f49",
      "resource": {
        "resourceType": "Observation",
        "id": "d36bc905-fb28-4d4c-88b7-1c88c50b2f49",
        "meta": {
          "profile": [
            "http://hl7.eu/fhir/laboratory/StructureDefinition/Observation-resultslab-eu-lab"
          ]
        },
        "performer": [
          {
            "display": "The Central European Lab"
          }
        ],
        "category": [
          {
            "coding": [
              {
                "system": "http://terminology.hl7.org/CodeSystem/observation-category",
                "code": "laboratory"
              }
            ]
          }
        ],
        "code": {
          "coding": [
            {
              "code": "6299-2",
              "system": "http://loinc.org",
              "display": "Urea nitrogen [Mass/volume] in Blood"
            }
          ],
          "text": "Urea nitrogen [Mass/volume] in Blood"
        },
        "valueQuantity": {
          "system": "http://unitsofmeasure.org",
          "value": 9.3,
          "unit": "mg/dL",
          "code": "mg/dL"
        },
        "referenceRange": [
          {
            "low": {
              "value": 7,
              "code": "mg/dL",
              "system": "http://unitsofmeasure.org"
            }
          },
          {
            "high": {
              "value": 43,
              "code": "mg/dL",
              "system": "http://unitsofmeasure.org"
            }
          }
        ],
        "text": {
          "status": "generated",
          "div": "<div xmlns=\"http://www.w3.org/1999/xhtml\"><table class=\"hl7__eu__lab__report\"><tr><th>Test</th><th>31-Oct-2017</th><th>Reference&#xA0;Range</th><th>Unit</th></tr><tr><td>Urea nitrogen [Mass/volume] in Blood</td><td>9.3</td><td>7 - 43</td><td></td><td>mg/dL</td></tr></table></div>"
        },
        "status": "final",
        "subject": {
          "reference": "urn:uuid:75a94bc5-7fd8-44d8-8c5d-342e439df510",
          "display": "Louise Köster"
        },
        "effectiveDateTime": "2017-10-31T04:02:53Z",
        "specimen": {
          "reference": "urn:uuid:cae8f991-2df7-4173-a21c-f966ba1687b9"
        }
      }
    },
    {
      "fullUrl": "urn:uuid:5b587f69-c32e-461f-ab74-53d92c055efd",
      "resource": {
        "resourceType": "Observation",
        "id": "5b587f69-c32e-461f-ab74-53d92c055efd",
        "meta": {
          "profile": [
            "http://hl7.eu/fhir/laboratory/StructureDefinition/Observation-resultslab-eu-lab"
          ]
        },
        "performer": [
          {
            "display": "The Central European Lab"
          }
        ],
        "category": [
          {
            "coding": [
              {
                "system": "http://terminology.hl7.org/CodeSystem/observation-category",
                "code": "laboratory"
              }
            ]
          }
        ],
        "code": {
          "coding": [
            {
              "code": "38483-4",
              "system": "http://loinc.org",
              "display": "Creatinine [Mass/volume] in Blood"
            }
          ],
          "text": "Creatinine [Mass/volume] in Blood"
        },
        "valueQuantity": {
          "system": "http://unitsofmeasure.org",
          "value": 0.7,
          "unit": "mg/dL",
          "code": "mg/dL"
        },
        "referenceRange": [
          {
            "low": {
              "value": 0.7,
              "code": "mg/dL",
              "system": "http://unitsofmeasure.org"
            }
          },
          {
            "high": {
              "value": 1.1,
              "code": "mg/dL",
              "system": "http://unitsofmeasure.org"
            }
          }
        ],
        "text": {
          "status": "generated",
          "div": "<div xmlns=\"http://www.w3.org/1999/xhtml\"><table class=\"hl7__eu__lab__report\"><tr><th>Test</th><th>31-Oct-2017</th><th>Reference&#xA0;Range</th><th>Unit</th></tr><tr><td>Creatinine [Mass/volume] in Blood</td><td>0.7</td><td>0.7 - 1.1</td><td></td><td>mg/dL</td></tr></table></div>"
        },
        "status": "final",
        "subject": {
          "reference": "urn:uuid:75a94bc5-7fd8-44d8-8c5d-342e439df510",
          "display": "Louise Köster"
        },
        "effectiveDateTime": "2017-10-31T04:02:53Z",
        "specimen": {
          "reference": "urn:uuid:cae8f991-2df7-4173-a21c-f966ba1687b9"
        }
      }
    },
    {
      "fullUrl": "urn:uuid:2ad3a5be-fb6c-4314-a3a0-9fe79761ee4a",
      "resource": {
        "resourceType": "Observation",
        "id": "2ad3a5be-fb6c-4314-a3a0-9fe79761ee4a",
        "meta": {
          "profile": [
            "http://hl7.eu/fhir/laboratory/StructureDefinition/Observation-resultslab-eu-lab"
          ]
        },
        "performer": [
          {
            "display": "The Central European Lab"
          }
        ],
        "category": [
          {
            "coding": [
              {
                "system": "http://terminology.hl7.org/CodeSystem/observation-category",
                "code": "laboratory"
              }
            ]
          }
        ],
        "code": {
          "coding": [
            {
              "code": "49765-1",
              "system": "http://loinc.org",
              "display": "Calcium [Mass/volume] in Blood"
            }
          ],
          "text": "Calcium [Mass/volume] in Blood"
        },
        "valueQuantity": {
          "system": "http://unitsofmeasure.org",
          "value": 9.8,
          "unit": "mg/dL",
          "code": "mg/dL"
        },
        "referenceRange": [
          {
            "low": {
              "value": 8.5,
              "code": "mg/dL",
              "system": "http://unitsofmeasure.org"
            }
          },
          {
            "high": {
              "value": 10.4,
              "code": "mg/dL",
              "system": "http://unitsofmeasure.org"
            }
          }
        ],
        "text": {
          "status": "generated",
          "div": "<div xmlns=\"http://www.w3.org/1999/xhtml\"><table class=\"hl7__eu__lab__report\"><tr><th>Test</th><th>31-Oct-2017</th><th>Reference&#xA0;Range</th><th>Unit</th></tr><tr><td>Calcium [Mass/volume] in Blood</td><td>9.8</td><td>8.5 - 10.4</td><td></td><td>mg/dL</td></tr></table></div>"
        },
        "status": "final",
        "subject": {
          "reference": "urn:uuid:75a94bc5-7fd8-44d8-8c5d-342e439df510",
          "display": "Louise Köster"
        },
        "effectiveDateTime": "2017-10-31T04:02:53Z",
        "specimen": {
          "reference": "urn:uuid:cae8f991-2df7-4173-a21c-f966ba1687b9"
        }
      }
    },
    {
      "fullUrl": "urn:uuid:48d42d65-1cf8-4ec7-968c-7aed3ed37284",
      "resource": {
        "resourceType": "Observation",
        "id": "48d42d65-1cf8-4ec7-968c-7aed3ed37284",
        "meta": {
          "profile": [
            "http://hl7.eu/fhir/laboratory/StructureDefinition/Observation-resultslab-eu-lab"
          ]
        },
        "performer": [
          {
            "display": "The Central European Lab"
          }
        ],
        "category": [
          {
            "coding": [
              {
                "system": "http://terminology.hl7.org/CodeSystem/observation-category",
                "code": "laboratory"
              }
            ]
          }
        ],
        "code": {
          "coding": [
            {
              "code": "2947-0",
              "system": "http://loinc.org",
              "display": "Sodium [Moles/volume] in Blood"
            }
          ],
          "text": "Sodium [Moles/volume] in Blood"
        },
        "valueQuantity": {
          "system": "http://unitsofmeasure.org",
          "value": 139.7,
          "unit": "mmol/L",
          "code": "mmol/L"
        },
        "referenceRange": [
          {
            "low": {
              "value": 135,
              "code": "mmol/L",
              "system": "http://unitsofmeasure.org"
            }
          },
          {
            "high": {
              "value": 145,
              "code": "mmol/L",
              "system": "http://unitsofmeasure.org"
            }
          }
        ],
        "text": {
          "status": "generated",
          "div": "<div xmlns=\"http://www.w3.org/1999/xhtml\"><table class=\"hl7__eu__lab__report\"><tr><th>Test</th><th>31-Oct-2017</th><th>Reference&#xA0;Range</th><th>Unit</th></tr><tr><td>Sodium [Moles/volume] in Blood</td><td>139.7</td><td>135 - 145</td><td></td><td>mmol/L</td></tr></table></div>"
        },
        "status": "final",
        "subject": {
          "reference": "urn:uuid:75a94bc5-7fd8-44d8-8c5d-342e439df510",
          "display": "Louise Köster"
        },
        "effectiveDateTime": "2017-10-31T04:02:53Z",
        "specimen": {
          "reference": "urn:uuid:cae8f991-2df7-4173-a21c-f966ba1687b9"
        }
      }
    },
    {
      "fullUrl": "urn:uuid:f8efa4bb-0bc8-4701-851c-6894c21e39c3",
      "resource": {
        "resourceType": "Observation",
        "id": "f8efa4bb-0bc8-4701-851c-6894c21e39c3",
        "meta": {
          "profile": [
            "http://hl7.eu/fhir/laboratory/StructureDefinition/Observation-resultslab-eu-lab"
          ]
        },
        "performer": [
          {
            "display": "The Central European Lab"
          }
        ],
        "category": [
          {
            "coding": [
              {
                "system": "http://terminology.hl7.org/CodeSystem/observation-category",
                "code": "laboratory"
              }
            ]
          }
        ],
        "code": {
          "coding": [
            {
              "code": "6298-4",
              "system": "http://loinc.org",
              "display": "Potassium [Moles/volume] in Blood"
            }
          ],
          "text": "Potassium [Moles/volume] in Blood"
        },
        "valueQuantity": {
          "system": "http://unitsofmeasure.org",
          "value": 3.8,
          "unit": "mmol/L",
          "code": "mmol/L"
        },
        "referenceRange": [
          {
            "low": {
              "value": 3.5,
              "code": "mmol/L",
              "system": "http://unitsofmeasure.org"
            }
          },
          {
            "high": {
              "value": 5.1,
              "code": "mmol/L",
              "system": "http://unitsofmeasure.org"
            }
          }
        ],
        "text": {
          "status": "generated",
          "div": "<div xmlns=\"http://www.w3.org/1999/xhtml\"><table class=\"hl7__eu__lab__report\"><tr><th>Test</th><th>31-Oct-2017</th><th>Reference&#xA0;Range</th><th>Unit</th></tr><tr><td>Potassium [Moles/volume] in Blood</td><td>3.8</td><td>3.5 - 5.1</td><td></td><td>mmol/L</td></tr></table></div>"
        },
        "status": "final",
        "subject": {
          "reference": "urn:uuid:75a94bc5-7fd8-44d8-8c5d-342e439df510",
          "display": "Louise Köster"
        },
        "effectiveDateTime": "2017-10-31T04:02:53Z",
        "specimen": {
          "reference": "urn:uuid:cae8f991-2df7-4173-a21c-f966ba1687b9"
        }
      }
    },
    {
      "fullUrl": "urn:uuid:d9a09aec-2103-486f-a715-f026ed520fba",
      "resource": {
        "resourceType": "Observation",
        "id": "d9a09aec-2103-486f-a715-f026ed520fba",
        "meta": {
          "profile": [
            "http://hl7.eu/fhir/laboratory/StructureDefinition/Observation-resultslab-eu-lab"
          ]
        },
        "performer": [
          {
            "display": "The Central European Lab"
          }
        ],
        "category": [
          {
            "coding": [
              {
                "system": "http://terminology.hl7.org/CodeSystem/observation-category",
                "code": "laboratory"
              }
            ]
          }
        ],
        "code": {
          "coding": [
            {
              "code": "2069-3",
              "system": "http://loinc.org",
              "display": "Chloride [Moles/volume] in Blood"
            }
          ],
          "text": "Chloride [Moles/volume] in Blood"
        },
        "valueQuantity": {
          "system": "http://unitsofmeasure.org",
          "value": 107.9,
          "unit": "mmol/L",
          "code": "mmol/L"
        },
        "referenceRange": [
          {
            "low": {
              "value": 98,
              "code": "mmol/L",
              "system": "http://unitsofmeasure.org"
            }
          },
          {
            "high": {
              "value": 107,
              "code": "mmol/L",
              "system": "http://unitsofmeasure.org"
            }
          }
        ],
        "interpretation": [
          {
            "coding": [
              {
                "code": "H",
                "system": "http://terminology.hl7.org/CodeSystem/v3-ObservationInterpretation",
                "display": "High"
              }
            ]
          }
        ],
        "text": {
          "status": "generated",
          "div": "<div xmlns=\"http://www.w3.org/1999/xhtml\"><table class=\"hl7__eu__lab__report\"><tr><th>Test</th><th>31-Oct-2017</th><th>Reference&#xA0;Range</th><th>Unit</th></tr><tr><td>Chloride [Moles/volume] in Blood</td><td>107.9</td><td>98 - 107</td><td>H</td><td>mmol/L</td></tr></table></div>"
        },
        "status": "final",
        "subject": {
          "reference": "urn:uuid:75a94bc5-7fd8-44d8-8c5d-342e439df510",
          "display": "Louise Köster"
        },
        "effectiveDateTime": "2017-10-31T04:02:53Z",
        "specimen": {
          "reference": "urn:uuid:cae8f991-2df7-4173-a21c-f966ba1687b9"
        }
      }
    },
    {
      "fullUrl": "urn:uuid:e60d9e59-d4ad-4387-9444-168529859db3",
      "resource": {
        "resourceType": "Observation",
        "id": "e60d9e59-d4ad-4387-9444-168529859db3",
        "meta": {
          "profile": [
            "http://hl7.eu/fhir/laboratory/StructureDefinition/Observation-resultslab-eu-lab"
          ]
        },
        "performer": [
          {
            "display": "The Central European Lab"
          }
        ],
        "category": [
          {
            "coding": [
              {
                "system": "http://terminology.hl7.org/CodeSystem/observation-category",
                "code": "laboratory"
              }
            ]
          }
        ],
        "code": {
          "coding": [
            {
              "code": "20565-8",
              "system": "http://loinc.org",
              "display": "Carbon dioxide, total [Moles/volume] in Blood"
            }
          ],
          "text": "Carbon dioxide, total [Moles/volume] in Blood"
        },
        "valueQuantity": {
          "system": "http://unitsofmeasure.org",
          "value": 21.8,
          "unit": "mmol/L",
          "code": "mmol/L"
        },
        "referenceRange": [
          {
            "low": {
              "value": 22,
              "code": "mmol/L",
              "system": "http://unitsofmeasure.org"
            }
          },
          {
            "high": {
              "value": 32,
              "code": "mmol/L",
              "system": "http://unitsofmeasure.org"
            }
          }
        ],
        "interpretation": [
          {
            "coding": [
              {
                "code": "L",
                "system": "http://terminology.hl7.org/CodeSystem/v3-ObservationInterpretation",
                "display": "Low"
              }
            ]
          }
        ],
        "text": {
          "status": "generated",
          "div": "<div xmlns=\"http://www.w3.org/1999/xhtml\"><table class=\"hl7__eu__lab__report\"><tr><th>Test</th><th>31-Oct-2017</th><th>Reference&#xA0;Range</th><th>Unit</th></tr><tr><td>Carbon dioxide, total [Moles/volume] in Blood</td><td>21.8</td><td>22 - 32</td><td>L</td><td>mmol/L</td></tr></table></div>"
        },
        "status": "final",
        "subject": {
          "reference": "urn:uuid:75a94bc5-7fd8-44d8-8c5d-342e439df510",
          "display": "Louise Köster"
        },
        "effectiveDateTime": "2017-10-31T04:02:53Z",
        "specimen": {
          "reference": "urn:uuid:cae8f991-2df7-4173-a21c-f966ba1687b9"
        }
      }
    },
    {
      "fullUrl": "urn:uuid:dcbaf945-2a01-43e1-b6ab-1aa2f9680f5d",
      "resource": {
        "resourceType": "Device",
        "id": "dcbaf945-2a01-43e1-b6ab-1aa2f9680f5d",
        "deviceName": [
          {
            "name": "SYNDERAI Synthetic Generator",
            "type": "manufacturer-name"
          }
        ],
        "version": [
          {
            "value": "5.0"
          }
        ],
        "text": {
          "status": "generated",
          "div": "<div xmlns=\"http://www.w3.org/1999/xhtml\">SYNDERAI Synthetic Generator v5.0</div>"
        },
        "status": "active\"",
        "distinctIdentifier": "synderai-generator-50",
        "manufacturer": "SYNDERAI Project"
      }
    },
    {
      "fullUrl": "urn:uuid:f244e9a3-72dd-485e-97fb-f96b93243f8d",
      "resource": {
        "resourceType": "Provenance",
        "id": "f244e9a3-72dd-485e-97fb-f96b93243f8d",
        "target": [
          {
            "reference": "Patient/75a94bc5-7fd8-44d8-8c5d-342e439df510"
          },
          {
            "reference": "Bundle/b827b35b-33b6-4382-949e-b43d99da3469"
          },
          {
            "reference": "Composition/80519704-fd8a-4b43-a6fb-b934b73a17eb"
          },
          {
            "reference": "PractitionerRole/34d56cb9-ecde-4355-a073-458b3097375c"
          },
          {
            "reference": "Practitioner/818c86e0-452a-49bc-9fe5-8c9ce3604398"
          },
          {
            "reference": "PractitionerRole/2e326df8-7f09-445f-850d-4a71656f12d0"
          },
          {
            "reference": "Organization/a501ef7c-8300-4239-8c17-ff71c67aea45"
          }
        ],
        "activity": {
          "text": "Synthetic Example Data Generation"
        },
        "policy": [
          "https://synderai.net/synderai-synthetic-data-policy"
        ],
        "agent": [
          {
            "type": {
              "text": "author"
            },
            "who": {
              "reference": "Device/dcbaf945-2a01-43e1-b6ab-1aa2f9680f5d"
            }
          }
        ],
        "reason": [
          {
            "text": "Interoperability Testing and Training (non-clinical use)"
          }
        ],
        "text": {
          "status": "generated",
          "div": "<div xmlns=\"http://www.w3.org/1999/xhtml\">Provenance for SYNDERAI Synthetic Example Data Resource</div>"
        },
        "recorded": "2017-10-31T05:02:53Z"
      }
    },
    {
      "fullUrl": "urn:uuid:34d56cb9-ecde-4355-a073-458b3097375c",
      "resource": {
        "resourceType": "PractitionerRole",
        "id": "34d56cb9-ecde-4355-a073-458b3097375c",
        "meta": {
          "profile": [
            "http://hl7.eu/fhir/base/StructureDefinition/practitionerRole-eu"
          ]
        },
        "text": {
          "status": "generated",
          "div": "<div xmlns=\"http://www.w3.org/1999/xhtml\">Laboratory Role Id: 34d56cb9-ecde-4355-a073-458b3097375c</div>"
        },
        "practitioner": {
          "reference": "urn:uuid:818c86e0-452a-49bc-9fe5-8c9ce3604398"
        }
      }
    },
    {
      "fullUrl": "urn:uuid:818c86e0-452a-49bc-9fe5-8c9ce3604398",
      "resource": {
        "resourceType": "Practitioner",
        "id": "818c86e0-452a-49bc-9fe5-8c9ce3604398",
        "meta": {
          "profile": [
            "http://hl7.eu/fhir/base/StructureDefinition/practitioner-eu"
          ]
        },
        "identifier": [
          {
            "assigner": {
              "display": "HL7 Europe"
            },
            "system": "urn:oid:2.16.840.1.113883.2.51.999",
            "value": "954d29e3-6e5f-4b96-9b0a-b7602bd08853"
          }
        ],
        "name": [
          {
            "prefix": [
              "dr"
            ],
            "given": [
              "Ex"
            ],
            "family": "Ample"
          }
        ],
        "address": [
          {
            "line": [
              "Laboratoire Central Européenne",
              "Boulevard du Jardin Botanique 32"
            ],
            "postalCode": "1000",
            "city": "Brussels",
            "country": "Belgium"
          }
        ],
        "text": {
          "status": "generated",
          "div": "<div xmlns=\"http://www.w3.org/1999/xhtml\">Laboratory: Laboratoire Central Européenne, 1000 Brussels, Belgium</div>"
        }
      }
    }
  ],
  "type": "document",
  "timestamp": "2017-10-31T05:02:53Z"
}
