{
  "resourceType": "Bundle",
  "id": "98a76610-8409-4966-b0c4-517a303fff8d",
  "meta": {
    "profile": [
      "http://hl7.eu/fhir/laboratory/StructureDefinition/Bundle-eu-lab"
    ]
  },
  "identifier": {
    "assigner": {
      "display": "HL7 Europe"
    },
    "system": "urn:oid:2.16.840.1.113883.2.51.999",
    "value": "fe9bdf2c-e59a-4132-801b-135da19efd95"
  },
  "entry": [
    {
      "fullUrl": "urn:uuid:a9b296ef-c211-4f35-b338-b74089ca7200",
      "resource": {
        "resourceType": "Composition",
        "id": "a9b296ef-c211-4f35-b338-b74089ca7200",
        "meta": {
          "profile": [
            "http://hl7.eu/fhir/laboratory/StructureDefinition/Composition-eu-lab"
          ]
        },
        "identifier": {
          "assigner": {
            "display": "HL7 Europe"
          },
          "system": "urn:oid:2.16.840.1.113883.2.51.999",
          "value": "f33f07c1-7c8b-4f98-9a99-cac85dfe5532"
        },
        "author": [
          {
            "reference": "urn:uuid:24589080-fb4a-46ef-9da4-6e4ced4475ca"
          }
        ],
        "category": [
          {
            "coding": [
              {
                "code": "26436-6",
                "system": "http://loinc.org",
                "display": "Laboratory studies (set)"
              }
            ]
          }
        ],
        "type": {
          "coding": [
            {
              "code": "11502-2",
              "system": "http://loinc.org",
              "display": "Laboratory report"
            }
          ],
          "text": "Laboratory Report"
        },
        "section": [
          {
            "code": {
              "coding": [
                {
                  "code": "26436-6",
                  "system": "http://loinc.org",
                  "display": "Laboratory studies (set)"
                }
              ],
              "text": "Laboratory studies"
            },
            "section": [
              {
                "code": {
                  "coding": [
                    {
                      "code": "$18719-5",
                      "system": "http://loinc.org",
                      "display": "Chemistry studies (set)"
                    }
                  ],
                  "text": "Chemistry"
                },
                "entry": [
                  {
                    "reference": "urn:uuid:baae4837-5a15-4721-81a7-20f07d9758b9"
                  },
                  {
                    "reference": "urn:uuid:03536b2f-bc90-4b32-97ea-881e704e31e2"
                  },
                  {
                    "reference": "urn:uuid:7fa5ab9f-91b2-41d8-a070-775cb2283d73"
                  },
                  {
                    "reference": "urn:uuid:63dd1a1e-0a10-41ba-bb66-c5aab80038d3"
                  },
                  {
                    "reference": "urn:uuid:eeed25f2-2a12-4486-8454-abc741717d95"
                  },
                  {
                    "reference": "urn:uuid:b67faa68-439d-4f4a-95a3-eebdb78758f2"
                  },
                  {
                    "reference": "urn:uuid:fc6545c5-2db7-4a5b-b8e7-10c237df7d19"
                  },
                  {
                    "reference": "urn:uuid:081ef503-5099-491f-b67c-3f3fe50889ea"
                  },
                  {
                    "reference": "urn:uuid:90ab4079-c989-46fe-91b1-8c3a3915ebc0"
                  },
                  {
                    "reference": "urn:uuid:96c9ed33-7c9f-4cbb-bc65-177329eb8943"
                  },
                  {
                    "reference": "urn:uuid:1b60810a-814d-4fda-ab53-7de6533e7d86"
                  },
                  {
                    "reference": "urn:uuid:e83169c7-c270-4529-8ed4-f70efc1d9855"
                  },
                  {
                    "reference": "urn:uuid:87e75e22-8156-4e68-a6db-2aab2d59be00"
                  }
                ],
                "text": {
                  "status": "generated",
                  "div": "<div xmlns=\"http://www.w3.org/1999/xhtml\"><h3>Chemistry</h3><table class=\"hl7__eu__lab__report\"><thead><tr><th>Test</th><th>29-NOV-2022</th><th>Reference&#xA0;Range</th><th>Unit</th></tr></thead><tbody><tr><td>Hemoglobin A1c/Hemoglobin.total in Blood</td><td>6.0</td><td>4.5 - 6.4</td><td>%</td></tr><tr><td>Glucose [Mass/volume] in Blood</td><td>86.1</td><td>70 - 140</td><td>mg/dL</td></tr><tr><td>Urea nitrogen [Mass/volume] in Blood</td><td>18.9</td><td>7 - 43</td><td>mg/dL</td></tr><tr><td>Creatinine [Mass/volume] in Blood</td><td>0.7</td><td>0.7 - 1.1</td><td>mg/dL</td></tr><tr><td>Calcium [Mass/volume] in Blood</td><td>8.8</td><td>8.5 - 10.4</td><td>mg/dL</td></tr><tr><td>Sodium [Moles/volume] in Blood</td><td>139.4</td><td>135 - 145</td><td>mmol/L</td></tr><tr><td>Potassium [Moles/volume] in Blood</td><td><strong>5.2 H</strong></td><td>3.5 - 5.1</td><td>mmol/L</td></tr><tr><td>Chloride [Moles/volume] in Blood</td><td><strong>109.3 H</strong></td><td>98 - 107</td><td>mmol/L</td></tr><tr><td>Carbon dioxide, total [Moles/volume] in Blood</td><td>24.3</td><td>22 - 32</td><td>mmol/L</td></tr><tr><td>Cholesterol [Mass/volume] in Serum or Plasma</td><td>130.5</td><td>125 - 200</td><td>mg/dL</td></tr><tr><td>Triglyceride [Mass/volume] in Serum or Plasma</td><td>110.9</td><td>35 - 150</td><td>mg/dL</td></tr><tr><td>Cholesterol in LDL [Mass/volume] in Serum or Plasma by Direct assay</td><td>50.4</td><td>0 - 130</td><td>mg/dL</td></tr><tr><td>Cholesterol in HDL [Mass/volume] in Serum or Plasma</td><td>57.9</td><td>50 - 100</td><td>mg/dL</td></tr></tbody></table></div>"
                },
                "title": "Chemistry"
              }
            ],
            "title": "Laboratory Report"
          },
          {
            "text": {
              "status": "generated",
              "div": "<div xmlns=\"http://www.w3.org/1999/xhtml\"><h3>Annotation</h3><table class=\"hl7__eu__lab__report\"><tr><th>Conclusion and Recommendations based on this report and previous findings known to us</th></tr><tr><td>All measured parameters are within or close to normal limits, except for mildly elevated potassium and chloride. Renal function, glucose metabolism, and lipid profile are unremarkable. The slight hyperkalemia and hyperchloremia may warrant repeat testing and clinical correlation, but no acute laboratory abnormalities are evident. Overall, results are stable and reassuring.</td></tr></table></div>"
            },
            "code": {
              "coding": [
                {
                  "system": "http://loinc.org",
                  "code": "48767-8",
                  "display": "Annotation comment"
                }
              ]
            },
            "title": "Annotation comment"
          }
        ],
        "status": "final",
        "subject": {
          "reference": "urn:uuid:f36ef7eb-4483-4588-ad58-56c3a80f58f6",
          "display": "Louise Köster"
        },
        "date": "2022-11-29T05:02:53Z",
        "title": "Laboratory Report",
        "confidentiality": "N"
      }
    },
    {
      "fullUrl": "urn:uuid:52da8d1b-bc75-4032-b089-dc37dc108546",
      "resource": {
        "resourceType": "DiagnosticReport",
        "id": "52da8d1b-bc75-4032-b089-dc37dc108546",
        "meta": {
          "profile": [
            "http://hl7.eu/fhir/laboratory/StructureDefinition/DiagnosticReport-eu-lab"
          ]
        },
        "identifier": [
          {
            "assigner": {
              "display": "HL7 Europe"
            },
            "system": "urn:oid:2.16.840.1.113883.2.51.999",
            "value": "4d84f280-0dfa-497c-8d6e-6657144e9e12"
          }
        ],
        "extension": [
          {
            "url": "http://hl7.org/fhir/5.0/StructureDefinition/extension-DiagnosticReport.composition",
            "valueReference": {
              "reference": "urn:uuid:f33f07c1-7c8b-4f98-9a99-cac85dfe5532"
            }
          }
        ],
        "category": [
          {
            "coding": [
              {
                "code": "26436-6",
                "system": "http://loinc.org",
                "display": "Laboratory studies (set)"
              }
            ]
          }
        ],
        "specimen": [
          {
            "reference": "urn:uuid:60167e9a-f9e1-48aa-8c99-6895e0b43520"
          },
          {
            "reference": "urn:uuid:3ba62a30-a81e-45cb-8f86-c3ae35ebb12d"
          }
        ],
        "result": [
          {
            "reference": "urn:uuid:baae4837-5a15-4721-81a7-20f07d9758b9"
          },
          {
            "reference": "urn:uuid:03536b2f-bc90-4b32-97ea-881e704e31e2"
          },
          {
            "reference": "urn:uuid:7fa5ab9f-91b2-41d8-a070-775cb2283d73"
          },
          {
            "reference": "urn:uuid:63dd1a1e-0a10-41ba-bb66-c5aab80038d3"
          },
          {
            "reference": "urn:uuid:eeed25f2-2a12-4486-8454-abc741717d95"
          },
          {
            "reference": "urn:uuid:b67faa68-439d-4f4a-95a3-eebdb78758f2"
          },
          {
            "reference": "urn:uuid:fc6545c5-2db7-4a5b-b8e7-10c237df7d19"
          },
          {
            "reference": "urn:uuid:081ef503-5099-491f-b67c-3f3fe50889ea"
          },
          {
            "reference": "urn:uuid:90ab4079-c989-46fe-91b1-8c3a3915ebc0"
          },
          {
            "reference": "urn:uuid:96c9ed33-7c9f-4cbb-bc65-177329eb8943"
          },
          {
            "reference": "urn:uuid:1b60810a-814d-4fda-ab53-7de6533e7d86"
          },
          {
            "reference": "urn:uuid:e83169c7-c270-4529-8ed4-f70efc1d9855"
          },
          {
            "reference": "urn:uuid:87e75e22-8156-4e68-a6db-2aab2d59be00"
          }
        ],
        "status": "registered",
        "code": {
          "coding": [
            {
              "code": "11502-2",
              "system": "http://loinc.org",
              "display": "Laboratory report"
            }
          ]
        },
        "subject": {
          "reference": "urn:uuid:f36ef7eb-4483-4588-ad58-56c3a80f58f6",
          "display": "Louise Köster"
        }
      }
    },
    {
      "fullUrl": "urn:uuid:f36ef7eb-4483-4588-ad58-56c3a80f58f6",
      "resource": {
        "resourceType": "Patient",
        "id": "f36ef7eb-4483-4588-ad58-56c3a80f58f6",
        "meta": {
          "security": [
            {
              "system": "http://terminology.hl7.org/CodeSystem/v3-ActReason",
              "code": "HTEST"
            },
            {
              "system": "http://terminology.hl7.org/CodeSystem/v3-ActReason",
              "code": "TRAIN"
            }
          ],
          "tag": [
            {
              "system": "https://synderai.net/fhir/CodeSystem/tags",
              "code": "synthetic",
              "display": "SYNDERAI Synthetic data"
            }
          ],
          "profile": [
            "http://hl7.eu/fhir/base/StructureDefinition/patient-eu-core"
          ]
        },
        "identifier": [
          {
            "type": {
              "coding": [
                {
                  "code": "PT",
                  "system": "http://terminology.hl7.org/CodeSystem/v2-0203"
                }
              ]
            },
            "system": "http://ec.europa.eu/identifier/eci",
            "value": "1053-167357-1"
          },
          {
            "type": {
              "coding": [
                {
                  "code": "MR",
                  "system": "http://terminology.hl7.org/CodeSystem/v2-0203"
                }
              ]
            },
            "system": "http://local.setting.eu/identifier",
            "value": "706b1a23-528f-0ed7-639f-1dc54e8ecc5d"
          }
        ],
        "name": [
          {
            "family": "Köster"
          },
          {
            "given": [
              "Louise"
            ]
          },
          {
            "text": "Louise Köster"
          }
        ],
        "address": [
          {
            "line": [
              "Regina-Butte-Ring 737"
            ],
            "use": "home",
            "type": "physical",
            "postalCode": "88348",
            "city": "Saulgau",
            "country": "Germany"
          }
        ],
        "telecom": [
          {
            "system": "phone",
            "value": "+49(0)2075293938"
          }
        ],
        "extension": [
          {
            "url": "http://hl7.org/fhir/StructureDefinition/patient-nationality",
            "valueCodeableConcept": {
              "coding": [
                {
                  "code": "DE",
                  "system": "http://hl7.org/fhir/ValueSet/country"
                }
              ]
            }
          }
        ],
        "text": {
          "status": "generated",
          "div": "<div xmlns=\"http://www.w3.org/1999/xhtml\"><table class=\"hl7__ips\"><tr><td>Louise Köster</td><td>female</td><td>01-Jul-1957</td></tr></table></div>"
        },
        "gender": "female",
        "birthDate": "1957-07-01"
      }
    },
    {
      "fullUrl": "urn:uuid:b9a9055e-2f91-4bd6-950f-7d3da53c2e35",
      "resource": {
        "resourceType": "ServiceRequest",
        "id": "b9a9055e-2f91-4bd6-950f-7d3da53c2e35",
        "meta": {
          "profile": [
            "http://hl7.eu/fhir/laboratory/StructureDefinition/ServiceRequest-eu-lab"
          ]
        },
        "identifier": [
          {
            "system": "http://example.org",
            "value": "63fe970a-d282-450b-a543-3423b89e10d9"
          }
        ],
        "specimen": [
          {
            "reference": "urn:uuid:60167e9a-f9e1-48aa-8c99-6895e0b43520"
          },
          {
            "reference": "urn:uuid:3ba62a30-a81e-45cb-8f86-c3ae35ebb12d"
          }
        ],
        "reasonCode": [
          {
            "coding": [
              {
                "code": "15777000",
                "system": "http://snomed.info/sct",
                "display": "Prediabetes"
              }
            ]
          },
          {
            "coding": [
              {
                "code": "237602007",
                "system": "http://snomed.info/sct",
                "display": "Metabolic syndrome X"
              }
            ]
          },
          {
            "coding": [
              {
                "code": "414545008",
                "system": "http://snomed.info/sct",
                "display": "Ischemic heart disease"
              }
            ]
          },
          {
            "coding": [
              {
                "code": "59621000",
                "system": "http://snomed.info/sct",
                "display": "Essential hypertension"
              }
            ]
          }
        ],
        "status": "active",
        "intent": "order",
        "code": {
          "coding": [
            {
              "code": "108252007",
              "system": "http://snomed.info/sct",
              "display": "Laboratory procedure"
            }
          ]
        },
        "subject": {
          "reference": "urn:uuid:f36ef7eb-4483-4588-ad58-56c3a80f58f6",
          "display": "Louise Köster"
        },
        "requester": {
          "reference": "urn:uuid:076f84e6-de64-4e39-8106-37ffb920fbfe"
        }
      }
    },
    {
      "fullUrl": "urn:uuid:076f84e6-de64-4e39-8106-37ffb920fbfe",
      "resource": {
        "resourceType": "PractitionerRole",
        "id": "076f84e6-de64-4e39-8106-37ffb920fbfe",
        "meta": {
          "profile": [
            "http://hl7.eu/fhir/base/StructureDefinition/practitionerRole-eu"
          ]
        },
        "text": {
          "status": "generated",
          "div": "<div xmlns=\"http://www.w3.org/1999/xhtml\">Provider Role Id: 076f84e6-de64-4e39-8106-37ffb920fbfe</div>"
        },
        "organization": {
          "reference": "urn:uuid:e90f016d-2662-41a4-9a73-253c804fa775"
        }
      }
    },
    {
      "fullUrl": "urn:uuid:e90f016d-2662-41a4-9a73-253c804fa775",
      "resource": {
        "resourceType": "Organization",
        "id": "e90f016d-2662-41a4-9a73-253c804fa775",
        "meta": {
          "profile": [
            "http://hl7.eu/fhir/base/StructureDefinition/organization-eu"
          ]
        },
        "identifier": [
          {
            "assigner": {
              "display": "HL7 Europe"
            },
            "system": "urn:oid:2.16.840.1.113883.2.51.999",
            "value": "34fd643a-c164-43ae-b9c2-a43b3db77f1a"
          }
        ],
        "address": [
          {
            "line": [
              "Am Schönen Moos 7"
            ],
            "city": "Bad Saulgau",
            "postalCode": "88348",
            "country": "Germany"
          }
        ],
        "text": {
          "status": "generated",
          "div": "<div xmlns=\"http://www.w3.org/1999/xhtml\">Provider Organization: Klinik am schönen Moos</div>"
        },
        "name": "Klinik am schönen Moos"
      }
    },
    {
      "fullUrl": "urn:uuid:60167e9a-f9e1-48aa-8c99-6895e0b43520",
      "resource": {
        "resourceType": "Specimen",
        "id": "60167e9a-f9e1-48aa-8c99-6895e0b43520",
        "meta": {
          "profile": [
            "http://hl7.eu/fhir/laboratory/StructureDefinition/Specimen-eu-lab"
          ]
        },
        "collection": {
          "collectedDateTime": "2022-11-29"
        },
        "text": {
          "status": "generated",
          "div": "<div xmlns=\"http://www.w3.org/1999/xhtml\"><table class=\"hl7__eu__lab__report\"><tr><th>Specimen</th><th>Collection Date</th></tr><tr><td>Whole blood specimen (specimen)</td><td><span class=\"nb\">29-Nov-2022</span></td></tr></table></div>"
        },
        "type": {
          "coding": [
            {
              "code": "258580003",
              "system": "http://snomed.info/sct",
              "display": "Whole blood specimen (specimen)"
            }
          ]
        }
      }
    },
    {
      "fullUrl": "urn:uuid:3ba62a30-a81e-45cb-8f86-c3ae35ebb12d",
      "resource": {
        "resourceType": "Specimen",
        "id": "3ba62a30-a81e-45cb-8f86-c3ae35ebb12d",
        "meta": {
          "profile": [
            "http://hl7.eu/fhir/laboratory/StructureDefinition/Specimen-eu-lab"
          ]
        },
        "collection": {
          "collectedDateTime": "2022-11-29"
        },
        "text": {
          "status": "generated",
          "div": "<div xmlns=\"http://www.w3.org/1999/xhtml\"><table class=\"hl7__eu__lab__report\"><tr><th>Specimen</th><th>Collection Date</th></tr><tr><td>Acellular blood (serum or plasma) specimen</td><td><span class=\"nb\">29-Nov-2022</span></td></tr></table></div>"
        },
        "type": {
          "coding": [
            {
              "code": "122592007",
              "system": "http://snomed.info/sct",
              "display": "Acellular blood (serum or plasma) specimen"
            }
          ]
        }
      }
    },
    {
      "fullUrl": "urn:uuid:baae4837-5a15-4721-81a7-20f07d9758b9",
      "resource": {
        "resourceType": "Observation",
        "id": "baae4837-5a15-4721-81a7-20f07d9758b9",
        "meta": {
          "profile": [
            "http://hl7.eu/fhir/laboratory/StructureDefinition/Observation-resultslab-eu-lab"
          ]
        },
        "performer": [
          {
            "display": "The Central European Lab"
          }
        ],
        "category": [
          {
            "coding": [
              {
                "system": "http://terminology.hl7.org/CodeSystem/observation-category",
                "code": "laboratory"
              }
            ]
          }
        ],
        "code": {
          "coding": [
            {
              "code": "4548-4",
              "system": "http://loinc.org",
              "display": "Hemoglobin A1c/Hemoglobin.total in Blood"
            }
          ],
          "text": "Hemoglobin A1c/Hemoglobin.total in Blood"
        },
        "valueQuantity": {
          "system": "http://unitsofmeasure.org",
          "value": 6,
          "unit": "%",
          "code": "%"
        },
        "referenceRange": [
          {
            "low": {
              "value": 4.5,
              "code": "%",
              "system": "http://unitsofmeasure.org"
            }
          },
          {
            "high": {
              "value": 6.4,
              "code": "%",
              "system": "http://unitsofmeasure.org"
            }
          }
        ],
        "text": {
          "status": "generated",
          "div": "<div xmlns=\"http://www.w3.org/1999/xhtml\"><table class=\"hl7__eu__lab__report\"><tr><th>Test</th><th>29-Nov-2022</th><th>Reference&#xA0;Range</th><th>Unit</th></tr><tr><td>Hemoglobin A1c/Hemoglobin.total in Blood</td><td>6.0</td><td>4.5 - 6.4</td><td></td><td>%</td></tr></table></div>"
        },
        "status": "final",
        "subject": {
          "reference": "urn:uuid:f36ef7eb-4483-4588-ad58-56c3a80f58f6",
          "display": "Louise Köster"
        },
        "effectiveDateTime": "2022-11-29T04:02:53Z",
        "specimen": {
          "reference": "urn:uuid:60167e9a-f9e1-48aa-8c99-6895e0b43520"
        }
      }
    },
    {
      "fullUrl": "urn:uuid:03536b2f-bc90-4b32-97ea-881e704e31e2",
      "resource": {
        "resourceType": "Observation",
        "id": "03536b2f-bc90-4b32-97ea-881e704e31e2",
        "meta": {
          "profile": [
            "http://hl7.eu/fhir/laboratory/StructureDefinition/Observation-resultslab-eu-lab"
          ]
        },
        "performer": [
          {
            "display": "The Central European Lab"
          }
        ],
        "category": [
          {
            "coding": [
              {
                "system": "http://terminology.hl7.org/CodeSystem/observation-category",
                "code": "laboratory"
              }
            ]
          }
        ],
        "code": {
          "coding": [
            {
              "code": "2339-0",
              "system": "http://loinc.org",
              "display": "Glucose [Mass/volume] in Blood"
            }
          ],
          "text": "Glucose [Mass/volume] in Blood"
        },
        "valueQuantity": {
          "system": "http://unitsofmeasure.org",
          "value": 86.1,
          "unit": "mg/dL",
          "code": "mg/dL"
        },
        "referenceRange": [
          {
            "low": {
              "value": 70,
              "code": "mg/dL",
              "system": "http://unitsofmeasure.org"
            }
          },
          {
            "high": {
              "value": 140,
              "code": "mg/dL",
              "system": "http://unitsofmeasure.org"
            }
          }
        ],
        "text": {
          "status": "generated",
          "div": "<div xmlns=\"http://www.w3.org/1999/xhtml\"><table class=\"hl7__eu__lab__report\"><tr><th>Test</th><th>29-Nov-2022</th><th>Reference&#xA0;Range</th><th>Unit</th></tr><tr><td>Glucose [Mass/volume] in Blood</td><td>86.1</td><td>70 - 140</td><td></td><td>mg/dL</td></tr></table></div>"
        },
        "status": "final",
        "subject": {
          "reference": "urn:uuid:f36ef7eb-4483-4588-ad58-56c3a80f58f6",
          "display": "Louise Köster"
        },
        "effectiveDateTime": "2022-11-29T04:02:53Z",
        "specimen": {
          "reference": "urn:uuid:60167e9a-f9e1-48aa-8c99-6895e0b43520"
        }
      }
    },
    {
      "fullUrl": "urn:uuid:7fa5ab9f-91b2-41d8-a070-775cb2283d73",
      "resource": {
        "resourceType": "Observation",
        "id": "7fa5ab9f-91b2-41d8-a070-775cb2283d73",
        "meta": {
          "profile": [
            "http://hl7.eu/fhir/laboratory/StructureDefinition/Observation-resultslab-eu-lab"
          ]
        },
        "performer": [
          {
            "display": "The Central European Lab"
          }
        ],
        "category": [
          {
            "coding": [
              {
                "system": "http://terminology.hl7.org/CodeSystem/observation-category",
                "code": "laboratory"
              }
            ]
          }
        ],
        "code": {
          "coding": [
            {
              "code": "6299-2",
              "system": "http://loinc.org",
              "display": "Urea nitrogen [Mass/volume] in Blood"
            }
          ],
          "text": "Urea nitrogen [Mass/volume] in Blood"
        },
        "valueQuantity": {
          "system": "http://unitsofmeasure.org",
          "value": 18.9,
          "unit": "mg/dL",
          "code": "mg/dL"
        },
        "referenceRange": [
          {
            "low": {
              "value": 7,
              "code": "mg/dL",
              "system": "http://unitsofmeasure.org"
            }
          },
          {
            "high": {
              "value": 43,
              "code": "mg/dL",
              "system": "http://unitsofmeasure.org"
            }
          }
        ],
        "text": {
          "status": "generated",
          "div": "<div xmlns=\"http://www.w3.org/1999/xhtml\"><table class=\"hl7__eu__lab__report\"><tr><th>Test</th><th>29-Nov-2022</th><th>Reference&#xA0;Range</th><th>Unit</th></tr><tr><td>Urea nitrogen [Mass/volume] in Blood</td><td>18.9</td><td>7 - 43</td><td></td><td>mg/dL</td></tr></table></div>"
        },
        "status": "final",
        "subject": {
          "reference": "urn:uuid:f36ef7eb-4483-4588-ad58-56c3a80f58f6",
          "display": "Louise Köster"
        },
        "effectiveDateTime": "2022-11-29T04:02:53Z",
        "specimen": {
          "reference": "urn:uuid:60167e9a-f9e1-48aa-8c99-6895e0b43520"
        }
      }
    },
    {
      "fullUrl": "urn:uuid:63dd1a1e-0a10-41ba-bb66-c5aab80038d3",
      "resource": {
        "resourceType": "Observation",
        "id": "63dd1a1e-0a10-41ba-bb66-c5aab80038d3",
        "meta": {
          "profile": [
            "http://hl7.eu/fhir/laboratory/StructureDefinition/Observation-resultslab-eu-lab"
          ]
        },
        "performer": [
          {
            "display": "The Central European Lab"
          }
        ],
        "category": [
          {
            "coding": [
              {
                "system": "http://terminology.hl7.org/CodeSystem/observation-category",
                "code": "laboratory"
              }
            ]
          }
        ],
        "code": {
          "coding": [
            {
              "code": "38483-4",
              "system": "http://loinc.org",
              "display": "Creatinine [Mass/volume] in Blood"
            }
          ],
          "text": "Creatinine [Mass/volume] in Blood"
        },
        "valueQuantity": {
          "system": "http://unitsofmeasure.org",
          "value": 0.7,
          "unit": "mg/dL",
          "code": "mg/dL"
        },
        "referenceRange": [
          {
            "low": {
              "value": 0.7,
              "code": "mg/dL",
              "system": "http://unitsofmeasure.org"
            }
          },
          {
            "high": {
              "value": 1.1,
              "code": "mg/dL",
              "system": "http://unitsofmeasure.org"
            }
          }
        ],
        "text": {
          "status": "generated",
          "div": "<div xmlns=\"http://www.w3.org/1999/xhtml\"><table class=\"hl7__eu__lab__report\"><tr><th>Test</th><th>29-Nov-2022</th><th>Reference&#xA0;Range</th><th>Unit</th></tr><tr><td>Creatinine [Mass/volume] in Blood</td><td>0.7</td><td>0.7 - 1.1</td><td></td><td>mg/dL</td></tr></table></div>"
        },
        "status": "final",
        "subject": {
          "reference": "urn:uuid:f36ef7eb-4483-4588-ad58-56c3a80f58f6",
          "display": "Louise Köster"
        },
        "effectiveDateTime": "2022-11-29T04:02:53Z",
        "specimen": {
          "reference": "urn:uuid:60167e9a-f9e1-48aa-8c99-6895e0b43520"
        }
      }
    },
    {
      "fullUrl": "urn:uuid:eeed25f2-2a12-4486-8454-abc741717d95",
      "resource": {
        "resourceType": "Observation",
        "id": "eeed25f2-2a12-4486-8454-abc741717d95",
        "meta": {
          "profile": [
            "http://hl7.eu/fhir/laboratory/StructureDefinition/Observation-resultslab-eu-lab"
          ]
        },
        "performer": [
          {
            "display": "The Central European Lab"
          }
        ],
        "category": [
          {
            "coding": [
              {
                "system": "http://terminology.hl7.org/CodeSystem/observation-category",
                "code": "laboratory"
              }
            ]
          }
        ],
        "code": {
          "coding": [
            {
              "code": "49765-1",
              "system": "http://loinc.org",
              "display": "Calcium [Mass/volume] in Blood"
            }
          ],
          "text": "Calcium [Mass/volume] in Blood"
        },
        "valueQuantity": {
          "system": "http://unitsofmeasure.org",
          "value": 8.8,
          "unit": "mg/dL",
          "code": "mg/dL"
        },
        "referenceRange": [
          {
            "low": {
              "value": 8.5,
              "code": "mg/dL",
              "system": "http://unitsofmeasure.org"
            }
          },
          {
            "high": {
              "value": 10.4,
              "code": "mg/dL",
              "system": "http://unitsofmeasure.org"
            }
          }
        ],
        "text": {
          "status": "generated",
          "div": "<div xmlns=\"http://www.w3.org/1999/xhtml\"><table class=\"hl7__eu__lab__report\"><tr><th>Test</th><th>29-Nov-2022</th><th>Reference&#xA0;Range</th><th>Unit</th></tr><tr><td>Calcium [Mass/volume] in Blood</td><td>8.8</td><td>8.5 - 10.4</td><td></td><td>mg/dL</td></tr></table></div>"
        },
        "status": "final",
        "subject": {
          "reference": "urn:uuid:f36ef7eb-4483-4588-ad58-56c3a80f58f6",
          "display": "Louise Köster"
        },
        "effectiveDateTime": "2022-11-29T04:02:53Z",
        "specimen": {
          "reference": "urn:uuid:60167e9a-f9e1-48aa-8c99-6895e0b43520"
        }
      }
    },
    {
      "fullUrl": "urn:uuid:b67faa68-439d-4f4a-95a3-eebdb78758f2",
      "resource": {
        "resourceType": "Observation",
        "id": "b67faa68-439d-4f4a-95a3-eebdb78758f2",
        "meta": {
          "profile": [
            "http://hl7.eu/fhir/laboratory/StructureDefinition/Observation-resultslab-eu-lab"
          ]
        },
        "performer": [
          {
            "display": "The Central European Lab"
          }
        ],
        "category": [
          {
            "coding": [
              {
                "system": "http://terminology.hl7.org/CodeSystem/observation-category",
                "code": "laboratory"
              }
            ]
          }
        ],
        "code": {
          "coding": [
            {
              "code": "2947-0",
              "system": "http://loinc.org",
              "display": "Sodium [Moles/volume] in Blood"
            }
          ],
          "text": "Sodium [Moles/volume] in Blood"
        },
        "valueQuantity": {
          "system": "http://unitsofmeasure.org",
          "value": 139.4,
          "unit": "mmol/L",
          "code": "mmol/L"
        },
        "referenceRange": [
          {
            "low": {
              "value": 135,
              "code": "mmol/L",
              "system": "http://unitsofmeasure.org"
            }
          },
          {
            "high": {
              "value": 145,
              "code": "mmol/L",
              "system": "http://unitsofmeasure.org"
            }
          }
        ],
        "text": {
          "status": "generated",
          "div": "<div xmlns=\"http://www.w3.org/1999/xhtml\"><table class=\"hl7__eu__lab__report\"><tr><th>Test</th><th>29-Nov-2022</th><th>Reference&#xA0;Range</th><th>Unit</th></tr><tr><td>Sodium [Moles/volume] in Blood</td><td>139.4</td><td>135 - 145</td><td></td><td>mmol/L</td></tr></table></div>"
        },
        "status": "final",
        "subject": {
          "reference": "urn:uuid:f36ef7eb-4483-4588-ad58-56c3a80f58f6",
          "display": "Louise Köster"
        },
        "effectiveDateTime": "2022-11-29T04:02:53Z",
        "specimen": {
          "reference": "urn:uuid:60167e9a-f9e1-48aa-8c99-6895e0b43520"
        }
      }
    },
    {
      "fullUrl": "urn:uuid:fc6545c5-2db7-4a5b-b8e7-10c237df7d19",
      "resource": {
        "resourceType": "Observation",
        "id": "fc6545c5-2db7-4a5b-b8e7-10c237df7d19",
        "meta": {
          "profile": [
            "http://hl7.eu/fhir/laboratory/StructureDefinition/Observation-resultslab-eu-lab"
          ]
        },
        "performer": [
          {
            "display": "The Central European Lab"
          }
        ],
        "category": [
          {
            "coding": [
              {
                "system": "http://terminology.hl7.org/CodeSystem/observation-category",
                "code": "laboratory"
              }
            ]
          }
        ],
        "code": {
          "coding": [
            {
              "code": "6298-4",
              "system": "http://loinc.org",
              "display": "Potassium [Moles/volume] in Blood"
            }
          ],
          "text": "Potassium [Moles/volume] in Blood"
        },
        "valueQuantity": {
          "system": "http://unitsofmeasure.org",
          "value": 5.2,
          "unit": "mmol/L",
          "code": "mmol/L"
        },
        "referenceRange": [
          {
            "low": {
              "value": 3.5,
              "code": "mmol/L",
              "system": "http://unitsofmeasure.org"
            }
          },
          {
            "high": {
              "value": 5.1,
              "code": "mmol/L",
              "system": "http://unitsofmeasure.org"
            }
          }
        ],
        "interpretation": [
          {
            "coding": [
              {
                "code": "H",
                "system": "http://terminology.hl7.org/CodeSystem/v3-ObservationInterpretation",
                "display": "High"
              }
            ]
          }
        ],
        "text": {
          "status": "generated",
          "div": "<div xmlns=\"http://www.w3.org/1999/xhtml\"><table class=\"hl7__eu__lab__report\"><tr><th>Test</th><th>29-Nov-2022</th><th>Reference&#xA0;Range</th><th>Unit</th></tr><tr><td>Potassium [Moles/volume] in Blood</td><td>5.2</td><td>3.5 - 5.1</td><td>H</td><td>mmol/L</td></tr></table></div>"
        },
        "status": "final",
        "subject": {
          "reference": "urn:uuid:f36ef7eb-4483-4588-ad58-56c3a80f58f6",
          "display": "Louise Köster"
        },
        "effectiveDateTime": "2022-11-29T04:02:53Z",
        "specimen": {
          "reference": "urn:uuid:60167e9a-f9e1-48aa-8c99-6895e0b43520"
        }
      }
    },
    {
      "fullUrl": "urn:uuid:081ef503-5099-491f-b67c-3f3fe50889ea",
      "resource": {
        "resourceType": "Observation",
        "id": "081ef503-5099-491f-b67c-3f3fe50889ea",
        "meta": {
          "profile": [
            "http://hl7.eu/fhir/laboratory/StructureDefinition/Observation-resultslab-eu-lab"
          ]
        },
        "performer": [
          {
            "display": "The Central European Lab"
          }
        ],
        "category": [
          {
            "coding": [
              {
                "system": "http://terminology.hl7.org/CodeSystem/observation-category",
                "code": "laboratory"
              }
            ]
          }
        ],
        "code": {
          "coding": [
            {
              "code": "2069-3",
              "system": "http://loinc.org",
              "display": "Chloride [Moles/volume] in Blood"
            }
          ],
          "text": "Chloride [Moles/volume] in Blood"
        },
        "valueQuantity": {
          "system": "http://unitsofmeasure.org",
          "value": 109.3,
          "unit": "mmol/L",
          "code": "mmol/L"
        },
        "referenceRange": [
          {
            "low": {
              "value": 98,
              "code": "mmol/L",
              "system": "http://unitsofmeasure.org"
            }
          },
          {
            "high": {
              "value": 107,
              "code": "mmol/L",
              "system": "http://unitsofmeasure.org"
            }
          }
        ],
        "interpretation": [
          {
            "coding": [
              {
                "code": "H",
                "system": "http://terminology.hl7.org/CodeSystem/v3-ObservationInterpretation",
                "display": "High"
              }
            ]
          }
        ],
        "text": {
          "status": "generated",
          "div": "<div xmlns=\"http://www.w3.org/1999/xhtml\"><table class=\"hl7__eu__lab__report\"><tr><th>Test</th><th>29-Nov-2022</th><th>Reference&#xA0;Range</th><th>Unit</th></tr><tr><td>Chloride [Moles/volume] in Blood</td><td>109.3</td><td>98 - 107</td><td>H</td><td>mmol/L</td></tr></table></div>"
        },
        "status": "final",
        "subject": {
          "reference": "urn:uuid:f36ef7eb-4483-4588-ad58-56c3a80f58f6",
          "display": "Louise Köster"
        },
        "effectiveDateTime": "2022-11-29T04:02:53Z",
        "specimen": {
          "reference": "urn:uuid:60167e9a-f9e1-48aa-8c99-6895e0b43520"
        }
      }
    },
    {
      "fullUrl": "urn:uuid:90ab4079-c989-46fe-91b1-8c3a3915ebc0",
      "resource": {
        "resourceType": "Observation",
        "id": "90ab4079-c989-46fe-91b1-8c3a3915ebc0",
        "meta": {
          "profile": [
            "http://hl7.eu/fhir/laboratory/StructureDefinition/Observation-resultslab-eu-lab"
          ]
        },
        "performer": [
          {
            "display": "The Central European Lab"
          }
        ],
        "category": [
          {
            "coding": [
              {
                "system": "http://terminology.hl7.org/CodeSystem/observation-category",
                "code": "laboratory"
              }
            ]
          }
        ],
        "code": {
          "coding": [
            {
              "code": "20565-8",
              "system": "http://loinc.org",
              "display": "Carbon dioxide, total [Moles/volume] in Blood"
            }
          ],
          "text": "Carbon dioxide, total [Moles/volume] in Blood"
        },
        "valueQuantity": {
          "system": "http://unitsofmeasure.org",
          "value": 24.3,
          "unit": "mmol/L",
          "code": "mmol/L"
        },
        "referenceRange": [
          {
            "low": {
              "value": 22,
              "code": "mmol/L",
              "system": "http://unitsofmeasure.org"
            }
          },
          {
            "high": {
              "value": 32,
              "code": "mmol/L",
              "system": "http://unitsofmeasure.org"
            }
          }
        ],
        "text": {
          "status": "generated",
          "div": "<div xmlns=\"http://www.w3.org/1999/xhtml\"><table class=\"hl7__eu__lab__report\"><tr><th>Test</th><th>29-Nov-2022</th><th>Reference&#xA0;Range</th><th>Unit</th></tr><tr><td>Carbon dioxide, total [Moles/volume] in Blood</td><td>24.3</td><td>22 - 32</td><td></td><td>mmol/L</td></tr></table></div>"
        },
        "status": "final",
        "subject": {
          "reference": "urn:uuid:f36ef7eb-4483-4588-ad58-56c3a80f58f6",
          "display": "Louise Köster"
        },
        "effectiveDateTime": "2022-11-29T04:02:53Z",
        "specimen": {
          "reference": "urn:uuid:60167e9a-f9e1-48aa-8c99-6895e0b43520"
        }
      }
    },
    {
      "fullUrl": "urn:uuid:96c9ed33-7c9f-4cbb-bc65-177329eb8943",
      "resource": {
        "resourceType": "Observation",
        "id": "96c9ed33-7c9f-4cbb-bc65-177329eb8943",
        "meta": {
          "profile": [
            "http://hl7.eu/fhir/laboratory/StructureDefinition/Observation-resultslab-eu-lab"
          ]
        },
        "performer": [
          {
            "display": "The Central European Lab"
          }
        ],
        "category": [
          {
            "coding": [
              {
                "system": "http://terminology.hl7.org/CodeSystem/observation-category",
                "code": "laboratory"
              }
            ]
          }
        ],
        "code": {
          "coding": [
            {
              "code": "2093-3",
              "system": "http://loinc.org",
              "display": "Cholesterol [Mass/volume] in Serum or Plasma"
            }
          ],
          "text": "Cholesterol [Mass/volume] in Serum or Plasma"
        },
        "valueQuantity": {
          "system": "http://unitsofmeasure.org",
          "value": 130.5,
          "unit": "mg/dL",
          "code": "mg/dL"
        },
        "referenceRange": [
          {
            "low": {
              "value": 125,
              "code": "mg/dL",
              "system": "http://unitsofmeasure.org"
            }
          },
          {
            "high": {
              "value": 200,
              "code": "mg/dL",
              "system": "http://unitsofmeasure.org"
            }
          }
        ],
        "text": {
          "status": "generated",
          "div": "<div xmlns=\"http://www.w3.org/1999/xhtml\"><table class=\"hl7__eu__lab__report\"><tr><th>Test</th><th>29-Nov-2022</th><th>Reference&#xA0;Range</th><th>Unit</th></tr><tr><td>Cholesterol [Mass/volume] in Serum or Plasma</td><td>130.5</td><td>125 - 200</td><td></td><td>mg/dL</td></tr></table></div>"
        },
        "status": "final",
        "subject": {
          "reference": "urn:uuid:f36ef7eb-4483-4588-ad58-56c3a80f58f6",
          "display": "Louise Köster"
        },
        "effectiveDateTime": "2022-11-29T04:02:53Z",
        "specimen": {
          "reference": "urn:uuid:3ba62a30-a81e-45cb-8f86-c3ae35ebb12d"
        }
      }
    },
    {
      "fullUrl": "urn:uuid:1b60810a-814d-4fda-ab53-7de6533e7d86",
      "resource": {
        "resourceType": "Observation",
        "id": "1b60810a-814d-4fda-ab53-7de6533e7d86",
        "meta": {
          "profile": [
            "http://hl7.eu/fhir/laboratory/StructureDefinition/Observation-resultslab-eu-lab"
          ]
        },
        "performer": [
          {
            "display": "The Central European Lab"
          }
        ],
        "category": [
          {
            "coding": [
              {
                "system": "http://terminology.hl7.org/CodeSystem/observation-category",
                "code": "laboratory"
              }
            ]
          }
        ],
        "code": {
          "coding": [
            {
              "code": "2571-8",
              "system": "http://loinc.org",
              "display": "Triglyceride [Mass/volume] in Serum or Plasma"
            }
          ],
          "text": "Triglyceride [Mass/volume] in Serum or Plasma"
        },
        "valueQuantity": {
          "system": "http://unitsofmeasure.org",
          "value": 110.9,
          "unit": "mg/dL",
          "code": "mg/dL"
        },
        "referenceRange": [
          {
            "low": {
              "value": 35,
              "code": "mg/dL",
              "system": "http://unitsofmeasure.org"
            }
          },
          {
            "high": {
              "value": 150,
              "code": "mg/dL",
              "system": "http://unitsofmeasure.org"
            }
          }
        ],
        "text": {
          "status": "generated",
          "div": "<div xmlns=\"http://www.w3.org/1999/xhtml\"><table class=\"hl7__eu__lab__report\"><tr><th>Test</th><th>29-Nov-2022</th><th>Reference&#xA0;Range</th><th>Unit</th></tr><tr><td>Triglyceride [Mass/volume] in Serum or Plasma</td><td>110.9</td><td>35 - 150</td><td></td><td>mg/dL</td></tr></table></div>"
        },
        "status": "final",
        "subject": {
          "reference": "urn:uuid:f36ef7eb-4483-4588-ad58-56c3a80f58f6",
          "display": "Louise Köster"
        },
        "effectiveDateTime": "2022-11-29T04:02:53Z",
        "specimen": {
          "reference": "urn:uuid:3ba62a30-a81e-45cb-8f86-c3ae35ebb12d"
        }
      }
    },
    {
      "fullUrl": "urn:uuid:e83169c7-c270-4529-8ed4-f70efc1d9855",
      "resource": {
        "resourceType": "Observation",
        "id": "e83169c7-c270-4529-8ed4-f70efc1d9855",
        "meta": {
          "profile": [
            "http://hl7.eu/fhir/laboratory/StructureDefinition/Observation-resultslab-eu-lab"
          ]
        },
        "performer": [
          {
            "display": "The Central European Lab"
          }
        ],
        "category": [
          {
            "coding": [
              {
                "system": "http://terminology.hl7.org/CodeSystem/observation-category",
                "code": "laboratory"
              }
            ]
          }
        ],
        "code": {
          "coding": [
            {
              "code": "18262-6",
              "system": "http://loinc.org",
              "display": "Cholesterol in LDL [Mass/volume] in Serum or Plasma by Direct assay"
            }
          ],
          "text": "Cholesterol in LDL [Mass/volume] in Serum or Plasma by Direct assay"
        },
        "valueQuantity": {
          "system": "http://unitsofmeasure.org",
          "value": 50.4,
          "unit": "mg/dL",
          "code": "mg/dL"
        },
        "referenceRange": [
          {
            "low": {
              "value": 0,
              "code": "mg/dL",
              "system": "http://unitsofmeasure.org"
            }
          },
          {
            "high": {
              "value": 130,
              "code": "mg/dL",
              "system": "http://unitsofmeasure.org"
            }
          }
        ],
        "text": {
          "status": "generated",
          "div": "<div xmlns=\"http://www.w3.org/1999/xhtml\"><table class=\"hl7__eu__lab__report\"><tr><th>Test</th><th>29-Nov-2022</th><th>Reference&#xA0;Range</th><th>Unit</th></tr><tr><td>Cholesterol in LDL [Mass/volume] in Serum or Plasma by Direct assay</td><td>50.4</td><td>0 - 130</td><td></td><td>mg/dL</td></tr></table></div>"
        },
        "status": "final",
        "subject": {
          "reference": "urn:uuid:f36ef7eb-4483-4588-ad58-56c3a80f58f6",
          "display": "Louise Köster"
        },
        "effectiveDateTime": "2022-11-29T04:02:53Z",
        "specimen": {
          "reference": "urn:uuid:3ba62a30-a81e-45cb-8f86-c3ae35ebb12d"
        }
      }
    },
    {
      "fullUrl": "urn:uuid:87e75e22-8156-4e68-a6db-2aab2d59be00",
      "resource": {
        "resourceType": "Observation",
        "id": "87e75e22-8156-4e68-a6db-2aab2d59be00",
        "meta": {
          "profile": [
            "http://hl7.eu/fhir/laboratory/StructureDefinition/Observation-resultslab-eu-lab"
          ]
        },
        "performer": [
          {
            "display": "The Central European Lab"
          }
        ],
        "category": [
          {
            "coding": [
              {
                "system": "http://terminology.hl7.org/CodeSystem/observation-category",
                "code": "laboratory"
              }
            ]
          }
        ],
        "code": {
          "coding": [
            {
              "code": "2085-9",
              "system": "http://loinc.org",
              "display": "Cholesterol in HDL [Mass/volume] in Serum or Plasma"
            }
          ],
          "text": "Cholesterol in HDL [Mass/volume] in Serum or Plasma"
        },
        "valueQuantity": {
          "system": "http://unitsofmeasure.org",
          "value": 57.9,
          "unit": "mg/dL",
          "code": "mg/dL"
        },
        "referenceRange": [
          {
            "low": {
              "value": 50,
              "code": "mg/dL",
              "system": "http://unitsofmeasure.org"
            }
          },
          {
            "high": {
              "value": 100,
              "code": "mg/dL",
              "system": "http://unitsofmeasure.org"
            }
          }
        ],
        "text": {
          "status": "generated",
          "div": "<div xmlns=\"http://www.w3.org/1999/xhtml\"><table class=\"hl7__eu__lab__report\"><tr><th>Test</th><th>29-Nov-2022</th><th>Reference&#xA0;Range</th><th>Unit</th></tr><tr><td>Cholesterol in HDL [Mass/volume] in Serum or Plasma</td><td>57.9</td><td>50 - 100</td><td></td><td>mg/dL</td></tr></table></div>"
        },
        "status": "final",
        "subject": {
          "reference": "urn:uuid:f36ef7eb-4483-4588-ad58-56c3a80f58f6",
          "display": "Louise Köster"
        },
        "effectiveDateTime": "2022-11-29T04:02:53Z",
        "specimen": {
          "reference": "urn:uuid:3ba62a30-a81e-45cb-8f86-c3ae35ebb12d"
        }
      }
    },
    {
      "fullUrl": "urn:uuid:8cd602a4-369b-4606-8769-7c1daa24665c",
      "resource": {
        "resourceType": "Device",
        "id": "8cd602a4-369b-4606-8769-7c1daa24665c",
        "deviceName": [
          {
            "name": "SYNDERAI Synthetic Generator",
            "type": "manufacturer-name"
          }
        ],
        "version": [
          {
            "value": "5.0"
          }
        ],
        "text": {
          "status": "generated",
          "div": "<div xmlns=\"http://www.w3.org/1999/xhtml\">SYNDERAI Synthetic Generator v5.0</div>"
        },
        "status": "active\"",
        "distinctIdentifier": "synderai-generator-50",
        "manufacturer": "SYNDERAI Project"
      }
    },
    {
      "fullUrl": "urn:uuid:5acf4708-5c9a-419c-9cc3-c11ffb1b53a1",
      "resource": {
        "resourceType": "Provenance",
        "id": "5acf4708-5c9a-419c-9cc3-c11ffb1b53a1",
        "target": [
          {
            "reference": "Patient/f36ef7eb-4483-4588-ad58-56c3a80f58f6"
          },
          {
            "reference": "Bundle/98a76610-8409-4966-b0c4-517a303fff8d"
          },
          {
            "reference": "Composition/a9b296ef-c211-4f35-b338-b74089ca7200"
          },
          {
            "reference": "PractitionerRole/24589080-fb4a-46ef-9da4-6e4ced4475ca"
          },
          {
            "reference": "Practitioner/010d8b5f-768d-4cce-a0c6-289742195caa"
          },
          {
            "reference": "PractitionerRole/076f84e6-de64-4e39-8106-37ffb920fbfe"
          },
          {
            "reference": "Organization/e90f016d-2662-41a4-9a73-253c804fa775"
          }
        ],
        "activity": {
          "text": "Synthetic Example Data Generation"
        },
        "policy": [
          "https://synderai.net/synderai-synthetic-data-policy"
        ],
        "agent": [
          {
            "type": {
              "text": "author"
            },
            "who": {
              "reference": "Device/8cd602a4-369b-4606-8769-7c1daa24665c"
            }
          }
        ],
        "reason": [
          {
            "text": "Interoperability Testing and Training (non-clinical use)"
          }
        ],
        "text": {
          "status": "generated",
          "div": "<div xmlns=\"http://www.w3.org/1999/xhtml\">Provenance for SYNDERAI Synthetic Example Data Resource</div>"
        },
        "recorded": "2022-11-29T05:02:53Z"
      }
    },
    {
      "fullUrl": "urn:uuid:24589080-fb4a-46ef-9da4-6e4ced4475ca",
      "resource": {
        "resourceType": "PractitionerRole",
        "id": "24589080-fb4a-46ef-9da4-6e4ced4475ca",
        "meta": {
          "profile": [
            "http://hl7.eu/fhir/base/StructureDefinition/practitionerRole-eu"
          ]
        },
        "text": {
          "status": "generated",
          "div": "<div xmlns=\"http://www.w3.org/1999/xhtml\">Laboratory Role Id: 24589080-fb4a-46ef-9da4-6e4ced4475ca</div>"
        },
        "practitioner": {
          "reference": "urn:uuid:010d8b5f-768d-4cce-a0c6-289742195caa"
        }
      }
    },
    {
      "fullUrl": "urn:uuid:010d8b5f-768d-4cce-a0c6-289742195caa",
      "resource": {
        "resourceType": "Practitioner",
        "id": "010d8b5f-768d-4cce-a0c6-289742195caa",
        "meta": {
          "profile": [
            "http://hl7.eu/fhir/base/StructureDefinition/practitioner-eu"
          ]
        },
        "identifier": [
          {
            "assigner": {
              "display": "HL7 Europe"
            },
            "system": "urn:oid:2.16.840.1.113883.2.51.999",
            "value": "8fda77fa-7c9a-4ee7-bca4-1cb69827b4db"
          }
        ],
        "name": [
          {
            "prefix": [
              "dr"
            ],
            "given": [
              "Ex"
            ],
            "family": "Ample"
          }
        ],
        "address": [
          {
            "line": [
              "Laboratoire Central Européenne",
              "Boulevard du Jardin Botanique 32"
            ],
            "postalCode": "1000",
            "city": "Brussels",
            "country": "Belgium"
          }
        ],
        "text": {
          "status": "generated",
          "div": "<div xmlns=\"http://www.w3.org/1999/xhtml\">Laboratory: Laboratoire Central Européenne, 1000 Brussels, Belgium</div>"
        }
      }
    }
  ],
  "type": "document",
  "timestamp": "2022-11-29T05:02:53Z"
}
