{
  "resourceType": "Bundle",
  "id": "127a26d0-f2e2-4a48-a018-d0230cac8b8f",
  "meta": {
    "profile": [
      "http://hl7.eu/fhir/laboratory/StructureDefinition/Bundle-eu-lab"
    ]
  },
  "identifier": {
    "assigner": {
      "display": "HL7 Europe"
    },
    "system": "urn:oid:2.16.840.1.113883.2.51.999",
    "value": "49bb24f2-1aec-4720-9520-4f3e1eb47b0a"
  },
  "entry": [
    {
      "fullUrl": "urn:uuid:1f32b822-706a-44bf-bb13-65fcb686d093",
      "resource": {
        "resourceType": "Composition",
        "id": "1f32b822-706a-44bf-bb13-65fcb686d093",
        "meta": {
          "profile": [
            "http://hl7.eu/fhir/laboratory/StructureDefinition/Composition-eu-lab"
          ]
        },
        "identifier": {
          "assigner": {
            "display": "HL7 Europe"
          },
          "system": "urn:oid:2.16.840.1.113883.2.51.999",
          "value": "cbb9a819-798a-4372-b83a-464511aaabeb"
        },
        "author": [
          {
            "reference": "urn:uuid:ad5c7b81-306f-4a09-8a85-5805571d593a"
          }
        ],
        "category": [
          {
            "coding": [
              {
                "code": "26436-6",
                "system": "http://loinc.org",
                "display": "Laboratory studies (set)"
              }
            ]
          }
        ],
        "type": {
          "coding": [
            {
              "code": "11502-2",
              "system": "http://loinc.org",
              "display": "Laboratory report"
            }
          ],
          "text": "Laboratory Report"
        },
        "section": [
          {
            "code": {
              "coding": [
                {
                  "code": "26436-6",
                  "system": "http://loinc.org",
                  "display": "Laboratory studies (set)"
                }
              ],
              "text": "Laboratory studies"
            },
            "section": [
              {
                "code": {
                  "coding": [
                    {
                      "code": "$18719-5",
                      "system": "http://loinc.org",
                      "display": "Chemistry studies (set)"
                    }
                  ],
                  "text": "Chemistry"
                },
                "entry": [
                  {
                    "reference": "urn:uuid:cf7c24c0-e538-4873-853d-aaccecc93a2b"
                  },
                  {
                    "reference": "urn:uuid:ceda2a45-6595-4da3-8f38-bbac8eeb8f64"
                  },
                  {
                    "reference": "urn:uuid:8a008ca0-26f0-44a1-9b81-3b95f02bb29f"
                  },
                  {
                    "reference": "urn:uuid:f08fa24e-b1dc-4dbf-9907-03917d43a041"
                  },
                  {
                    "reference": "urn:uuid:790d53ab-52f8-4e1e-9a5f-ba717c4a9402"
                  },
                  {
                    "reference": "urn:uuid:b74c7d96-fb79-4f05-8da8-b7bcbfd1c3fc"
                  },
                  {
                    "reference": "urn:uuid:ffcd440c-25b0-41f7-ae16-eee4f0ae8603"
                  },
                  {
                    "reference": "urn:uuid:8a38775d-7af6-406a-a70c-517d8ac94ada"
                  },
                  {
                    "reference": "urn:uuid:9e52510e-438c-4179-bb75-11e02fcb275d"
                  }
                ],
                "text": {
                  "status": "generated",
                  "div": "<div xmlns=\"http://www.w3.org/1999/xhtml\"><h3>Chemistry</h3><table class=\"hl7__eu__lab__report\"><thead><tr><th>Test</th><th>05-FEB-2018</th><th>Reference&#xA0;Range</th><th>Unit</th></tr></thead><tbody><tr><td>Hemoglobin A1c/Hemoglobin.total in Blood</td><td><strong>5.9 H</strong></td><td>4.8 - 5.7</td><td>%</td></tr><tr><td>Glucose [Mass/volume] in Blood</td><td>85.1</td><td>70 - 99</td><td>mg/dL</td></tr><tr><td>Urea nitrogen [Mass/volume] in Blood</td><td>9.9</td><td>7 - 20</td><td>mg/dL</td></tr><tr><td>Creatinine [Mass/volume] in Blood</td><td>1.1</td><td>0.6 - 1.1</td><td>mg/dL</td></tr><tr><td>Calcium [Mass/volume] in Blood</td><td>8.8</td><td>8.5 - 10.5</td><td>mg/dL</td></tr><tr><td>Sodium [Moles/volume] in Blood</td><td>142.0</td><td>135 - 145</td><td>mmol/L</td></tr><tr><td>Potassium [Moles/volume] in Blood</td><td>5.0</td><td>3.5 - 5.3</td><td>mmol/L</td></tr><tr><td>Chloride [Moles/volume] in Blood</td><td>106.3</td><td>98 - 114</td><td>mmol/L</td></tr><tr><td>Carbon dioxide, total [Moles/volume] in Blood</td><td>22.7</td><td>22 - 29</td><td>mmol/L</td></tr></tbody></table></div>"
                },
                "title": "Chemistry"
              }
            ],
            "title": "Laboratory Report"
          },
          {
            "text": {
              "status": "generated",
              "div": "<div xmlns=\"http://www.w3.org/1999/xhtml\"><h3>Annotation</h3><table class=\"hl7__eu__lab__report\"><tr><th>Conclusion and Recommendations based on this report and previous findings known to us</th></tr><tr><td>The laboratory results show a mildly elevated HbA1c (5.9%), indicating prediabetes, while fasting glucose is within normal limits. Renal function (urea, creatinine), electrolytes, and calcium are all within normal ranges. No acute abnormalities detected; recommend monitoring glycemic status and considering lifestyle modifications to prevent progression to diabetes.</td></tr></table></div>"
            },
            "code": {
              "coding": [
                {
                  "system": "http://loinc.org",
                  "code": "48767-8",
                  "display": "Annotation comment"
                }
              ]
            },
            "title": "Annotation comment"
          }
        ],
        "status": "final",
        "subject": {
          "reference": "urn:uuid:eb63537c-e07c-4bd9-a7ab-577d7db1f298",
          "display": "Pauline Grenier"
        },
        "date": "2018-02-05T12:54:46Z",
        "title": "Laboratory Report",
        "confidentiality": "N"
      }
    },
    {
      "fullUrl": "urn:uuid:f397b08e-a306-494f-b133-1693dc0d76fe",
      "resource": {
        "resourceType": "DiagnosticReport",
        "id": "f397b08e-a306-494f-b133-1693dc0d76fe",
        "meta": {
          "profile": [
            "http://hl7.eu/fhir/laboratory/StructureDefinition/DiagnosticReport-eu-lab"
          ]
        },
        "identifier": [
          {
            "assigner": {
              "display": "HL7 Europe"
            },
            "system": "urn:oid:2.16.840.1.113883.2.51.999",
            "value": "c72dcc35-63ea-4c37-bea3-b8bc80302f6d"
          }
        ],
        "extension": [
          {
            "url": "http://hl7.org/fhir/5.0/StructureDefinition/extension-DiagnosticReport.composition",
            "valueReference": {
              "reference": "urn:uuid:cbb9a819-798a-4372-b83a-464511aaabeb"
            }
          }
        ],
        "category": [
          {
            "coding": [
              {
                "code": "26436-6",
                "system": "http://loinc.org",
                "display": "Laboratory studies (set)"
              }
            ]
          }
        ],
        "specimen": [
          {
            "reference": "urn:uuid:2486d6bf-afda-4a75-ad1d-687aa0a6c78e"
          }
        ],
        "result": [
          {
            "reference": "urn:uuid:cf7c24c0-e538-4873-853d-aaccecc93a2b"
          },
          {
            "reference": "urn:uuid:ceda2a45-6595-4da3-8f38-bbac8eeb8f64"
          },
          {
            "reference": "urn:uuid:8a008ca0-26f0-44a1-9b81-3b95f02bb29f"
          },
          {
            "reference": "urn:uuid:f08fa24e-b1dc-4dbf-9907-03917d43a041"
          },
          {
            "reference": "urn:uuid:790d53ab-52f8-4e1e-9a5f-ba717c4a9402"
          },
          {
            "reference": "urn:uuid:b74c7d96-fb79-4f05-8da8-b7bcbfd1c3fc"
          },
          {
            "reference": "urn:uuid:ffcd440c-25b0-41f7-ae16-eee4f0ae8603"
          },
          {
            "reference": "urn:uuid:8a38775d-7af6-406a-a70c-517d8ac94ada"
          },
          {
            "reference": "urn:uuid:9e52510e-438c-4179-bb75-11e02fcb275d"
          }
        ],
        "status": "registered",
        "code": {
          "coding": [
            {
              "code": "11502-2",
              "system": "http://loinc.org",
              "display": "Laboratory report"
            }
          ]
        },
        "subject": {
          "reference": "urn:uuid:eb63537c-e07c-4bd9-a7ab-577d7db1f298",
          "display": "Pauline Grenier"
        }
      }
    },
    {
      "fullUrl": "urn:uuid:eb63537c-e07c-4bd9-a7ab-577d7db1f298",
      "resource": {
        "resourceType": "Patient",
        "id": "eb63537c-e07c-4bd9-a7ab-577d7db1f298",
        "meta": {
          "security": [
            {
              "system": "http://terminology.hl7.org/CodeSystem/v3-ActReason",
              "code": "HTEST"
            },
            {
              "system": "http://terminology.hl7.org/CodeSystem/v3-ActReason",
              "code": "TRAIN"
            }
          ],
          "tag": [
            {
              "system": "https://synderai.net/fhir/CodeSystem/tags",
              "code": "synthetic",
              "display": "SYNDERAI Synthetic data"
            }
          ],
          "profile": [
            "http://hl7.eu/fhir/base/StructureDefinition/patient-eu-core"
          ]
        },
        "identifier": [
          {
            "type": {
              "coding": [
                {
                  "code": "PT",
                  "system": "http://terminology.hl7.org/CodeSystem/v2-0203"
                }
              ]
            },
            "system": "http://ec.europa.eu/identifier/eci",
            "value": "6776-872657-1"
          },
          {
            "type": {
              "coding": [
                {
                  "code": "MR",
                  "system": "http://terminology.hl7.org/CodeSystem/v2-0203"
                }
              ]
            },
            "system": "http://local.setting.eu/identifier",
            "value": "a90ff566-3092-3af0-91f2-c0514ba66d35"
          }
        ],
        "name": [
          {
            "family": "Grenier"
          },
          {
            "given": [
              "Pauline"
            ]
          },
          {
            "text": "Pauline Grenier"
          }
        ],
        "address": [
          {
            "line": [
              "114, avenue Georges"
            ],
            "use": "home",
            "type": "physical",
            "postalCode": "71110",
            "city": "Caron",
            "country": "France"
          }
        ],
        "telecom": [
          {
            "system": "phone",
            "value": "+33 4 26 27 51 56"
          }
        ],
        "extension": [
          {
            "url": "http://hl7.org/fhir/StructureDefinition/patient-nationality",
            "valueCodeableConcept": {
              "coding": [
                {
                  "code": "FR",
                  "system": "http://hl7.org/fhir/ValueSet/country"
                }
              ]
            }
          }
        ],
        "text": {
          "status": "generated",
          "div": "<div xmlns=\"http://www.w3.org/1999/xhtml\"><table class=\"hl7__ips\"><tr><td>Pauline Grenier</td><td>female</td><td>03-May-1971</td></tr></table></div>"
        },
        "gender": "female",
        "birthDate": "1971-05-03"
      }
    },
    {
      "fullUrl": "urn:uuid:e8880df6-f047-4dba-8bd8-d04533c08808",
      "resource": {
        "resourceType": "ServiceRequest",
        "id": "e8880df6-f047-4dba-8bd8-d04533c08808",
        "meta": {
          "profile": [
            "http://hl7.eu/fhir/laboratory/StructureDefinition/ServiceRequest-eu-lab"
          ]
        },
        "identifier": [
          {
            "system": "http://example.org",
            "value": "4b640496-aba2-4420-baea-01c0d604e8b9"
          }
        ],
        "specimen": [
          {
            "reference": "urn:uuid:2486d6bf-afda-4a75-ad1d-687aa0a6c78e"
          }
        ],
        "reasonCode": [
          {
            "coding": [
              {
                "code": "59621000",
                "system": "http://snomed.info/sct",
                "display": "Essential hypertension"
              }
            ]
          },
          {
            "coding": [
              {
                "code": "237602007",
                "system": "http://snomed.info/sct",
                "display": "Metabolic syndrome X"
              }
            ]
          },
          {
            "coding": [
              {
                "code": "15777000",
                "system": "http://snomed.info/sct",
                "display": "Prediabetes"
              }
            ]
          }
        ],
        "status": "active",
        "intent": "order",
        "code": {
          "coding": [
            {
              "code": "108252007",
              "system": "http://snomed.info/sct",
              "display": "Laboratory procedure"
            }
          ]
        },
        "subject": {
          "reference": "urn:uuid:eb63537c-e07c-4bd9-a7ab-577d7db1f298",
          "display": "Pauline Grenier"
        },
        "requester": {
          "reference": "urn:uuid:d3f01501-a52b-47fd-a4ff-7f250b2f81f8"
        }
      }
    },
    {
      "fullUrl": "urn:uuid:d3f01501-a52b-47fd-a4ff-7f250b2f81f8",
      "resource": {
        "resourceType": "PractitionerRole",
        "id": "d3f01501-a52b-47fd-a4ff-7f250b2f81f8",
        "meta": {
          "profile": [
            "http://hl7.eu/fhir/base/StructureDefinition/practitionerRole-eu"
          ]
        },
        "text": {
          "status": "generated",
          "div": "<div xmlns=\"http://www.w3.org/1999/xhtml\">Provider Role Id: d3f01501-a52b-47fd-a4ff-7f250b2f81f8</div>"
        },
        "organization": {
          "reference": "urn:uuid:dfdaff3c-0394-4bc5-a7c5-5cf74e65aaf6"
        }
      }
    },
    {
      "fullUrl": "urn:uuid:dfdaff3c-0394-4bc5-a7c5-5cf74e65aaf6",
      "resource": {
        "resourceType": "Organization",
        "id": "dfdaff3c-0394-4bc5-a7c5-5cf74e65aaf6",
        "meta": {
          "profile": [
            "http://hl7.eu/fhir/base/StructureDefinition/organization-eu"
          ]
        },
        "identifier": [
          {
            "assigner": {
              "display": "HL7 Europe"
            },
            "system": "urn:oid:2.16.840.1.113883.2.51.999",
            "value": "f89e168a-9f6f-4a28-9d6c-90eab36ff3c7"
          }
        ],
        "address": [
          {
            "city": "Le Creusot",
            "postalCode": "71200",
            "country": "France"
          }
        ],
        "text": {
          "status": "generated",
          "div": "<div xmlns=\"http://www.w3.org/1999/xhtml\">Provider Organization: Hôpital du Creusot - Site Foch</div>"
        },
        "name": "Hôpital du Creusot - Site Foch"
      }
    },
    {
      "fullUrl": "urn:uuid:2486d6bf-afda-4a75-ad1d-687aa0a6c78e",
      "resource": {
        "resourceType": "Specimen",
        "id": "2486d6bf-afda-4a75-ad1d-687aa0a6c78e",
        "meta": {
          "profile": [
            "http://hl7.eu/fhir/laboratory/StructureDefinition/Specimen-eu-lab"
          ]
        },
        "collection": {
          "collectedDateTime": "2018-02-05"
        },
        "text": {
          "status": "generated",
          "div": "<div xmlns=\"http://www.w3.org/1999/xhtml\"><table class=\"hl7__eu__lab__report\"><tr><th>Specimen</th><th>Collection Date</th></tr><tr><td>Whole blood specimen (specimen)</td><td><span class=\"nb\">05-Feb-2018</span></td></tr></table></div>"
        },
        "type": {
          "coding": [
            {
              "code": "258580003",
              "system": "http://snomed.info/sct",
              "display": "Whole blood specimen (specimen)"
            }
          ]
        }
      }
    },
    {
      "fullUrl": "urn:uuid:cf7c24c0-e538-4873-853d-aaccecc93a2b",
      "resource": {
        "resourceType": "Observation",
        "id": "cf7c24c0-e538-4873-853d-aaccecc93a2b",
        "meta": {
          "profile": [
            "http://hl7.eu/fhir/laboratory/StructureDefinition/Observation-resultslab-eu-lab"
          ]
        },
        "performer": [
          {
            "display": "The Central European Lab"
          }
        ],
        "category": [
          {
            "coding": [
              {
                "system": "http://terminology.hl7.org/CodeSystem/observation-category",
                "code": "laboratory"
              }
            ]
          }
        ],
        "code": {
          "coding": [
            {
              "code": "4548-4",
              "system": "http://loinc.org",
              "display": "Hemoglobin A1c/Hemoglobin.total in Blood"
            }
          ],
          "text": "Hemoglobin A1c/Hemoglobin.total in Blood"
        },
        "valueQuantity": {
          "system": "http://unitsofmeasure.org",
          "value": 5.9,
          "unit": "%",
          "code": "%"
        },
        "referenceRange": [
          {
            "low": {
              "value": 4.8,
              "code": "%",
              "system": "http://unitsofmeasure.org"
            }
          },
          {
            "high": {
              "value": 5.7,
              "code": "%",
              "system": "http://unitsofmeasure.org"
            }
          }
        ],
        "interpretation": [
          {
            "coding": [
              {
                "code": "H",
                "system": "http://terminology.hl7.org/CodeSystem/v3-ObservationInterpretation",
                "display": "High"
              }
            ]
          }
        ],
        "text": {
          "status": "generated",
          "div": "<div xmlns=\"http://www.w3.org/1999/xhtml\"><table class=\"hl7__eu__lab__report\"><tr><th>Test</th><th>05-Feb-2018</th><th>Reference&#xA0;Range</th><th>Unit</th></tr><tr><td>Hemoglobin A1c/Hemoglobin.total in Blood</td><td>5.9</td><td>4.8 - 5.7</td><td>H</td><td>%</td></tr></table></div>"
        },
        "status": "final",
        "subject": {
          "reference": "urn:uuid:eb63537c-e07c-4bd9-a7ab-577d7db1f298",
          "display": "Pauline Grenier"
        },
        "effectiveDateTime": "2018-02-05T11:54:46Z",
        "specimen": {
          "reference": "urn:uuid:2486d6bf-afda-4a75-ad1d-687aa0a6c78e"
        }
      }
    },
    {
      "fullUrl": "urn:uuid:ceda2a45-6595-4da3-8f38-bbac8eeb8f64",
      "resource": {
        "resourceType": "Observation",
        "id": "ceda2a45-6595-4da3-8f38-bbac8eeb8f64",
        "meta": {
          "profile": [
            "http://hl7.eu/fhir/laboratory/StructureDefinition/Observation-resultslab-eu-lab"
          ]
        },
        "performer": [
          {
            "display": "The Central European Lab"
          }
        ],
        "category": [
          {
            "coding": [
              {
                "system": "http://terminology.hl7.org/CodeSystem/observation-category",
                "code": "laboratory"
              }
            ]
          }
        ],
        "code": {
          "coding": [
            {
              "code": "2339-0",
              "system": "http://loinc.org",
              "display": "Glucose [Mass/volume] in Blood"
            }
          ],
          "text": "Glucose [Mass/volume] in Blood"
        },
        "valueQuantity": {
          "system": "http://unitsofmeasure.org",
          "value": 85.1,
          "unit": "mg/dL",
          "code": "mg/dL"
        },
        "referenceRange": [
          {
            "low": {
              "value": 70,
              "code": "mg/dL",
              "system": "http://unitsofmeasure.org"
            }
          },
          {
            "high": {
              "value": 99,
              "code": "mg/dL",
              "system": "http://unitsofmeasure.org"
            }
          }
        ],
        "text": {
          "status": "generated",
          "div": "<div xmlns=\"http://www.w3.org/1999/xhtml\"><table class=\"hl7__eu__lab__report\"><tr><th>Test</th><th>05-Feb-2018</th><th>Reference&#xA0;Range</th><th>Unit</th></tr><tr><td>Glucose [Mass/volume] in Blood</td><td>85.1</td><td>70 - 99</td><td></td><td>mg/dL</td></tr></table></div>"
        },
        "status": "final",
        "subject": {
          "reference": "urn:uuid:eb63537c-e07c-4bd9-a7ab-577d7db1f298",
          "display": "Pauline Grenier"
        },
        "effectiveDateTime": "2018-02-05T11:54:46Z",
        "specimen": {
          "reference": "urn:uuid:2486d6bf-afda-4a75-ad1d-687aa0a6c78e"
        }
      }
    },
    {
      "fullUrl": "urn:uuid:8a008ca0-26f0-44a1-9b81-3b95f02bb29f",
      "resource": {
        "resourceType": "Observation",
        "id": "8a008ca0-26f0-44a1-9b81-3b95f02bb29f",
        "meta": {
          "profile": [
            "http://hl7.eu/fhir/laboratory/StructureDefinition/Observation-resultslab-eu-lab"
          ]
        },
        "performer": [
          {
            "display": "The Central European Lab"
          }
        ],
        "category": [
          {
            "coding": [
              {
                "system": "http://terminology.hl7.org/CodeSystem/observation-category",
                "code": "laboratory"
              }
            ]
          }
        ],
        "code": {
          "coding": [
            {
              "code": "6299-2",
              "system": "http://loinc.org",
              "display": "Urea nitrogen [Mass/volume] in Blood"
            }
          ],
          "text": "Urea nitrogen [Mass/volume] in Blood"
        },
        "valueQuantity": {
          "system": "http://unitsofmeasure.org",
          "value": 9.9,
          "unit": "mg/dL",
          "code": "mg/dL"
        },
        "referenceRange": [
          {
            "low": {
              "value": 7,
              "code": "mg/dL",
              "system": "http://unitsofmeasure.org"
            }
          },
          {
            "high": {
              "value": 20,
              "code": "mg/dL",
              "system": "http://unitsofmeasure.org"
            }
          }
        ],
        "text": {
          "status": "generated",
          "div": "<div xmlns=\"http://www.w3.org/1999/xhtml\"><table class=\"hl7__eu__lab__report\"><tr><th>Test</th><th>05-Feb-2018</th><th>Reference&#xA0;Range</th><th>Unit</th></tr><tr><td>Urea nitrogen [Mass/volume] in Blood</td><td>9.9</td><td>7 - 20</td><td></td><td>mg/dL</td></tr></table></div>"
        },
        "status": "final",
        "subject": {
          "reference": "urn:uuid:eb63537c-e07c-4bd9-a7ab-577d7db1f298",
          "display": "Pauline Grenier"
        },
        "effectiveDateTime": "2018-02-05T11:54:46Z",
        "specimen": {
          "reference": "urn:uuid:2486d6bf-afda-4a75-ad1d-687aa0a6c78e"
        }
      }
    },
    {
      "fullUrl": "urn:uuid:f08fa24e-b1dc-4dbf-9907-03917d43a041",
      "resource": {
        "resourceType": "Observation",
        "id": "f08fa24e-b1dc-4dbf-9907-03917d43a041",
        "meta": {
          "profile": [
            "http://hl7.eu/fhir/laboratory/StructureDefinition/Observation-resultslab-eu-lab"
          ]
        },
        "performer": [
          {
            "display": "The Central European Lab"
          }
        ],
        "category": [
          {
            "coding": [
              {
                "system": "http://terminology.hl7.org/CodeSystem/observation-category",
                "code": "laboratory"
              }
            ]
          }
        ],
        "code": {
          "coding": [
            {
              "code": "38483-4",
              "system": "http://loinc.org",
              "display": "Creatinine [Mass/volume] in Blood"
            }
          ],
          "text": "Creatinine [Mass/volume] in Blood"
        },
        "valueQuantity": {
          "system": "http://unitsofmeasure.org",
          "value": 1.1,
          "unit": "mg/dL",
          "code": "mg/dL"
        },
        "referenceRange": [
          {
            "low": {
              "value": 0.6,
              "code": "mg/dL",
              "system": "http://unitsofmeasure.org"
            }
          },
          {
            "high": {
              "value": 1.1,
              "code": "mg/dL",
              "system": "http://unitsofmeasure.org"
            }
          }
        ],
        "text": {
          "status": "generated",
          "div": "<div xmlns=\"http://www.w3.org/1999/xhtml\"><table class=\"hl7__eu__lab__report\"><tr><th>Test</th><th>05-Feb-2018</th><th>Reference&#xA0;Range</th><th>Unit</th></tr><tr><td>Creatinine [Mass/volume] in Blood</td><td>1.1</td><td>0.6 - 1.1</td><td></td><td>mg/dL</td></tr></table></div>"
        },
        "status": "final",
        "subject": {
          "reference": "urn:uuid:eb63537c-e07c-4bd9-a7ab-577d7db1f298",
          "display": "Pauline Grenier"
        },
        "effectiveDateTime": "2018-02-05T11:54:46Z",
        "specimen": {
          "reference": "urn:uuid:2486d6bf-afda-4a75-ad1d-687aa0a6c78e"
        }
      }
    },
    {
      "fullUrl": "urn:uuid:790d53ab-52f8-4e1e-9a5f-ba717c4a9402",
      "resource": {
        "resourceType": "Observation",
        "id": "790d53ab-52f8-4e1e-9a5f-ba717c4a9402",
        "meta": {
          "profile": [
            "http://hl7.eu/fhir/laboratory/StructureDefinition/Observation-resultslab-eu-lab"
          ]
        },
        "performer": [
          {
            "display": "The Central European Lab"
          }
        ],
        "category": [
          {
            "coding": [
              {
                "system": "http://terminology.hl7.org/CodeSystem/observation-category",
                "code": "laboratory"
              }
            ]
          }
        ],
        "code": {
          "coding": [
            {
              "code": "49765-1",
              "system": "http://loinc.org",
              "display": "Calcium [Mass/volume] in Blood"
            }
          ],
          "text": "Calcium [Mass/volume] in Blood"
        },
        "valueQuantity": {
          "system": "http://unitsofmeasure.org",
          "value": 8.8,
          "unit": "mg/dL",
          "code": "mg/dL"
        },
        "referenceRange": [
          {
            "low": {
              "value": 8.5,
              "code": "mg/dL",
              "system": "http://unitsofmeasure.org"
            }
          },
          {
            "high": {
              "value": 10.5,
              "code": "mg/dL",
              "system": "http://unitsofmeasure.org"
            }
          }
        ],
        "text": {
          "status": "generated",
          "div": "<div xmlns=\"http://www.w3.org/1999/xhtml\"><table class=\"hl7__eu__lab__report\"><tr><th>Test</th><th>05-Feb-2018</th><th>Reference&#xA0;Range</th><th>Unit</th></tr><tr><td>Calcium [Mass/volume] in Blood</td><td>8.8</td><td>8.5 - 10.5</td><td></td><td>mg/dL</td></tr></table></div>"
        },
        "status": "final",
        "subject": {
          "reference": "urn:uuid:eb63537c-e07c-4bd9-a7ab-577d7db1f298",
          "display": "Pauline Grenier"
        },
        "effectiveDateTime": "2018-02-05T11:54:46Z",
        "specimen": {
          "reference": "urn:uuid:2486d6bf-afda-4a75-ad1d-687aa0a6c78e"
        }
      }
    },
    {
      "fullUrl": "urn:uuid:b74c7d96-fb79-4f05-8da8-b7bcbfd1c3fc",
      "resource": {
        "resourceType": "Observation",
        "id": "b74c7d96-fb79-4f05-8da8-b7bcbfd1c3fc",
        "meta": {
          "profile": [
            "http://hl7.eu/fhir/laboratory/StructureDefinition/Observation-resultslab-eu-lab"
          ]
        },
        "performer": [
          {
            "display": "The Central European Lab"
          }
        ],
        "category": [
          {
            "coding": [
              {
                "system": "http://terminology.hl7.org/CodeSystem/observation-category",
                "code": "laboratory"
              }
            ]
          }
        ],
        "code": {
          "coding": [
            {
              "code": "2947-0",
              "system": "http://loinc.org",
              "display": "Sodium [Moles/volume] in Blood"
            }
          ],
          "text": "Sodium [Moles/volume] in Blood"
        },
        "valueQuantity": {
          "system": "http://unitsofmeasure.org",
          "value": 142,
          "unit": "mmol/L",
          "code": "mmol/L"
        },
        "referenceRange": [
          {
            "low": {
              "value": 135,
              "code": "mmol/L",
              "system": "http://unitsofmeasure.org"
            }
          },
          {
            "high": {
              "value": 145,
              "code": "mmol/L",
              "system": "http://unitsofmeasure.org"
            }
          }
        ],
        "text": {
          "status": "generated",
          "div": "<div xmlns=\"http://www.w3.org/1999/xhtml\"><table class=\"hl7__eu__lab__report\"><tr><th>Test</th><th>05-Feb-2018</th><th>Reference&#xA0;Range</th><th>Unit</th></tr><tr><td>Sodium [Moles/volume] in Blood</td><td>142.0</td><td>135 - 145</td><td></td><td>mmol/L</td></tr></table></div>"
        },
        "status": "final",
        "subject": {
          "reference": "urn:uuid:eb63537c-e07c-4bd9-a7ab-577d7db1f298",
          "display": "Pauline Grenier"
        },
        "effectiveDateTime": "2018-02-05T11:54:46Z",
        "specimen": {
          "reference": "urn:uuid:2486d6bf-afda-4a75-ad1d-687aa0a6c78e"
        }
      }
    },
    {
      "fullUrl": "urn:uuid:ffcd440c-25b0-41f7-ae16-eee4f0ae8603",
      "resource": {
        "resourceType": "Observation",
        "id": "ffcd440c-25b0-41f7-ae16-eee4f0ae8603",
        "meta": {
          "profile": [
            "http://hl7.eu/fhir/laboratory/StructureDefinition/Observation-resultslab-eu-lab"
          ]
        },
        "performer": [
          {
            "display": "The Central European Lab"
          }
        ],
        "category": [
          {
            "coding": [
              {
                "system": "http://terminology.hl7.org/CodeSystem/observation-category",
                "code": "laboratory"
              }
            ]
          }
        ],
        "code": {
          "coding": [
            {
              "code": "6298-4",
              "system": "http://loinc.org",
              "display": "Potassium [Moles/volume] in Blood"
            }
          ],
          "text": "Potassium [Moles/volume] in Blood"
        },
        "valueQuantity": {
          "system": "http://unitsofmeasure.org",
          "value": 5,
          "unit": "mmol/L",
          "code": "mmol/L"
        },
        "referenceRange": [
          {
            "low": {
              "value": 3.5,
              "code": "mmol/L",
              "system": "http://unitsofmeasure.org"
            }
          },
          {
            "high": {
              "value": 5.3,
              "code": "mmol/L",
              "system": "http://unitsofmeasure.org"
            }
          }
        ],
        "text": {
          "status": "generated",
          "div": "<div xmlns=\"http://www.w3.org/1999/xhtml\"><table class=\"hl7__eu__lab__report\"><tr><th>Test</th><th>05-Feb-2018</th><th>Reference&#xA0;Range</th><th>Unit</th></tr><tr><td>Potassium [Moles/volume] in Blood</td><td>5.0</td><td>3.5 - 5.3</td><td></td><td>mmol/L</td></tr></table></div>"
        },
        "status": "final",
        "subject": {
          "reference": "urn:uuid:eb63537c-e07c-4bd9-a7ab-577d7db1f298",
          "display": "Pauline Grenier"
        },
        "effectiveDateTime": "2018-02-05T11:54:46Z",
        "specimen": {
          "reference": "urn:uuid:2486d6bf-afda-4a75-ad1d-687aa0a6c78e"
        }
      }
    },
    {
      "fullUrl": "urn:uuid:8a38775d-7af6-406a-a70c-517d8ac94ada",
      "resource": {
        "resourceType": "Observation",
        "id": "8a38775d-7af6-406a-a70c-517d8ac94ada",
        "meta": {
          "profile": [
            "http://hl7.eu/fhir/laboratory/StructureDefinition/Observation-resultslab-eu-lab"
          ]
        },
        "performer": [
          {
            "display": "The Central European Lab"
          }
        ],
        "category": [
          {
            "coding": [
              {
                "system": "http://terminology.hl7.org/CodeSystem/observation-category",
                "code": "laboratory"
              }
            ]
          }
        ],
        "code": {
          "coding": [
            {
              "code": "2069-3",
              "system": "http://loinc.org",
              "display": "Chloride [Moles/volume] in Blood"
            }
          ],
          "text": "Chloride [Moles/volume] in Blood"
        },
        "valueQuantity": {
          "system": "http://unitsofmeasure.org",
          "value": 106.3,
          "unit": "mmol/L",
          "code": "mmol/L"
        },
        "referenceRange": [
          {
            "low": {
              "value": 98,
              "code": "mmol/L",
              "system": "http://unitsofmeasure.org"
            }
          },
          {
            "high": {
              "value": 114,
              "code": "mmol/L",
              "system": "http://unitsofmeasure.org"
            }
          }
        ],
        "text": {
          "status": "generated",
          "div": "<div xmlns=\"http://www.w3.org/1999/xhtml\"><table class=\"hl7__eu__lab__report\"><tr><th>Test</th><th>05-Feb-2018</th><th>Reference&#xA0;Range</th><th>Unit</th></tr><tr><td>Chloride [Moles/volume] in Blood</td><td>106.3</td><td>98 - 114</td><td></td><td>mmol/L</td></tr></table></div>"
        },
        "status": "final",
        "subject": {
          "reference": "urn:uuid:eb63537c-e07c-4bd9-a7ab-577d7db1f298",
          "display": "Pauline Grenier"
        },
        "effectiveDateTime": "2018-02-05T11:54:46Z",
        "specimen": {
          "reference": "urn:uuid:2486d6bf-afda-4a75-ad1d-687aa0a6c78e"
        }
      }
    },
    {
      "fullUrl": "urn:uuid:9e52510e-438c-4179-bb75-11e02fcb275d",
      "resource": {
        "resourceType": "Observation",
        "id": "9e52510e-438c-4179-bb75-11e02fcb275d",
        "meta": {
          "profile": [
            "http://hl7.eu/fhir/laboratory/StructureDefinition/Observation-resultslab-eu-lab"
          ]
        },
        "performer": [
          {
            "display": "The Central European Lab"
          }
        ],
        "category": [
          {
            "coding": [
              {
                "system": "http://terminology.hl7.org/CodeSystem/observation-category",
                "code": "laboratory"
              }
            ]
          }
        ],
        "code": {
          "coding": [
            {
              "code": "20565-8",
              "system": "http://loinc.org",
              "display": "Carbon dioxide, total [Moles/volume] in Blood"
            }
          ],
          "text": "Carbon dioxide, total [Moles/volume] in Blood"
        },
        "valueQuantity": {
          "system": "http://unitsofmeasure.org",
          "value": 22.7,
          "unit": "mmol/L",
          "code": "mmol/L"
        },
        "referenceRange": [
          {
            "low": {
              "value": 22,
              "code": "mmol/L",
              "system": "http://unitsofmeasure.org"
            }
          },
          {
            "high": {
              "value": 29,
              "code": "mmol/L",
              "system": "http://unitsofmeasure.org"
            }
          }
        ],
        "text": {
          "status": "generated",
          "div": "<div xmlns=\"http://www.w3.org/1999/xhtml\"><table class=\"hl7__eu__lab__report\"><tr><th>Test</th><th>05-Feb-2018</th><th>Reference&#xA0;Range</th><th>Unit</th></tr><tr><td>Carbon dioxide, total [Moles/volume] in Blood</td><td>22.7</td><td>22 - 29</td><td></td><td>mmol/L</td></tr></table></div>"
        },
        "status": "final",
        "subject": {
          "reference": "urn:uuid:eb63537c-e07c-4bd9-a7ab-577d7db1f298",
          "display": "Pauline Grenier"
        },
        "effectiveDateTime": "2018-02-05T11:54:46Z",
        "specimen": {
          "reference": "urn:uuid:2486d6bf-afda-4a75-ad1d-687aa0a6c78e"
        }
      }
    },
    {
      "fullUrl": "urn:uuid:8b6b8997-a6da-40ef-989d-28e8e3be20d1",
      "resource": {
        "resourceType": "Device",
        "id": "8b6b8997-a6da-40ef-989d-28e8e3be20d1",
        "deviceName": [
          {
            "name": "SYNDERAI Synthetic Generator",
            "type": "manufacturer-name"
          }
        ],
        "version": [
          {
            "value": "5.0"
          }
        ],
        "text": {
          "status": "generated",
          "div": "<div xmlns=\"http://www.w3.org/1999/xhtml\">SYNDERAI Synthetic Generator v5.0</div>"
        },
        "status": "active\"",
        "distinctIdentifier": "synderai-generator-50",
        "manufacturer": "SYNDERAI Project"
      }
    },
    {
      "fullUrl": "urn:uuid:dc938a82-5fc1-45e7-a5ff-c1f587f445d4",
      "resource": {
        "resourceType": "Provenance",
        "id": "dc938a82-5fc1-45e7-a5ff-c1f587f445d4",
        "target": [
          {
            "reference": "Patient/eb63537c-e07c-4bd9-a7ab-577d7db1f298"
          },
          {
            "reference": "Bundle/127a26d0-f2e2-4a48-a018-d0230cac8b8f"
          },
          {
            "reference": "Composition/1f32b822-706a-44bf-bb13-65fcb686d093"
          },
          {
            "reference": "PractitionerRole/ad5c7b81-306f-4a09-8a85-5805571d593a"
          },
          {
            "reference": "Practitioner/20d2844c-1314-456c-99e4-e4dc6d24f357"
          },
          {
            "reference": "PractitionerRole/d3f01501-a52b-47fd-a4ff-7f250b2f81f8"
          },
          {
            "reference": "Organization/dfdaff3c-0394-4bc5-a7c5-5cf74e65aaf6"
          }
        ],
        "activity": {
          "text": "Synthetic Example Data Generation"
        },
        "policy": [
          "https://synderai.net/synderai-synthetic-data-policy"
        ],
        "agent": [
          {
            "type": {
              "text": "author"
            },
            "who": {
              "reference": "Device/8b6b8997-a6da-40ef-989d-28e8e3be20d1"
            }
          }
        ],
        "reason": [
          {
            "text": "Interoperability Testing and Training (non-clinical use)"
          }
        ],
        "text": {
          "status": "generated",
          "div": "<div xmlns=\"http://www.w3.org/1999/xhtml\">Provenance for SYNDERAI Synthetic Example Data Resource</div>"
        },
        "recorded": "2018-02-05T12:54:46Z"
      }
    },
    {
      "fullUrl": "urn:uuid:ad5c7b81-306f-4a09-8a85-5805571d593a",
      "resource": {
        "resourceType": "PractitionerRole",
        "id": "ad5c7b81-306f-4a09-8a85-5805571d593a",
        "meta": {
          "profile": [
            "http://hl7.eu/fhir/base/StructureDefinition/practitionerRole-eu"
          ]
        },
        "text": {
          "status": "generated",
          "div": "<div xmlns=\"http://www.w3.org/1999/xhtml\">Laboratory Role Id: ad5c7b81-306f-4a09-8a85-5805571d593a</div>"
        },
        "practitioner": {
          "reference": "urn:uuid:20d2844c-1314-456c-99e4-e4dc6d24f357"
        }
      }
    },
    {
      "fullUrl": "urn:uuid:20d2844c-1314-456c-99e4-e4dc6d24f357",
      "resource": {
        "resourceType": "Practitioner",
        "id": "20d2844c-1314-456c-99e4-e4dc6d24f357",
        "meta": {
          "profile": [
            "http://hl7.eu/fhir/base/StructureDefinition/practitioner-eu"
          ]
        },
        "identifier": [
          {
            "assigner": {
              "display": "HL7 Europe"
            },
            "system": "urn:oid:2.16.840.1.113883.2.51.999",
            "value": "c12419cc-10ea-46de-af3d-5ad97b4c55ed"
          }
        ],
        "name": [
          {
            "prefix": [
              "dr"
            ],
            "given": [
              "Ex"
            ],
            "family": "Ample"
          }
        ],
        "address": [
          {
            "line": [
              "Laboratoire Central Européenne",
              "Boulevard du Jardin Botanique 32"
            ],
            "postalCode": "1000",
            "city": "Brussels",
            "country": "Belgium"
          }
        ],
        "text": {
          "status": "generated",
          "div": "<div xmlns=\"http://www.w3.org/1999/xhtml\">Laboratory: Laboratoire Central Européenne, 1000 Brussels, Belgium</div>"
        }
      }
    }
  ],
  "type": "document",
  "timestamp": "2018-02-05T12:54:46Z"
}
