{
  "resourceType": "Bundle",
  "id": "f5abe5a3-54a1-4a01-8761-eadc6a744f8f",
  "meta": {
    "profile": [
      "http://hl7.eu/fhir/laboratory/StructureDefinition/Bundle-eu-lab"
    ]
  },
  "identifier": {
    "assigner": {
      "display": "HL7 Europe"
    },
    "system": "urn:oid:2.16.840.1.113883.2.51.999",
    "value": "b6e43f9a-2787-4361-b85e-78f732e009b2"
  },
  "entry": [
    {
      "fullUrl": "urn:uuid:634c7520-0c16-4467-8d94-3232c7c40026",
      "resource": {
        "resourceType": "Composition",
        "id": "634c7520-0c16-4467-8d94-3232c7c40026",
        "meta": {
          "profile": [
            "http://hl7.eu/fhir/laboratory/StructureDefinition/Composition-eu-lab"
          ]
        },
        "identifier": {
          "assigner": {
            "display": "HL7 Europe"
          },
          "system": "urn:oid:2.16.840.1.113883.2.51.999",
          "value": "de97edea-f984-4d4b-8a66-d1eec77c6826"
        },
        "author": [
          {
            "reference": "urn:uuid:5bf7506f-91dc-4814-afbe-e057b2f24d9c"
          }
        ],
        "category": [
          {
            "coding": [
              {
                "code": "26436-6",
                "system": "http://loinc.org",
                "display": "Laboratory studies (set)"
              }
            ]
          }
        ],
        "type": {
          "coding": [
            {
              "code": "11502-2",
              "system": "http://loinc.org",
              "display": "Laboratory report"
            }
          ],
          "text": "Laboratory Report"
        },
        "section": [
          {
            "code": {
              "coding": [
                {
                  "code": "26436-6",
                  "system": "http://loinc.org",
                  "display": "Laboratory studies (set)"
                }
              ],
              "text": "Laboratory studies"
            },
            "section": [
              {
                "code": {
                  "coding": [
                    {
                      "code": "$18719-5",
                      "system": "http://loinc.org",
                      "display": "Chemistry studies (set)"
                    }
                  ],
                  "text": "Chemistry"
                },
                "entry": [
                  {
                    "reference": "urn:uuid:da1ec494-cc50-4e87-8f70-33fe0ff9f129"
                  },
                  {
                    "reference": "urn:uuid:86163fa8-67be-4350-bde9-79c9179b51cb"
                  },
                  {
                    "reference": "urn:uuid:081afa3a-ad03-4378-91c0-13bd482a8e83"
                  },
                  {
                    "reference": "urn:uuid:d3ae0afa-9b14-41cb-b88e-c128d5810d19"
                  },
                  {
                    "reference": "urn:uuid:69209f93-75ed-4716-ad4c-0face176bb38"
                  },
                  {
                    "reference": "urn:uuid:a355f03a-8438-4be8-9938-cc4aab0d11b0"
                  },
                  {
                    "reference": "urn:uuid:43e8d301-b4ae-470a-8017-e3fe1fff328a"
                  },
                  {
                    "reference": "urn:uuid:a1fa4541-e055-4c13-9823-5661705c0ae1"
                  },
                  {
                    "reference": "urn:uuid:b6d1e4fa-800a-43a2-bd36-e6f9fecde809"
                  },
                  {
                    "reference": "urn:uuid:4b7af367-e47c-4106-9dc4-9b8316c19bc1"
                  }
                ],
                "text": {
                  "status": "generated",
                  "div": "<div xmlns=\"http://www.w3.org/1999/xhtml\"><h3>Chemistry</h3><table class=\"hl7__eu__lab__report\"><thead><tr><th>Test</th><th>26-JUL-2022</th><th>Reference&#xA0;Range</th><th>Unit</th></tr></thead><tbody><tr><td>Glucose [Mass/volume] in Serum or Plasma</td><td>74.4</td><td>70 - 99</td><td>mg/dL</td></tr><tr><td>Urea nitrogen [Mass/volume] in Serum or Plasma</td><td>10.3</td><td>7 - 50</td><td>mg/dL</td></tr><tr><td>Creatinine [Mass/volume] in Serum or Plasma</td><td><strong>2.0 H</strong></td><td>0.6 - 1.1</td><td>mg/dL</td></tr><tr><td>Calcium [Mass/volume] in Serum or Plasma</td><td>10.2</td><td>8.6 - 10.4</td><td>mg/dL</td></tr><tr><td>Sodium [Moles/volume] in Serum or Plasma</td><td>142.0</td><td>135 - 145</td><td>mmol/L</td></tr><tr><td>Potassium [Moles/volume] in Serum or Plasma</td><td>3.8</td><td>3.5 - 5.1</td><td>mmol/L</td></tr><tr><td>Chloride [Moles/volume] in Serum or Plasma</td><td>106.6</td><td>98 - 108</td><td>mmol/L</td></tr><tr><td>Carbon dioxide, total [Moles/volume] in Serum or Plasma</td><td>24.8</td><td>22 - 32</td><td>mmol/L</td></tr><tr><td>Ketones [Presence] in Urine by Test strip</td><td>Urine ketone test = ++</td><td></td><td></td></tr><tr><td>Hemoglobin A1c/Hemoglobin.total in Blood</td><td><strong>3.3 L</strong></td><td>4 - 6.4</td><td>%</td></tr></tbody></table></div>"
                },
                "title": "Chemistry"
              },
              {
                "code": {
                  "coding": [
                    {
                      "code": "$18729-4",
                      "system": "http://loinc.org",
                      "display": "Urinalysis studies (set)"
                    }
                  ],
                  "text": "Urinalysis"
                },
                "entry": [
                  {
                    "reference": "urn:uuid:17e6f5f9-8be4-4bbf-98b3-d56ec134b20a"
                  },
                  {
                    "reference": "urn:uuid:d89464c0-7dbc-46a3-997d-f22d1df44d2f"
                  },
                  {
                    "reference": "urn:uuid:e89d508a-c2fe-404f-98e0-c9617befe48f"
                  },
                  {
                    "reference": "urn:uuid:0206e4c3-4336-4f8d-b115-d569325d0892"
                  },
                  {
                    "reference": "urn:uuid:2548891a-f4aa-4f71-afcb-6769ae95cd69"
                  },
                  {
                    "reference": "urn:uuid:d0fd42e1-a117-434d-9d3a-c2a97cd810f8"
                  },
                  {
                    "reference": "urn:uuid:6f55cf99-099e-41e0-87e5-e879a7c0a5a4"
                  },
                  {
                    "reference": "urn:uuid:b4944052-6cbb-467c-a62a-34dce4f01d5d"
                  },
                  {
                    "reference": "urn:uuid:d592da3d-21f1-46d9-b10c-33f2fe12d1f8"
                  },
                  {
                    "reference": "urn:uuid:b0a7ebd0-9230-4f32-84d1-fea30089d667"
                  },
                  {
                    "reference": "urn:uuid:c4a3ff5e-7d70-423f-a662-bcc1e7b6c1d7"
                  },
                  {
                    "reference": "urn:uuid:fe80cb47-3413-4f58-be6b-2f01a9cb4170"
                  }
                ],
                "text": {
                  "status": "generated",
                  "div": "<div xmlns=\"http://www.w3.org/1999/xhtml\"><h3>Urinalysis</h3><table class=\"hl7__eu__lab__report\"><thead><tr><th>Test</th><th>26-JUL-2022</th><th>Reference&#xA0;Range</th><th>Unit</th></tr></thead><tbody><tr><td>Glucose [Mass/volume] in Urine by Test strip</td><td><strong>1.4 H</strong></td><td>0.8 - 0</td><td>mg/dL</td></tr><tr><td>Glucose [Presence] in Urine by Test strip</td><td>++</td><td></td><td></td></tr><tr><td>Bilirubin.total [Mass/volume] in Urine by Test strip</td><td><strong>1.4 H</strong></td><td>0 - 1</td><td>mg/dL</td></tr><tr><td>Bilirubin.total [Presence] in Urine by Test strip</td><td>Finding of bilirubin in urine</td><td></td><td></td></tr><tr><td>Ketones [Mass/volume] in Urine by Test strip</td><td><strong>17.0 H</strong></td><td>0 - 4</td><td>mg/dL</td></tr><tr><td>Specific gravity of Urine by Test strip</td><td><strong>1.0 L</strong></td><td>1.005 - 1.03</td><td>{nominal}</td></tr><tr><td>pH of Urine by Test strip</td><td>5.9</td><td>4.6 - 7</td><td>pH</td></tr><tr><td>Protein [Mass/volume] in Urine by Test strip</td><td><strong>373.2 H</strong></td><td>0 - 14</td><td>mg/dL</td></tr><tr><td>Protein [Presence] in Urine by Test strip</td><td>Urine protein test = ++</td><td></td><td></td></tr><tr><td>Nitrite [Presence] in Urine by Test strip</td><td>Urine nitrite negative</td><td></td><td></td></tr><tr><td>Hemoglobin [Presence] in Urine by Test strip</td><td>Urine blood test = negative</td><td></td><td></td></tr><tr><td>Leukocyte esterase [Presence] in Urine by Test strip</td><td>Urine leukocyte test negative</td><td></td><td></td></tr></tbody></table></div>"
                },
                "title": "Urinalysis"
              },
              {
                "code": {
                  "coding": [
                    {
                      "code": "$LP7846-1",
                      "system": "http://loinc.org",
                      "display": "Specimen information"
                    }
                  ],
                  "text": "Specimen information"
                },
                "entry": [
                  {
                    "reference": "urn:uuid:02f19f1e-c754-4e12-ae69-e67a3710f897"
                  },
                  {
                    "reference": "urn:uuid:068e6f72-f2aa-4c6b-8df4-a053e1bc128a"
                  },
                  {
                    "reference": "urn:uuid:1a6f3c96-1e3b-4ac2-a1a8-98eb405297a5"
                  },
                  {
                    "reference": "urn:uuid:78116632-0dd5-49a7-8b99-f47ee1e2b5fa"
                  }
                ],
                "text": {
                  "status": "generated",
                  "div": "<div xmlns=\"http://www.w3.org/1999/xhtml\"><h3>Specimen information</h3><table class=\"hl7__eu__lab__report\"><thead><tr><th>Test</th><th>26-JUL-2022</th><th>Specimen</th><th></th></tr></thead><tbody><tr><td>Appearance of Urine</td><td>Cloudy urine</td><td>Urine</td><td></td></tr><tr><td>Odor of Urine</td><td>Urine smell ammoniacal</td><td>Urine</td><td></td></tr><tr><td>Clarity of Urine</td><td>Translucent</td><td>Urine</td><td></td></tr><tr><td>Color of Urine</td><td>Brown color</td><td>Urine</td><td></td></tr></tbody></table></div>"
                },
                "title": "Specimen information"
              }
            ],
            "title": "Laboratory Report"
          },
          {
            "text": {
              "status": "generated",
              "div": "<div xmlns=\"http://www.w3.org/1999/xhtml\"><h3>Annotation</h3><table class=\"hl7__eu__lab__report\"><tr><th>Conclusion and Recommendations based on this report and previous findings known to us</th></tr><tr><td>The patient shows elevated serum creatinine, indicating impaired renal function. Urinalysis reveals significant proteinuria, glucosuria, ketonuria, and bilirubinuria, with low specific gravity and abnormal urine appearance, suggesting possible nephrotic syndrome or diabetic nephropathy, though HbA1c is low. No evidence of urinary tract infection. Further nephrological evaluation and assessment for underlying metabolic or systemic disease are recommended.</td></tr></table></div>"
            },
            "code": {
              "coding": [
                {
                  "system": "http://loinc.org",
                  "code": "48767-8",
                  "display": "Annotation comment"
                }
              ]
            },
            "title": "Annotation comment"
          }
        ],
        "status": "final",
        "subject": {
          "reference": "urn:uuid:d01d4648-0df5-4d75-b5e0-75ebd60111cd",
          "display": "Meaghan Neary"
        },
        "date": "2022-07-26T00:11:04Z",
        "title": "Laboratory Report",
        "confidentiality": "N"
      }
    },
    {
      "fullUrl": "urn:uuid:20023f49-6d60-4dab-b84a-c9f627bdac45",
      "resource": {
        "resourceType": "DiagnosticReport",
        "id": "20023f49-6d60-4dab-b84a-c9f627bdac45",
        "meta": {
          "profile": [
            "http://hl7.eu/fhir/laboratory/StructureDefinition/DiagnosticReport-eu-lab"
          ]
        },
        "identifier": [
          {
            "assigner": {
              "display": "HL7 Europe"
            },
            "system": "urn:oid:2.16.840.1.113883.2.51.999",
            "value": "6b525b36-2ca8-475f-b4f3-6a63a2049256"
          }
        ],
        "extension": [
          {
            "url": "http://hl7.org/fhir/5.0/StructureDefinition/extension-DiagnosticReport.composition",
            "valueReference": {
              "reference": "urn:uuid:de97edea-f984-4d4b-8a66-d1eec77c6826"
            }
          }
        ],
        "category": [
          {
            "coding": [
              {
                "code": "26436-6",
                "system": "http://loinc.org",
                "display": "Laboratory studies (set)"
              }
            ]
          }
        ],
        "specimen": [
          {
            "reference": "urn:uuid:dd414964-ce4c-4d4c-a4a3-b06f370efbcc"
          },
          {
            "reference": "urn:uuid:cc8c2c91-a222-4508-9072-0fe013f3ca6c"
          },
          {
            "reference": "urn:uuid:d099f8f9-e8de-42d9-85ba-ce450be0055b"
          }
        ],
        "result": [
          {
            "reference": "urn:uuid:da1ec494-cc50-4e87-8f70-33fe0ff9f129"
          },
          {
            "reference": "urn:uuid:86163fa8-67be-4350-bde9-79c9179b51cb"
          },
          {
            "reference": "urn:uuid:081afa3a-ad03-4378-91c0-13bd482a8e83"
          },
          {
            "reference": "urn:uuid:d3ae0afa-9b14-41cb-b88e-c128d5810d19"
          },
          {
            "reference": "urn:uuid:69209f93-75ed-4716-ad4c-0face176bb38"
          },
          {
            "reference": "urn:uuid:a355f03a-8438-4be8-9938-cc4aab0d11b0"
          },
          {
            "reference": "urn:uuid:43e8d301-b4ae-470a-8017-e3fe1fff328a"
          },
          {
            "reference": "urn:uuid:a1fa4541-e055-4c13-9823-5661705c0ae1"
          },
          {
            "reference": "urn:uuid:02f19f1e-c754-4e12-ae69-e67a3710f897"
          },
          {
            "reference": "urn:uuid:068e6f72-f2aa-4c6b-8df4-a053e1bc128a"
          },
          {
            "reference": "urn:uuid:1a6f3c96-1e3b-4ac2-a1a8-98eb405297a5"
          },
          {
            "reference": "urn:uuid:78116632-0dd5-49a7-8b99-f47ee1e2b5fa"
          },
          {
            "reference": "urn:uuid:17e6f5f9-8be4-4bbf-98b3-d56ec134b20a"
          },
          {
            "reference": "urn:uuid:d89464c0-7dbc-46a3-997d-f22d1df44d2f"
          },
          {
            "reference": "urn:uuid:e89d508a-c2fe-404f-98e0-c9617befe48f"
          },
          {
            "reference": "urn:uuid:0206e4c3-4336-4f8d-b115-d569325d0892"
          },
          {
            "reference": "urn:uuid:2548891a-f4aa-4f71-afcb-6769ae95cd69"
          },
          {
            "reference": "urn:uuid:b6d1e4fa-800a-43a2-bd36-e6f9fecde809"
          },
          {
            "reference": "urn:uuid:d0fd42e1-a117-434d-9d3a-c2a97cd810f8"
          },
          {
            "reference": "urn:uuid:6f55cf99-099e-41e0-87e5-e879a7c0a5a4"
          },
          {
            "reference": "urn:uuid:b4944052-6cbb-467c-a62a-34dce4f01d5d"
          },
          {
            "reference": "urn:uuid:d592da3d-21f1-46d9-b10c-33f2fe12d1f8"
          },
          {
            "reference": "urn:uuid:b0a7ebd0-9230-4f32-84d1-fea30089d667"
          },
          {
            "reference": "urn:uuid:c4a3ff5e-7d70-423f-a662-bcc1e7b6c1d7"
          },
          {
            "reference": "urn:uuid:fe80cb47-3413-4f58-be6b-2f01a9cb4170"
          },
          {
            "reference": "urn:uuid:4b7af367-e47c-4106-9dc4-9b8316c19bc1"
          }
        ],
        "status": "registered",
        "code": {
          "coding": [
            {
              "code": "11502-2",
              "system": "http://loinc.org",
              "display": "Laboratory report"
            }
          ]
        },
        "subject": {
          "reference": "urn:uuid:d01d4648-0df5-4d75-b5e0-75ebd60111cd",
          "display": "Meaghan Neary"
        }
      }
    },
    {
      "fullUrl": "urn:uuid:d01d4648-0df5-4d75-b5e0-75ebd60111cd",
      "resource": {
        "resourceType": "Patient",
        "id": "d01d4648-0df5-4d75-b5e0-75ebd60111cd",
        "meta": {
          "security": [
            {
              "system": "http://terminology.hl7.org/CodeSystem/v3-ActReason",
              "code": "HTEST"
            },
            {
              "system": "http://terminology.hl7.org/CodeSystem/v3-ActReason",
              "code": "TRAIN"
            }
          ],
          "tag": [
            {
              "system": "https://synderai.net/fhir/CodeSystem/tags",
              "code": "synthetic",
              "display": "SYNDERAI Synthetic data"
            }
          ],
          "profile": [
            "http://hl7.eu/fhir/base/StructureDefinition/patient-eu-core"
          ]
        },
        "identifier": [
          {
            "type": {
              "coding": [
                {
                  "code": "PT",
                  "system": "http://terminology.hl7.org/CodeSystem/v2-0203"
                }
              ]
            },
            "system": "http://ec.europa.eu/identifier/eci",
            "value": "1586-567257-8"
          },
          {
            "type": {
              "coding": [
                {
                  "code": "MR",
                  "system": "http://terminology.hl7.org/CodeSystem/v2-0203"
                }
              ]
            },
            "system": "http://local.setting.eu/identifier",
            "value": "443e6379-f231-b364-3ccb-644740a1aa2a"
          }
        ],
        "name": [
          {
            "family": "Neary"
          },
          {
            "given": [
              "Meaghan"
            ]
          },
          {
            "text": "Meaghan Neary"
          }
        ],
        "address": [
          {
            "line": [
              "64 Linskey Street"
            ],
            "use": "home",
            "type": "physical",
            "postalCode": "D02",
            "city": "Dublin",
            "country": "Ireland"
          }
        ],
        "telecom": [
          {
            "system": "phone",
            "value": "001-967-573-0911x465"
          }
        ],
        "extension": [
          {
            "url": "http://hl7.org/fhir/StructureDefinition/patient-nationality",
            "valueCodeableConcept": {
              "coding": [
                {
                  "code": "IE",
                  "system": "http://hl7.org/fhir/ValueSet/country"
                }
              ]
            }
          }
        ],
        "text": {
          "status": "generated",
          "div": "<div xmlns=\"http://www.w3.org/1999/xhtml\"><table class=\"hl7__ips\"><tr><td>Meaghan Neary</td><td>female</td><td>19-Dec-1960</td></tr></table></div>"
        },
        "gender": "female",
        "birthDate": "1960-12-19"
      }
    },
    {
      "fullUrl": "urn:uuid:ac98e96e-457b-4a9c-aad2-85e0c1442537",
      "resource": {
        "resourceType": "ServiceRequest",
        "id": "ac98e96e-457b-4a9c-aad2-85e0c1442537",
        "meta": {
          "profile": [
            "http://hl7.eu/fhir/laboratory/StructureDefinition/ServiceRequest-eu-lab"
          ]
        },
        "identifier": [
          {
            "system": "http://example.org",
            "value": "0826f661-a7fa-46d3-85b1-7eedb47ac025"
          }
        ],
        "specimen": [
          {
            "reference": "urn:uuid:dd414964-ce4c-4d4c-a4a3-b06f370efbcc"
          },
          {
            "reference": "urn:uuid:cc8c2c91-a222-4508-9072-0fe013f3ca6c"
          },
          {
            "reference": "urn:uuid:d099f8f9-e8de-42d9-85ba-ce450be0055b"
          }
        ],
        "reasonCode": [
          {
            "coding": [
              {
                "code": "55822004",
                "system": "http://snomed.info/sct",
                "display": "Hyperlipidemia"
              }
            ]
          },
          {
            "coding": [
              {
                "code": "433144002",
                "system": "http://snomed.info/sct",
                "display": "Chronic kidney disease stage 3"
              }
            ]
          },
          {
            "coding": [
              {
                "code": "157141000119108",
                "system": "http://snomed.info/sct",
                "display": "Proteinuria due to type 2 diabetes mellitus"
              }
            ]
          },
          {
            "coding": [
              {
                "code": "431856006",
                "system": "http://snomed.info/sct",
                "display": "Chronic kidney disease stage 2"
              }
            ]
          },
          {
            "coding": [
              {
                "code": "90781000119102",
                "system": "http://snomed.info/sct",
                "display": "Microalbuminuria due to type 2 diabetes mellitus"
              }
            ]
          },
          {
            "coding": [
              {
                "code": "127013003",
                "system": "http://snomed.info/sct",
                "display": "Disorder of kidney due to diabetes mellitus"
              }
            ]
          },
          {
            "coding": [
              {
                "code": "431855005",
                "system": "http://snomed.info/sct",
                "display": "Chronic kidney disease stage 1"
              }
            ]
          },
          {
            "coding": [
              {
                "code": "237602007",
                "system": "http://snomed.info/sct",
                "display": "Metabolic syndrome X"
              }
            ]
          },
          {
            "coding": [
              {
                "code": "271737000",
                "system": "http://snomed.info/sct",
                "display": "Anemia"
              }
            ]
          },
          {
            "coding": [
              {
                "code": "15777000",
                "system": "http://snomed.info/sct",
                "display": "Prediabetes"
              }
            ]
          },
          {
            "coding": [
              {
                "code": "59621000",
                "system": "http://snomed.info/sct",
                "display": "Essential hypertension"
              }
            ]
          }
        ],
        "status": "active",
        "intent": "order",
        "code": {
          "coding": [
            {
              "code": "108252007",
              "system": "http://snomed.info/sct",
              "display": "Laboratory procedure"
            }
          ]
        },
        "subject": {
          "reference": "urn:uuid:d01d4648-0df5-4d75-b5e0-75ebd60111cd",
          "display": "Meaghan Neary"
        },
        "requester": {
          "reference": "urn:uuid:4b4c10bc-164d-4f9c-8edc-65300b968423"
        }
      }
    },
    {
      "fullUrl": "urn:uuid:4b4c10bc-164d-4f9c-8edc-65300b968423",
      "resource": {
        "resourceType": "PractitionerRole",
        "id": "4b4c10bc-164d-4f9c-8edc-65300b968423",
        "meta": {
          "profile": [
            "http://hl7.eu/fhir/base/StructureDefinition/practitionerRole-eu"
          ]
        },
        "text": {
          "status": "generated",
          "div": "<div xmlns=\"http://www.w3.org/1999/xhtml\">Provider Role Id: 4b4c10bc-164d-4f9c-8edc-65300b968423</div>"
        },
        "organization": {
          "reference": "urn:uuid:16de4f7a-848c-4c6d-95fd-0b6f301b5bf7"
        }
      }
    },
    {
      "fullUrl": "urn:uuid:16de4f7a-848c-4c6d-95fd-0b6f301b5bf7",
      "resource": {
        "resourceType": "Organization",
        "id": "16de4f7a-848c-4c6d-95fd-0b6f301b5bf7",
        "meta": {
          "profile": [
            "http://hl7.eu/fhir/base/StructureDefinition/organization-eu"
          ]
        },
        "identifier": [
          {
            "assigner": {
              "display": "HL7 Europe"
            },
            "system": "urn:oid:2.16.840.1.113883.2.51.999",
            "value": "5320b3fc-a537-4ce1-a4c5-b82d327acb59"
          }
        ],
        "address": [
          {
            "line": [
              "Parnell Square West nan"
            ],
            "city": "Dublin",
            "postalCode": "D01",
            "country": "Ireland"
          }
        ],
        "text": {
          "status": "generated",
          "div": "<div xmlns=\"http://www.w3.org/1999/xhtml\">Provider Organization: Rotunda Hospital</div>"
        },
        "name": "Rotunda Hospital"
      }
    },
    {
      "fullUrl": "urn:uuid:dd414964-ce4c-4d4c-a4a3-b06f370efbcc",
      "resource": {
        "resourceType": "Specimen",
        "id": "dd414964-ce4c-4d4c-a4a3-b06f370efbcc",
        "meta": {
          "profile": [
            "http://hl7.eu/fhir/laboratory/StructureDefinition/Specimen-eu-lab"
          ]
        },
        "collection": {
          "collectedDateTime": "2022-07-25"
        },
        "text": {
          "status": "generated",
          "div": "<div xmlns=\"http://www.w3.org/1999/xhtml\"><table class=\"hl7__eu__lab__report\"><tr><th>Specimen</th><th>Collection Date</th></tr><tr><td>Acellular blood (serum or plasma) specimen</td><td><span class=\"nb\">25-Jul-2022</span></td></tr></table></div>"
        },
        "type": {
          "coding": [
            {
              "code": "122592007",
              "system": "http://snomed.info/sct",
              "display": "Acellular blood (serum or plasma) specimen"
            }
          ]
        }
      }
    },
    {
      "fullUrl": "urn:uuid:cc8c2c91-a222-4508-9072-0fe013f3ca6c",
      "resource": {
        "resourceType": "Specimen",
        "id": "cc8c2c91-a222-4508-9072-0fe013f3ca6c",
        "meta": {
          "profile": [
            "http://hl7.eu/fhir/laboratory/StructureDefinition/Specimen-eu-lab"
          ]
        },
        "collection": {
          "collectedDateTime": "2022-07-25"
        },
        "text": {
          "status": "generated",
          "div": "<div xmlns=\"http://www.w3.org/1999/xhtml\"><table class=\"hl7__eu__lab__report\"><tr><th>Specimen</th><th>Collection Date</th></tr><tr><td>Urine specimen</td><td><span class=\"nb\">25-Jul-2022</span></td></tr></table></div>"
        },
        "type": {
          "coding": [
            {
              "code": "122575003",
              "system": "http://snomed.info/sct",
              "display": "Urine specimen"
            }
          ]
        }
      }
    },
    {
      "fullUrl": "urn:uuid:d099f8f9-e8de-42d9-85ba-ce450be0055b",
      "resource": {
        "resourceType": "Specimen",
        "id": "d099f8f9-e8de-42d9-85ba-ce450be0055b",
        "meta": {
          "profile": [
            "http://hl7.eu/fhir/laboratory/StructureDefinition/Specimen-eu-lab"
          ]
        },
        "collection": {
          "collectedDateTime": "2022-07-25"
        },
        "text": {
          "status": "generated",
          "div": "<div xmlns=\"http://www.w3.org/1999/xhtml\"><table class=\"hl7__eu__lab__report\"><tr><th>Specimen</th><th>Collection Date</th></tr><tr><td>Whole blood specimen (specimen)</td><td><span class=\"nb\">25-Jul-2022</span></td></tr></table></div>"
        },
        "type": {
          "coding": [
            {
              "code": "258580003",
              "system": "http://snomed.info/sct",
              "display": "Whole blood specimen (specimen)"
            }
          ]
        }
      }
    },
    {
      "fullUrl": "urn:uuid:da1ec494-cc50-4e87-8f70-33fe0ff9f129",
      "resource": {
        "resourceType": "Observation",
        "id": "da1ec494-cc50-4e87-8f70-33fe0ff9f129",
        "meta": {
          "profile": [
            "http://hl7.eu/fhir/laboratory/StructureDefinition/Observation-resultslab-eu-lab"
          ]
        },
        "performer": [
          {
            "display": "The Central European Lab"
          }
        ],
        "category": [
          {
            "coding": [
              {
                "system": "http://terminology.hl7.org/CodeSystem/observation-category",
                "code": "laboratory"
              }
            ]
          }
        ],
        "code": {
          "coding": [
            {
              "code": "2345-7",
              "system": "http://loinc.org",
              "display": "Glucose [Mass/volume] in Serum or Plasma"
            }
          ],
          "text": "Glucose [Mass/volume] in Serum or Plasma"
        },
        "valueQuantity": {
          "system": "http://unitsofmeasure.org",
          "value": 74.4,
          "unit": "mg/dL",
          "code": "mg/dL"
        },
        "referenceRange": [
          {
            "low": {
              "value": 70,
              "code": "mg/dL",
              "system": "http://unitsofmeasure.org"
            }
          },
          {
            "high": {
              "value": 99,
              "code": "mg/dL",
              "system": "http://unitsofmeasure.org"
            }
          }
        ],
        "text": {
          "status": "generated",
          "div": "<div xmlns=\"http://www.w3.org/1999/xhtml\"><table class=\"hl7__eu__lab__report\"><tr><th>Test</th><th>26-Jul-2022</th><th>Reference&#xA0;Range</th><th>Unit</th></tr><tr><td>Glucose [Mass/volume] in Serum or Plasma</td><td>74.4</td><td>70 - 99</td><td></td><td>mg/dL</td></tr></table></div>"
        },
        "status": "final",
        "subject": {
          "reference": "urn:uuid:d01d4648-0df5-4d75-b5e0-75ebd60111cd",
          "display": "Meaghan Neary"
        },
        "effectiveDateTime": "2022-07-25T22:11:04Z",
        "specimen": {
          "reference": "urn:uuid:dd414964-ce4c-4d4c-a4a3-b06f370efbcc"
        }
      }
    },
    {
      "fullUrl": "urn:uuid:86163fa8-67be-4350-bde9-79c9179b51cb",
      "resource": {
        "resourceType": "Observation",
        "id": "86163fa8-67be-4350-bde9-79c9179b51cb",
        "meta": {
          "profile": [
            "http://hl7.eu/fhir/laboratory/StructureDefinition/Observation-resultslab-eu-lab"
          ]
        },
        "performer": [
          {
            "display": "The Central European Lab"
          }
        ],
        "category": [
          {
            "coding": [
              {
                "system": "http://terminology.hl7.org/CodeSystem/observation-category",
                "code": "laboratory"
              }
            ]
          }
        ],
        "code": {
          "coding": [
            {
              "code": "3094-0",
              "system": "http://loinc.org",
              "display": "Urea nitrogen [Mass/volume] in Serum or Plasma"
            }
          ],
          "text": "Urea nitrogen [Mass/volume] in Serum or Plasma"
        },
        "valueQuantity": {
          "system": "http://unitsofmeasure.org",
          "value": 10.3,
          "unit": "mg/dL",
          "code": "mg/dL"
        },
        "referenceRange": [
          {
            "low": {
              "value": 7,
              "code": "mg/dL",
              "system": "http://unitsofmeasure.org"
            }
          },
          {
            "high": {
              "value": 50,
              "code": "mg/dL",
              "system": "http://unitsofmeasure.org"
            }
          }
        ],
        "text": {
          "status": "generated",
          "div": "<div xmlns=\"http://www.w3.org/1999/xhtml\"><table class=\"hl7__eu__lab__report\"><tr><th>Test</th><th>26-Jul-2022</th><th>Reference&#xA0;Range</th><th>Unit</th></tr><tr><td>Urea nitrogen [Mass/volume] in Serum or Plasma</td><td>10.3</td><td>7 - 50</td><td></td><td>mg/dL</td></tr></table></div>"
        },
        "status": "final",
        "subject": {
          "reference": "urn:uuid:d01d4648-0df5-4d75-b5e0-75ebd60111cd",
          "display": "Meaghan Neary"
        },
        "effectiveDateTime": "2022-07-25T22:11:04Z",
        "specimen": {
          "reference": "urn:uuid:dd414964-ce4c-4d4c-a4a3-b06f370efbcc"
        }
      }
    },
    {
      "fullUrl": "urn:uuid:081afa3a-ad03-4378-91c0-13bd482a8e83",
      "resource": {
        "resourceType": "Observation",
        "id": "081afa3a-ad03-4378-91c0-13bd482a8e83",
        "meta": {
          "profile": [
            "http://hl7.eu/fhir/laboratory/StructureDefinition/Observation-resultslab-eu-lab"
          ]
        },
        "performer": [
          {
            "display": "The Central European Lab"
          }
        ],
        "category": [
          {
            "coding": [
              {
                "system": "http://terminology.hl7.org/CodeSystem/observation-category",
                "code": "laboratory"
              }
            ]
          }
        ],
        "code": {
          "coding": [
            {
              "code": "2160-0",
              "system": "http://loinc.org",
              "display": "Creatinine [Mass/volume] in Serum or Plasma"
            }
          ],
          "text": "Creatinine [Mass/volume] in Serum or Plasma"
        },
        "valueQuantity": {
          "system": "http://unitsofmeasure.org",
          "value": 2,
          "unit": "mg/dL",
          "code": "mg/dL"
        },
        "referenceRange": [
          {
            "low": {
              "value": 0.6,
              "code": "mg/dL",
              "system": "http://unitsofmeasure.org"
            }
          },
          {
            "high": {
              "value": 1.1,
              "code": "mg/dL",
              "system": "http://unitsofmeasure.org"
            }
          }
        ],
        "interpretation": [
          {
            "coding": [
              {
                "code": "H",
                "system": "http://terminology.hl7.org/CodeSystem/v3-ObservationInterpretation",
                "display": "High"
              }
            ]
          }
        ],
        "text": {
          "status": "generated",
          "div": "<div xmlns=\"http://www.w3.org/1999/xhtml\"><table class=\"hl7__eu__lab__report\"><tr><th>Test</th><th>26-Jul-2022</th><th>Reference&#xA0;Range</th><th>Unit</th></tr><tr><td>Creatinine [Mass/volume] in Serum or Plasma</td><td>2.0</td><td>0.6 - 1.1</td><td>H</td><td>mg/dL</td></tr></table></div>"
        },
        "status": "final",
        "subject": {
          "reference": "urn:uuid:d01d4648-0df5-4d75-b5e0-75ebd60111cd",
          "display": "Meaghan Neary"
        },
        "effectiveDateTime": "2022-07-25T22:11:04Z",
        "specimen": {
          "reference": "urn:uuid:dd414964-ce4c-4d4c-a4a3-b06f370efbcc"
        }
      }
    },
    {
      "fullUrl": "urn:uuid:d3ae0afa-9b14-41cb-b88e-c128d5810d19",
      "resource": {
        "resourceType": "Observation",
        "id": "d3ae0afa-9b14-41cb-b88e-c128d5810d19",
        "meta": {
          "profile": [
            "http://hl7.eu/fhir/laboratory/StructureDefinition/Observation-resultslab-eu-lab"
          ]
        },
        "performer": [
          {
            "display": "The Central European Lab"
          }
        ],
        "category": [
          {
            "coding": [
              {
                "system": "http://terminology.hl7.org/CodeSystem/observation-category",
                "code": "laboratory"
              }
            ]
          }
        ],
        "code": {
          "coding": [
            {
              "code": "17861-6",
              "system": "http://loinc.org",
              "display": "Calcium [Mass/volume] in Serum or Plasma"
            }
          ],
          "text": "Calcium [Mass/volume] in Serum or Plasma"
        },
        "valueQuantity": {
          "system": "http://unitsofmeasure.org",
          "value": 10.2,
          "unit": "mg/dL",
          "code": "mg/dL"
        },
        "referenceRange": [
          {
            "low": {
              "value": 8.6,
              "code": "mg/dL",
              "system": "http://unitsofmeasure.org"
            }
          },
          {
            "high": {
              "value": 10.4,
              "code": "mg/dL",
              "system": "http://unitsofmeasure.org"
            }
          }
        ],
        "text": {
          "status": "generated",
          "div": "<div xmlns=\"http://www.w3.org/1999/xhtml\"><table class=\"hl7__eu__lab__report\"><tr><th>Test</th><th>26-Jul-2022</th><th>Reference&#xA0;Range</th><th>Unit</th></tr><tr><td>Calcium [Mass/volume] in Serum or Plasma</td><td>10.2</td><td>8.6 - 10.4</td><td></td><td>mg/dL</td></tr></table></div>"
        },
        "status": "final",
        "subject": {
          "reference": "urn:uuid:d01d4648-0df5-4d75-b5e0-75ebd60111cd",
          "display": "Meaghan Neary"
        },
        "effectiveDateTime": "2022-07-25T22:11:04Z",
        "specimen": {
          "reference": "urn:uuid:dd414964-ce4c-4d4c-a4a3-b06f370efbcc"
        }
      }
    },
    {
      "fullUrl": "urn:uuid:69209f93-75ed-4716-ad4c-0face176bb38",
      "resource": {
        "resourceType": "Observation",
        "id": "69209f93-75ed-4716-ad4c-0face176bb38",
        "meta": {
          "profile": [
            "http://hl7.eu/fhir/laboratory/StructureDefinition/Observation-resultslab-eu-lab"
          ]
        },
        "performer": [
          {
            "display": "The Central European Lab"
          }
        ],
        "category": [
          {
            "coding": [
              {
                "system": "http://terminology.hl7.org/CodeSystem/observation-category",
                "code": "laboratory"
              }
            ]
          }
        ],
        "code": {
          "coding": [
            {
              "code": "2951-2",
              "system": "http://loinc.org",
              "display": "Sodium [Moles/volume] in Serum or Plasma"
            }
          ],
          "text": "Sodium [Moles/volume] in Serum or Plasma"
        },
        "valueQuantity": {
          "system": "http://unitsofmeasure.org",
          "value": 142,
          "unit": "mmol/L",
          "code": "mmol/L"
        },
        "referenceRange": [
          {
            "low": {
              "value": 135,
              "code": "mmol/L",
              "system": "http://unitsofmeasure.org"
            }
          },
          {
            "high": {
              "value": 145,
              "code": "mmol/L",
              "system": "http://unitsofmeasure.org"
            }
          }
        ],
        "text": {
          "status": "generated",
          "div": "<div xmlns=\"http://www.w3.org/1999/xhtml\"><table class=\"hl7__eu__lab__report\"><tr><th>Test</th><th>26-Jul-2022</th><th>Reference&#xA0;Range</th><th>Unit</th></tr><tr><td>Sodium [Moles/volume] in Serum or Plasma</td><td>142.0</td><td>135 - 145</td><td></td><td>mmol/L</td></tr></table></div>"
        },
        "status": "final",
        "subject": {
          "reference": "urn:uuid:d01d4648-0df5-4d75-b5e0-75ebd60111cd",
          "display": "Meaghan Neary"
        },
        "effectiveDateTime": "2022-07-25T22:11:04Z",
        "specimen": {
          "reference": "urn:uuid:dd414964-ce4c-4d4c-a4a3-b06f370efbcc"
        }
      }
    },
    {
      "fullUrl": "urn:uuid:a355f03a-8438-4be8-9938-cc4aab0d11b0",
      "resource": {
        "resourceType": "Observation",
        "id": "a355f03a-8438-4be8-9938-cc4aab0d11b0",
        "meta": {
          "profile": [
            "http://hl7.eu/fhir/laboratory/StructureDefinition/Observation-resultslab-eu-lab"
          ]
        },
        "performer": [
          {
            "display": "The Central European Lab"
          }
        ],
        "category": [
          {
            "coding": [
              {
                "system": "http://terminology.hl7.org/CodeSystem/observation-category",
                "code": "laboratory"
              }
            ]
          }
        ],
        "code": {
          "coding": [
            {
              "code": "2823-3",
              "system": "http://loinc.org",
              "display": "Potassium [Moles/volume] in Serum or Plasma"
            }
          ],
          "text": "Potassium [Moles/volume] in Serum or Plasma"
        },
        "valueQuantity": {
          "system": "http://unitsofmeasure.org",
          "value": 3.8,
          "unit": "mmol/L",
          "code": "mmol/L"
        },
        "referenceRange": [
          {
            "low": {
              "value": 3.5,
              "code": "mmol/L",
              "system": "http://unitsofmeasure.org"
            }
          },
          {
            "high": {
              "value": 5.1,
              "code": "mmol/L",
              "system": "http://unitsofmeasure.org"
            }
          }
        ],
        "text": {
          "status": "generated",
          "div": "<div xmlns=\"http://www.w3.org/1999/xhtml\"><table class=\"hl7__eu__lab__report\"><tr><th>Test</th><th>26-Jul-2022</th><th>Reference&#xA0;Range</th><th>Unit</th></tr><tr><td>Potassium [Moles/volume] in Serum or Plasma</td><td>3.8</td><td>3.5 - 5.1</td><td></td><td>mmol/L</td></tr></table></div>"
        },
        "status": "final",
        "subject": {
          "reference": "urn:uuid:d01d4648-0df5-4d75-b5e0-75ebd60111cd",
          "display": "Meaghan Neary"
        },
        "effectiveDateTime": "2022-07-25T22:11:04Z",
        "specimen": {
          "reference": "urn:uuid:dd414964-ce4c-4d4c-a4a3-b06f370efbcc"
        }
      }
    },
    {
      "fullUrl": "urn:uuid:43e8d301-b4ae-470a-8017-e3fe1fff328a",
      "resource": {
        "resourceType": "Observation",
        "id": "43e8d301-b4ae-470a-8017-e3fe1fff328a",
        "meta": {
          "profile": [
            "http://hl7.eu/fhir/laboratory/StructureDefinition/Observation-resultslab-eu-lab"
          ]
        },
        "performer": [
          {
            "display": "The Central European Lab"
          }
        ],
        "category": [
          {
            "coding": [
              {
                "system": "http://terminology.hl7.org/CodeSystem/observation-category",
                "code": "laboratory"
              }
            ]
          }
        ],
        "code": {
          "coding": [
            {
              "code": "2075-0",
              "system": "http://loinc.org",
              "display": "Chloride [Moles/volume] in Serum or Plasma"
            }
          ],
          "text": "Chloride [Moles/volume] in Serum or Plasma"
        },
        "valueQuantity": {
          "system": "http://unitsofmeasure.org",
          "value": 106.6,
          "unit": "mmol/L",
          "code": "mmol/L"
        },
        "referenceRange": [
          {
            "low": {
              "value": 98,
              "code": "mmol/L",
              "system": "http://unitsofmeasure.org"
            }
          },
          {
            "high": {
              "value": 108,
              "code": "mmol/L",
              "system": "http://unitsofmeasure.org"
            }
          }
        ],
        "text": {
          "status": "generated",
          "div": "<div xmlns=\"http://www.w3.org/1999/xhtml\"><table class=\"hl7__eu__lab__report\"><tr><th>Test</th><th>26-Jul-2022</th><th>Reference&#xA0;Range</th><th>Unit</th></tr><tr><td>Chloride [Moles/volume] in Serum or Plasma</td><td>106.6</td><td>98 - 108</td><td></td><td>mmol/L</td></tr></table></div>"
        },
        "status": "final",
        "subject": {
          "reference": "urn:uuid:d01d4648-0df5-4d75-b5e0-75ebd60111cd",
          "display": "Meaghan Neary"
        },
        "effectiveDateTime": "2022-07-25T22:11:04Z",
        "specimen": {
          "reference": "urn:uuid:dd414964-ce4c-4d4c-a4a3-b06f370efbcc"
        }
      }
    },
    {
      "fullUrl": "urn:uuid:a1fa4541-e055-4c13-9823-5661705c0ae1",
      "resource": {
        "resourceType": "Observation",
        "id": "a1fa4541-e055-4c13-9823-5661705c0ae1",
        "meta": {
          "profile": [
            "http://hl7.eu/fhir/laboratory/StructureDefinition/Observation-resultslab-eu-lab"
          ]
        },
        "performer": [
          {
            "display": "The Central European Lab"
          }
        ],
        "category": [
          {
            "coding": [
              {
                "system": "http://terminology.hl7.org/CodeSystem/observation-category",
                "code": "laboratory"
              }
            ]
          }
        ],
        "code": {
          "coding": [
            {
              "code": "2028-9",
              "system": "http://loinc.org",
              "display": "Carbon dioxide, total [Moles/volume] in Serum or Plasma"
            }
          ],
          "text": "Carbon dioxide, total [Moles/volume] in Serum or Plasma"
        },
        "valueQuantity": {
          "system": "http://unitsofmeasure.org",
          "value": 24.8,
          "unit": "mmol/L",
          "code": "mmol/L"
        },
        "referenceRange": [
          {
            "low": {
              "value": 22,
              "code": "mmol/L",
              "system": "http://unitsofmeasure.org"
            }
          },
          {
            "high": {
              "value": 32,
              "code": "mmol/L",
              "system": "http://unitsofmeasure.org"
            }
          }
        ],
        "text": {
          "status": "generated",
          "div": "<div xmlns=\"http://www.w3.org/1999/xhtml\"><table class=\"hl7__eu__lab__report\"><tr><th>Test</th><th>26-Jul-2022</th><th>Reference&#xA0;Range</th><th>Unit</th></tr><tr><td>Carbon dioxide, total [Moles/volume] in Serum or Plasma</td><td>24.8</td><td>22 - 32</td><td></td><td>mmol/L</td></tr></table></div>"
        },
        "status": "final",
        "subject": {
          "reference": "urn:uuid:d01d4648-0df5-4d75-b5e0-75ebd60111cd",
          "display": "Meaghan Neary"
        },
        "effectiveDateTime": "2022-07-25T22:11:04Z",
        "specimen": {
          "reference": "urn:uuid:dd414964-ce4c-4d4c-a4a3-b06f370efbcc"
        }
      }
    },
    {
      "fullUrl": "urn:uuid:02f19f1e-c754-4e12-ae69-e67a3710f897",
      "resource": {
        "resourceType": "Observation",
        "id": "02f19f1e-c754-4e12-ae69-e67a3710f897",
        "meta": {
          "profile": [
            "http://hl7.eu/fhir/laboratory/StructureDefinition/Observation-resultslab-eu-lab"
          ]
        },
        "performer": [
          {
            "display": "The Central European Lab"
          }
        ],
        "category": [
          {
            "coding": [
              {
                "system": "http://terminology.hl7.org/CodeSystem/observation-category",
                "code": "laboratory"
              }
            ]
          }
        ],
        "code": {
          "coding": [
            {
              "code": "5767-9",
              "system": "http://loinc.org",
              "display": "Appearance of Urine"
            }
          ],
          "text": "Appearance of Urine"
        },
        "text": {
          "status": "generated",
          "div": "<div xmlns=\"http://www.w3.org/1999/xhtml\"><table class=\"hl7__eu__lab__report\"><tr><th>Test</th><th>26-Jul-2022</th><th>Reference&#xA0;Range</th><th>Unit</th></tr><tr><td>Appearance of Urine</td></tr></table></div>"
        },
        "status": "final",
        "subject": {
          "reference": "urn:uuid:d01d4648-0df5-4d75-b5e0-75ebd60111cd",
          "display": "Meaghan Neary"
        },
        "effectiveDateTime": "2022-07-25T22:11:04Z",
        "specimen": {
          "reference": "urn:uuid:cc8c2c91-a222-4508-9072-0fe013f3ca6c"
        }
      }
    },
    {
      "fullUrl": "urn:uuid:068e6f72-f2aa-4c6b-8df4-a053e1bc128a",
      "resource": {
        "resourceType": "Observation",
        "id": "068e6f72-f2aa-4c6b-8df4-a053e1bc128a",
        "meta": {
          "profile": [
            "http://hl7.eu/fhir/laboratory/StructureDefinition/Observation-resultslab-eu-lab"
          ]
        },
        "performer": [
          {
            "display": "The Central European Lab"
          }
        ],
        "category": [
          {
            "coding": [
              {
                "system": "http://terminology.hl7.org/CodeSystem/observation-category",
                "code": "laboratory"
              }
            ]
          }
        ],
        "code": {
          "coding": [
            {
              "code": "34533-0",
              "system": "http://loinc.org",
              "display": "Odor of Urine"
            }
          ],
          "text": "Odor of Urine"
        },
        "text": {
          "status": "generated",
          "div": "<div xmlns=\"http://www.w3.org/1999/xhtml\"><table class=\"hl7__eu__lab__report\"><tr><th>Test</th><th>26-Jul-2022</th><th>Reference&#xA0;Range</th><th>Unit</th></tr><tr><td>Odor of Urine</td></tr></table></div>"
        },
        "status": "final",
        "subject": {
          "reference": "urn:uuid:d01d4648-0df5-4d75-b5e0-75ebd60111cd",
          "display": "Meaghan Neary"
        },
        "effectiveDateTime": "2022-07-25T22:11:04Z",
        "specimen": {
          "reference": "urn:uuid:cc8c2c91-a222-4508-9072-0fe013f3ca6c"
        }
      }
    },
    {
      "fullUrl": "urn:uuid:1a6f3c96-1e3b-4ac2-a1a8-98eb405297a5",
      "resource": {
        "resourceType": "Observation",
        "id": "1a6f3c96-1e3b-4ac2-a1a8-98eb405297a5",
        "meta": {
          "profile": [
            "http://hl7.eu/fhir/laboratory/StructureDefinition/Observation-resultslab-eu-lab"
          ]
        },
        "performer": [
          {
            "display": "The Central European Lab"
          }
        ],
        "category": [
          {
            "coding": [
              {
                "system": "http://terminology.hl7.org/CodeSystem/observation-category",
                "code": "laboratory"
              }
            ]
          }
        ],
        "code": {
          "coding": [
            {
              "code": "32167-9",
              "system": "http://loinc.org",
              "display": "Clarity of Urine"
            }
          ],
          "text": "Clarity of Urine"
        },
        "text": {
          "status": "generated",
          "div": "<div xmlns=\"http://www.w3.org/1999/xhtml\"><table class=\"hl7__eu__lab__report\"><tr><th>Test</th><th>26-Jul-2022</th><th>Reference&#xA0;Range</th><th>Unit</th></tr><tr><td>Clarity of Urine</td></tr></table></div>"
        },
        "status": "final",
        "subject": {
          "reference": "urn:uuid:d01d4648-0df5-4d75-b5e0-75ebd60111cd",
          "display": "Meaghan Neary"
        },
        "effectiveDateTime": "2022-07-25T22:11:04Z",
        "specimen": {
          "reference": "urn:uuid:cc8c2c91-a222-4508-9072-0fe013f3ca6c"
        }
      }
    },
    {
      "fullUrl": "urn:uuid:78116632-0dd5-49a7-8b99-f47ee1e2b5fa",
      "resource": {
        "resourceType": "Observation",
        "id": "78116632-0dd5-49a7-8b99-f47ee1e2b5fa",
        "meta": {
          "profile": [
            "http://hl7.eu/fhir/laboratory/StructureDefinition/Observation-resultslab-eu-lab"
          ]
        },
        "performer": [
          {
            "display": "The Central European Lab"
          }
        ],
        "category": [
          {
            "coding": [
              {
                "system": "http://terminology.hl7.org/CodeSystem/observation-category",
                "code": "laboratory"
              }
            ]
          }
        ],
        "code": {
          "coding": [
            {
              "code": "5778-6",
              "system": "http://loinc.org",
              "display": "Color of Urine"
            }
          ],
          "text": "Color of Urine"
        },
        "text": {
          "status": "generated",
          "div": "<div xmlns=\"http://www.w3.org/1999/xhtml\"><table class=\"hl7__eu__lab__report\"><tr><th>Test</th><th>26-Jul-2022</th><th>Reference&#xA0;Range</th><th>Unit</th></tr><tr><td>Color of Urine</td></tr></table></div>"
        },
        "status": "final",
        "subject": {
          "reference": "urn:uuid:d01d4648-0df5-4d75-b5e0-75ebd60111cd",
          "display": "Meaghan Neary"
        },
        "effectiveDateTime": "2022-07-25T22:11:04Z",
        "specimen": {
          "reference": "urn:uuid:cc8c2c91-a222-4508-9072-0fe013f3ca6c"
        }
      }
    },
    {
      "fullUrl": "urn:uuid:17e6f5f9-8be4-4bbf-98b3-d56ec134b20a",
      "resource": {
        "resourceType": "Observation",
        "id": "17e6f5f9-8be4-4bbf-98b3-d56ec134b20a",
        "meta": {
          "profile": [
            "http://hl7.eu/fhir/laboratory/StructureDefinition/Observation-resultslab-eu-lab"
          ]
        },
        "performer": [
          {
            "display": "The Central European Lab"
          }
        ],
        "category": [
          {
            "coding": [
              {
                "system": "http://terminology.hl7.org/CodeSystem/observation-category",
                "code": "laboratory"
              }
            ]
          }
        ],
        "code": {
          "coding": [
            {
              "code": "5792-7",
              "system": "http://loinc.org",
              "display": "Glucose [Mass/volume] in Urine by Test strip"
            }
          ],
          "text": "Glucose [Mass/volume] in Urine by Test strip"
        },
        "valueQuantity": {
          "system": "http://unitsofmeasure.org",
          "value": 1.4,
          "unit": "mg/dL",
          "code": "mg/dL"
        },
        "referenceRange": [
          {
            "low": {
              "value": 0.8,
              "code": "mg/dL",
              "system": "http://unitsofmeasure.org"
            }
          },
          {
            "high": {
              "value": 0,
              "code": "mg/dL",
              "system": "http://unitsofmeasure.org"
            }
          }
        ],
        "interpretation": [
          {
            "coding": [
              {
                "code": "H",
                "system": "http://terminology.hl7.org/CodeSystem/v3-ObservationInterpretation",
                "display": "High"
              }
            ]
          }
        ],
        "text": {
          "status": "generated",
          "div": "<div xmlns=\"http://www.w3.org/1999/xhtml\"><table class=\"hl7__eu__lab__report\"><tr><th>Test</th><th>26-Jul-2022</th><th>Reference&#xA0;Range</th><th>Unit</th></tr><tr><td>Glucose [Mass/volume] in Urine by Test strip</td><td>1.4</td><td>0.8 - 0</td><td>H</td><td>mg/dL</td></tr></table></div>"
        },
        "status": "final",
        "subject": {
          "reference": "urn:uuid:d01d4648-0df5-4d75-b5e0-75ebd60111cd",
          "display": "Meaghan Neary"
        },
        "effectiveDateTime": "2022-07-25T22:11:04Z",
        "specimen": {
          "reference": "urn:uuid:cc8c2c91-a222-4508-9072-0fe013f3ca6c"
        }
      }
    },
    {
      "fullUrl": "urn:uuid:d89464c0-7dbc-46a3-997d-f22d1df44d2f",
      "resource": {
        "resourceType": "Observation",
        "id": "d89464c0-7dbc-46a3-997d-f22d1df44d2f",
        "meta": {
          "profile": [
            "http://hl7.eu/fhir/laboratory/StructureDefinition/Observation-resultslab-eu-lab"
          ]
        },
        "performer": [
          {
            "display": "The Central European Lab"
          }
        ],
        "category": [
          {
            "coding": [
              {
                "system": "http://terminology.hl7.org/CodeSystem/observation-category",
                "code": "laboratory"
              }
            ]
          }
        ],
        "code": {
          "coding": [
            {
              "code": "25428-4",
              "system": "http://loinc.org",
              "display": "Glucose [Presence] in Urine by Test strip"
            }
          ],
          "text": "Glucose [Presence] in Urine by Test strip"
        },
        "text": {
          "status": "generated",
          "div": "<div xmlns=\"http://www.w3.org/1999/xhtml\"><table class=\"hl7__eu__lab__report\"><tr><th>Test</th><th>26-Jul-2022</th><th>Reference&#xA0;Range</th><th>Unit</th></tr><tr><td>Glucose [Presence] in Urine by Test strip</td></tr></table></div>"
        },
        "status": "final",
        "subject": {
          "reference": "urn:uuid:d01d4648-0df5-4d75-b5e0-75ebd60111cd",
          "display": "Meaghan Neary"
        },
        "effectiveDateTime": "2022-07-25T22:11:04Z",
        "specimen": {
          "reference": "urn:uuid:cc8c2c91-a222-4508-9072-0fe013f3ca6c"
        }
      }
    },
    {
      "fullUrl": "urn:uuid:e89d508a-c2fe-404f-98e0-c9617befe48f",
      "resource": {
        "resourceType": "Observation",
        "id": "e89d508a-c2fe-404f-98e0-c9617befe48f",
        "meta": {
          "profile": [
            "http://hl7.eu/fhir/laboratory/StructureDefinition/Observation-resultslab-eu-lab"
          ]
        },
        "performer": [
          {
            "display": "The Central European Lab"
          }
        ],
        "category": [
          {
            "coding": [
              {
                "system": "http://terminology.hl7.org/CodeSystem/observation-category",
                "code": "laboratory"
              }
            ]
          }
        ],
        "code": {
          "coding": [
            {
              "code": "20505-4",
              "system": "http://loinc.org",
              "display": "Bilirubin.total [Mass/volume] in Urine by Test strip"
            }
          ],
          "text": "Bilirubin.total [Mass/volume] in Urine by Test strip"
        },
        "valueQuantity": {
          "system": "http://unitsofmeasure.org",
          "value": 1.4,
          "unit": "mg/dL",
          "code": "mg/dL"
        },
        "referenceRange": [
          {
            "low": {
              "value": 0,
              "code": "mg/dL",
              "system": "http://unitsofmeasure.org"
            }
          },
          {
            "high": {
              "value": 1,
              "code": "mg/dL",
              "system": "http://unitsofmeasure.org"
            }
          }
        ],
        "interpretation": [
          {
            "coding": [
              {
                "code": "H",
                "system": "http://terminology.hl7.org/CodeSystem/v3-ObservationInterpretation",
                "display": "High"
              }
            ]
          }
        ],
        "text": {
          "status": "generated",
          "div": "<div xmlns=\"http://www.w3.org/1999/xhtml\"><table class=\"hl7__eu__lab__report\"><tr><th>Test</th><th>26-Jul-2022</th><th>Reference&#xA0;Range</th><th>Unit</th></tr><tr><td>Bilirubin.total [Mass/volume] in Urine by Test strip</td><td>1.4</td><td>0 - 1</td><td>H</td><td>mg/dL</td></tr></table></div>"
        },
        "status": "final",
        "subject": {
          "reference": "urn:uuid:d01d4648-0df5-4d75-b5e0-75ebd60111cd",
          "display": "Meaghan Neary"
        },
        "effectiveDateTime": "2022-07-25T22:11:04Z",
        "specimen": {
          "reference": "urn:uuid:cc8c2c91-a222-4508-9072-0fe013f3ca6c"
        }
      }
    },
    {
      "fullUrl": "urn:uuid:0206e4c3-4336-4f8d-b115-d569325d0892",
      "resource": {
        "resourceType": "Observation",
        "id": "0206e4c3-4336-4f8d-b115-d569325d0892",
        "meta": {
          "profile": [
            "http://hl7.eu/fhir/laboratory/StructureDefinition/Observation-resultslab-eu-lab"
          ]
        },
        "performer": [
          {
            "display": "The Central European Lab"
          }
        ],
        "category": [
          {
            "coding": [
              {
                "system": "http://terminology.hl7.org/CodeSystem/observation-category",
                "code": "laboratory"
              }
            ]
          }
        ],
        "code": {
          "coding": [
            {
              "code": "5770-3",
              "system": "http://loinc.org",
              "display": "Bilirubin.total [Presence] in Urine by Test strip"
            }
          ],
          "text": "Bilirubin.total [Presence] in Urine by Test strip"
        },
        "text": {
          "status": "generated",
          "div": "<div xmlns=\"http://www.w3.org/1999/xhtml\"><table class=\"hl7__eu__lab__report\"><tr><th>Test</th><th>26-Jul-2022</th><th>Reference&#xA0;Range</th><th>Unit</th></tr><tr><td>Bilirubin.total [Presence] in Urine by Test strip</td></tr></table></div>"
        },
        "status": "final",
        "subject": {
          "reference": "urn:uuid:d01d4648-0df5-4d75-b5e0-75ebd60111cd",
          "display": "Meaghan Neary"
        },
        "effectiveDateTime": "2022-07-25T22:11:04Z",
        "specimen": {
          "reference": "urn:uuid:cc8c2c91-a222-4508-9072-0fe013f3ca6c"
        }
      }
    },
    {
      "fullUrl": "urn:uuid:2548891a-f4aa-4f71-afcb-6769ae95cd69",
      "resource": {
        "resourceType": "Observation",
        "id": "2548891a-f4aa-4f71-afcb-6769ae95cd69",
        "meta": {
          "profile": [
            "http://hl7.eu/fhir/laboratory/StructureDefinition/Observation-resultslab-eu-lab"
          ]
        },
        "performer": [
          {
            "display": "The Central European Lab"
          }
        ],
        "category": [
          {
            "coding": [
              {
                "system": "http://terminology.hl7.org/CodeSystem/observation-category",
                "code": "laboratory"
              }
            ]
          }
        ],
        "code": {
          "coding": [
            {
              "code": "5797-6",
              "system": "http://loinc.org",
              "display": "Ketones [Mass/volume] in Urine by Test strip"
            }
          ],
          "text": "Ketones [Mass/volume] in Urine by Test strip"
        },
        "valueQuantity": {
          "system": "http://unitsofmeasure.org",
          "value": 17,
          "unit": "mg/dL",
          "code": "mg/dL"
        },
        "referenceRange": [
          {
            "low": {
              "value": 0,
              "code": "mg/dL",
              "system": "http://unitsofmeasure.org"
            }
          },
          {
            "high": {
              "value": 4,
              "code": "mg/dL",
              "system": "http://unitsofmeasure.org"
            }
          }
        ],
        "interpretation": [
          {
            "coding": [
              {
                "code": "H",
                "system": "http://terminology.hl7.org/CodeSystem/v3-ObservationInterpretation",
                "display": "High"
              }
            ]
          }
        ],
        "text": {
          "status": "generated",
          "div": "<div xmlns=\"http://www.w3.org/1999/xhtml\"><table class=\"hl7__eu__lab__report\"><tr><th>Test</th><th>26-Jul-2022</th><th>Reference&#xA0;Range</th><th>Unit</th></tr><tr><td>Ketones [Mass/volume] in Urine by Test strip</td><td>17.0</td><td>0 - 4</td><td>H</td><td>mg/dL</td></tr></table></div>"
        },
        "status": "final",
        "subject": {
          "reference": "urn:uuid:d01d4648-0df5-4d75-b5e0-75ebd60111cd",
          "display": "Meaghan Neary"
        },
        "effectiveDateTime": "2022-07-25T22:11:04Z",
        "specimen": {
          "reference": "urn:uuid:cc8c2c91-a222-4508-9072-0fe013f3ca6c"
        }
      }
    },
    {
      "fullUrl": "urn:uuid:b6d1e4fa-800a-43a2-bd36-e6f9fecde809",
      "resource": {
        "resourceType": "Observation",
        "id": "b6d1e4fa-800a-43a2-bd36-e6f9fecde809",
        "meta": {
          "profile": [
            "http://hl7.eu/fhir/laboratory/StructureDefinition/Observation-resultslab-eu-lab"
          ]
        },
        "performer": [
          {
            "display": "The Central European Lab"
          }
        ],
        "category": [
          {
            "coding": [
              {
                "system": "http://terminology.hl7.org/CodeSystem/observation-category",
                "code": "laboratory"
              }
            ]
          }
        ],
        "code": {
          "coding": [
            {
              "code": "2514-8",
              "system": "http://loinc.org",
              "display": "Ketones [Presence] in Urine by Test strip"
            }
          ],
          "text": "Ketones [Presence] in Urine by Test strip"
        },
        "text": {
          "status": "generated",
          "div": "<div xmlns=\"http://www.w3.org/1999/xhtml\"><table class=\"hl7__eu__lab__report\"><tr><th>Test</th><th>26-Jul-2022</th><th>Reference&#xA0;Range</th><th>Unit</th></tr><tr><td>Ketones [Presence] in Urine by Test strip</td></tr></table></div>"
        },
        "status": "final",
        "subject": {
          "reference": "urn:uuid:d01d4648-0df5-4d75-b5e0-75ebd60111cd",
          "display": "Meaghan Neary"
        },
        "effectiveDateTime": "2022-07-25T22:11:04Z",
        "specimen": {
          "reference": "urn:uuid:cc8c2c91-a222-4508-9072-0fe013f3ca6c"
        }
      }
    },
    {
      "fullUrl": "urn:uuid:d0fd42e1-a117-434d-9d3a-c2a97cd810f8",
      "resource": {
        "resourceType": "Observation",
        "id": "d0fd42e1-a117-434d-9d3a-c2a97cd810f8",
        "meta": {
          "profile": [
            "http://hl7.eu/fhir/laboratory/StructureDefinition/Observation-resultslab-eu-lab"
          ]
        },
        "performer": [
          {
            "display": "The Central European Lab"
          }
        ],
        "category": [
          {
            "coding": [
              {
                "system": "http://terminology.hl7.org/CodeSystem/observation-category",
                "code": "laboratory"
              }
            ]
          }
        ],
        "code": {
          "coding": [
            {
              "code": "5811-5",
              "system": "http://loinc.org",
              "display": "Specific gravity of Urine by Test strip"
            }
          ],
          "text": "Specific gravity of Urine by Test strip"
        },
        "valueQuantity": {
          "system": "http://unitsofmeasure.org",
          "value": 1,
          "unit": "{nominal}",
          "code": "{nominal}"
        },
        "referenceRange": [
          {
            "low": {
              "value": 1.005,
              "code": "g/mL",
              "system": "http://unitsofmeasure.org"
            }
          },
          {
            "high": {
              "value": 1.03,
              "code": "g/mL",
              "system": "http://unitsofmeasure.org"
            }
          }
        ],
        "interpretation": [
          {
            "coding": [
              {
                "code": "L",
                "system": "http://terminology.hl7.org/CodeSystem/v3-ObservationInterpretation",
                "display": "Low"
              }
            ]
          }
        ],
        "text": {
          "status": "generated",
          "div": "<div xmlns=\"http://www.w3.org/1999/xhtml\"><table class=\"hl7__eu__lab__report\"><tr><th>Test</th><th>26-Jul-2022</th><th>Reference&#xA0;Range</th><th>Unit</th></tr><tr><td>Specific gravity of Urine by Test strip</td><td>1.0</td><td>1.005 - 1.03</td><td>L</td><td>{nominal}</td></tr></table></div>"
        },
        "status": "final",
        "subject": {
          "reference": "urn:uuid:d01d4648-0df5-4d75-b5e0-75ebd60111cd",
          "display": "Meaghan Neary"
        },
        "effectiveDateTime": "2022-07-25T22:11:04Z",
        "specimen": {
          "reference": "urn:uuid:cc8c2c91-a222-4508-9072-0fe013f3ca6c"
        }
      }
    },
    {
      "fullUrl": "urn:uuid:6f55cf99-099e-41e0-87e5-e879a7c0a5a4",
      "resource": {
        "resourceType": "Observation",
        "id": "6f55cf99-099e-41e0-87e5-e879a7c0a5a4",
        "meta": {
          "profile": [
            "http://hl7.eu/fhir/laboratory/StructureDefinition/Observation-resultslab-eu-lab"
          ]
        },
        "performer": [
          {
            "display": "The Central European Lab"
          }
        ],
        "category": [
          {
            "coding": [
              {
                "system": "http://terminology.hl7.org/CodeSystem/observation-category",
                "code": "laboratory"
              }
            ]
          }
        ],
        "code": {
          "coding": [
            {
              "code": "5803-2",
              "system": "http://loinc.org",
              "display": "pH of Urine by Test strip"
            }
          ],
          "text": "pH of Urine by Test strip"
        },
        "valueQuantity": {
          "system": "http://unitsofmeasure.org",
          "value": 5.9,
          "unit": "pH",
          "code": "pH"
        },
        "referenceRange": [
          {
            "low": {
              "value": 4.6,
              "code": "pH",
              "system": "http://unitsofmeasure.org"
            }
          },
          {
            "high": {
              "value": 7,
              "code": "pH",
              "system": "http://unitsofmeasure.org"
            }
          }
        ],
        "text": {
          "status": "generated",
          "div": "<div xmlns=\"http://www.w3.org/1999/xhtml\"><table class=\"hl7__eu__lab__report\"><tr><th>Test</th><th>26-Jul-2022</th><th>Reference&#xA0;Range</th><th>Unit</th></tr><tr><td>pH of Urine by Test strip</td><td>5.9</td><td>4.6 - 7</td><td></td><td>pH</td></tr></table></div>"
        },
        "status": "final",
        "subject": {
          "reference": "urn:uuid:d01d4648-0df5-4d75-b5e0-75ebd60111cd",
          "display": "Meaghan Neary"
        },
        "effectiveDateTime": "2022-07-25T22:11:04Z",
        "specimen": {
          "reference": "urn:uuid:cc8c2c91-a222-4508-9072-0fe013f3ca6c"
        }
      }
    },
    {
      "fullUrl": "urn:uuid:b4944052-6cbb-467c-a62a-34dce4f01d5d",
      "resource": {
        "resourceType": "Observation",
        "id": "b4944052-6cbb-467c-a62a-34dce4f01d5d",
        "meta": {
          "profile": [
            "http://hl7.eu/fhir/laboratory/StructureDefinition/Observation-resultslab-eu-lab"
          ]
        },
        "performer": [
          {
            "display": "The Central European Lab"
          }
        ],
        "category": [
          {
            "coding": [
              {
                "system": "http://terminology.hl7.org/CodeSystem/observation-category",
                "code": "laboratory"
              }
            ]
          }
        ],
        "code": {
          "coding": [
            {
              "code": "5804-0",
              "system": "http://loinc.org",
              "display": "Protein [Mass/volume] in Urine by Test strip"
            }
          ],
          "text": "Protein [Mass/volume] in Urine by Test strip"
        },
        "valueQuantity": {
          "system": "http://unitsofmeasure.org",
          "value": 373.2,
          "unit": "mg/dL",
          "code": "mg/dL"
        },
        "referenceRange": [
          {
            "low": {
              "value": 0,
              "code": "mg/dL",
              "system": "http://unitsofmeasure.org"
            }
          },
          {
            "high": {
              "value": 14,
              "code": "mg/dL",
              "system": "http://unitsofmeasure.org"
            }
          }
        ],
        "interpretation": [
          {
            "coding": [
              {
                "code": "H",
                "system": "http://terminology.hl7.org/CodeSystem/v3-ObservationInterpretation",
                "display": "High"
              }
            ]
          }
        ],
        "text": {
          "status": "generated",
          "div": "<div xmlns=\"http://www.w3.org/1999/xhtml\"><table class=\"hl7__eu__lab__report\"><tr><th>Test</th><th>26-Jul-2022</th><th>Reference&#xA0;Range</th><th>Unit</th></tr><tr><td>Protein [Mass/volume] in Urine by Test strip</td><td>373.2</td><td>0 - 14</td><td>H</td><td>mg/dL</td></tr></table></div>"
        },
        "status": "final",
        "subject": {
          "reference": "urn:uuid:d01d4648-0df5-4d75-b5e0-75ebd60111cd",
          "display": "Meaghan Neary"
        },
        "effectiveDateTime": "2022-07-25T22:11:04Z",
        "specimen": {
          "reference": "urn:uuid:cc8c2c91-a222-4508-9072-0fe013f3ca6c"
        }
      }
    },
    {
      "fullUrl": "urn:uuid:d592da3d-21f1-46d9-b10c-33f2fe12d1f8",
      "resource": {
        "resourceType": "Observation",
        "id": "d592da3d-21f1-46d9-b10c-33f2fe12d1f8",
        "meta": {
          "profile": [
            "http://hl7.eu/fhir/laboratory/StructureDefinition/Observation-resultslab-eu-lab"
          ]
        },
        "performer": [
          {
            "display": "The Central European Lab"
          }
        ],
        "category": [
          {
            "coding": [
              {
                "system": "http://terminology.hl7.org/CodeSystem/observation-category",
                "code": "laboratory"
              }
            ]
          }
        ],
        "code": {
          "coding": [
            {
              "code": "20454-5",
              "system": "http://loinc.org",
              "display": "Protein [Presence] in Urine by Test strip"
            }
          ],
          "text": "Protein [Presence] in Urine by Test strip"
        },
        "text": {
          "status": "generated",
          "div": "<div xmlns=\"http://www.w3.org/1999/xhtml\"><table class=\"hl7__eu__lab__report\"><tr><th>Test</th><th>26-Jul-2022</th><th>Reference&#xA0;Range</th><th>Unit</th></tr><tr><td>Protein [Presence] in Urine by Test strip</td></tr></table></div>"
        },
        "status": "final",
        "subject": {
          "reference": "urn:uuid:d01d4648-0df5-4d75-b5e0-75ebd60111cd",
          "display": "Meaghan Neary"
        },
        "effectiveDateTime": "2022-07-25T22:11:04Z",
        "specimen": {
          "reference": "urn:uuid:cc8c2c91-a222-4508-9072-0fe013f3ca6c"
        }
      }
    },
    {
      "fullUrl": "urn:uuid:b0a7ebd0-9230-4f32-84d1-fea30089d667",
      "resource": {
        "resourceType": "Observation",
        "id": "b0a7ebd0-9230-4f32-84d1-fea30089d667",
        "meta": {
          "profile": [
            "http://hl7.eu/fhir/laboratory/StructureDefinition/Observation-resultslab-eu-lab"
          ]
        },
        "performer": [
          {
            "display": "The Central European Lab"
          }
        ],
        "category": [
          {
            "coding": [
              {
                "system": "http://terminology.hl7.org/CodeSystem/observation-category",
                "code": "laboratory"
              }
            ]
          }
        ],
        "code": {
          "coding": [
            {
              "code": "5802-4",
              "system": "http://loinc.org",
              "display": "Nitrite [Presence] in Urine by Test strip"
            }
          ],
          "text": "Nitrite [Presence] in Urine by Test strip"
        },
        "text": {
          "status": "generated",
          "div": "<div xmlns=\"http://www.w3.org/1999/xhtml\"><table class=\"hl7__eu__lab__report\"><tr><th>Test</th><th>26-Jul-2022</th><th>Reference&#xA0;Range</th><th>Unit</th></tr><tr><td>Nitrite [Presence] in Urine by Test strip</td></tr></table></div>"
        },
        "status": "final",
        "subject": {
          "reference": "urn:uuid:d01d4648-0df5-4d75-b5e0-75ebd60111cd",
          "display": "Meaghan Neary"
        },
        "effectiveDateTime": "2022-07-25T22:11:04Z",
        "specimen": {
          "reference": "urn:uuid:cc8c2c91-a222-4508-9072-0fe013f3ca6c"
        }
      }
    },
    {
      "fullUrl": "urn:uuid:c4a3ff5e-7d70-423f-a662-bcc1e7b6c1d7",
      "resource": {
        "resourceType": "Observation",
        "id": "c4a3ff5e-7d70-423f-a662-bcc1e7b6c1d7",
        "meta": {
          "profile": [
            "http://hl7.eu/fhir/laboratory/StructureDefinition/Observation-resultslab-eu-lab"
          ]
        },
        "performer": [
          {
            "display": "The Central European Lab"
          }
        ],
        "category": [
          {
            "coding": [
              {
                "system": "http://terminology.hl7.org/CodeSystem/observation-category",
                "code": "laboratory"
              }
            ]
          }
        ],
        "code": {
          "coding": [
            {
              "code": "5794-3",
              "system": "http://loinc.org",
              "display": "Hemoglobin [Presence] in Urine by Test strip"
            }
          ],
          "text": "Hemoglobin [Presence] in Urine by Test strip"
        },
        "text": {
          "status": "generated",
          "div": "<div xmlns=\"http://www.w3.org/1999/xhtml\"><table class=\"hl7__eu__lab__report\"><tr><th>Test</th><th>26-Jul-2022</th><th>Reference&#xA0;Range</th><th>Unit</th></tr><tr><td>Hemoglobin [Presence] in Urine by Test strip</td></tr></table></div>"
        },
        "status": "final",
        "subject": {
          "reference": "urn:uuid:d01d4648-0df5-4d75-b5e0-75ebd60111cd",
          "display": "Meaghan Neary"
        },
        "effectiveDateTime": "2022-07-25T22:11:04Z",
        "specimen": {
          "reference": "urn:uuid:cc8c2c91-a222-4508-9072-0fe013f3ca6c"
        }
      }
    },
    {
      "fullUrl": "urn:uuid:fe80cb47-3413-4f58-be6b-2f01a9cb4170",
      "resource": {
        "resourceType": "Observation",
        "id": "fe80cb47-3413-4f58-be6b-2f01a9cb4170",
        "meta": {
          "profile": [
            "http://hl7.eu/fhir/laboratory/StructureDefinition/Observation-resultslab-eu-lab"
          ]
        },
        "performer": [
          {
            "display": "The Central European Lab"
          }
        ],
        "category": [
          {
            "coding": [
              {
                "system": "http://terminology.hl7.org/CodeSystem/observation-category",
                "code": "laboratory"
              }
            ]
          }
        ],
        "code": {
          "coding": [
            {
              "code": "5799-2",
              "system": "http://loinc.org",
              "display": "Leukocyte esterase [Presence] in Urine by Test strip"
            }
          ],
          "text": "Leukocyte esterase [Presence] in Urine by Test strip"
        },
        "text": {
          "status": "generated",
          "div": "<div xmlns=\"http://www.w3.org/1999/xhtml\"><table class=\"hl7__eu__lab__report\"><tr><th>Test</th><th>26-Jul-2022</th><th>Reference&#xA0;Range</th><th>Unit</th></tr><tr><td>Leukocyte esterase [Presence] in Urine by Test strip</td></tr></table></div>"
        },
        "status": "final",
        "subject": {
          "reference": "urn:uuid:d01d4648-0df5-4d75-b5e0-75ebd60111cd",
          "display": "Meaghan Neary"
        },
        "effectiveDateTime": "2022-07-25T22:11:04Z",
        "specimen": {
          "reference": "urn:uuid:cc8c2c91-a222-4508-9072-0fe013f3ca6c"
        }
      }
    },
    {
      "fullUrl": "urn:uuid:4b7af367-e47c-4106-9dc4-9b8316c19bc1",
      "resource": {
        "resourceType": "Observation",
        "id": "4b7af367-e47c-4106-9dc4-9b8316c19bc1",
        "meta": {
          "profile": [
            "http://hl7.eu/fhir/laboratory/StructureDefinition/Observation-resultslab-eu-lab"
          ]
        },
        "performer": [
          {
            "display": "The Central European Lab"
          }
        ],
        "category": [
          {
            "coding": [
              {
                "system": "http://terminology.hl7.org/CodeSystem/observation-category",
                "code": "laboratory"
              }
            ]
          }
        ],
        "code": {
          "coding": [
            {
              "code": "4548-4",
              "system": "http://loinc.org",
              "display": "Hemoglobin A1c/Hemoglobin.total in Blood"
            }
          ],
          "text": "Hemoglobin A1c/Hemoglobin.total in Blood"
        },
        "valueQuantity": {
          "system": "http://unitsofmeasure.org",
          "value": 3.3,
          "unit": "%",
          "code": "%"
        },
        "referenceRange": [
          {
            "low": {
              "value": 4,
              "code": "%",
              "system": "http://unitsofmeasure.org"
            }
          },
          {
            "high": {
              "value": 6.4,
              "code": "%",
              "system": "http://unitsofmeasure.org"
            }
          }
        ],
        "interpretation": [
          {
            "coding": [
              {
                "code": "L",
                "system": "http://terminology.hl7.org/CodeSystem/v3-ObservationInterpretation",
                "display": "Low"
              }
            ]
          }
        ],
        "text": {
          "status": "generated",
          "div": "<div xmlns=\"http://www.w3.org/1999/xhtml\"><table class=\"hl7__eu__lab__report\"><tr><th>Test</th><th>26-Jul-2022</th><th>Reference&#xA0;Range</th><th>Unit</th></tr><tr><td>Hemoglobin A1c/Hemoglobin.total in Blood</td><td>3.3</td><td>4 - 6.4</td><td>L</td><td>%</td></tr></table></div>"
        },
        "status": "final",
        "subject": {
          "reference": "urn:uuid:d01d4648-0df5-4d75-b5e0-75ebd60111cd",
          "display": "Meaghan Neary"
        },
        "effectiveDateTime": "2022-07-25T22:11:04Z",
        "specimen": {
          "reference": "urn:uuid:d099f8f9-e8de-42d9-85ba-ce450be0055b"
        }
      }
    },
    {
      "fullUrl": "urn:uuid:901e9f0c-69a1-4b75-b831-a2b703341f9a",
      "resource": {
        "resourceType": "Device",
        "id": "901e9f0c-69a1-4b75-b831-a2b703341f9a",
        "deviceName": [
          {
            "name": "SYNDERAI Synthetic Generator",
            "type": "manufacturer-name"
          }
        ],
        "version": [
          {
            "value": "5.0"
          }
        ],
        "text": {
          "status": "generated",
          "div": "<div xmlns=\"http://www.w3.org/1999/xhtml\">SYNDERAI Synthetic Generator v5.0</div>"
        },
        "status": "active\"",
        "distinctIdentifier": "synderai-generator-50",
        "manufacturer": "SYNDERAI Project"
      }
    },
    {
      "fullUrl": "urn:uuid:0a07afce-6161-4c00-a2c6-b84b30ccbe1a",
      "resource": {
        "resourceType": "Provenance",
        "id": "0a07afce-6161-4c00-a2c6-b84b30ccbe1a",
        "target": [
          {
            "reference": "Patient/d01d4648-0df5-4d75-b5e0-75ebd60111cd"
          },
          {
            "reference": "Bundle/f5abe5a3-54a1-4a01-8761-eadc6a744f8f"
          },
          {
            "reference": "Composition/634c7520-0c16-4467-8d94-3232c7c40026"
          },
          {
            "reference": "PractitionerRole/5bf7506f-91dc-4814-afbe-e057b2f24d9c"
          },
          {
            "reference": "Practitioner/c39a9d11-aa68-4bc5-b0dc-ae64fcdb0b36"
          },
          {
            "reference": "PractitionerRole/4b4c10bc-164d-4f9c-8edc-65300b968423"
          },
          {
            "reference": "Organization/16de4f7a-848c-4c6d-95fd-0b6f301b5bf7"
          }
        ],
        "activity": {
          "text": "Synthetic Example Data Generation"
        },
        "policy": [
          "https://synderai.net/synderai-synthetic-data-policy"
        ],
        "agent": [
          {
            "type": {
              "text": "author"
            },
            "who": {
              "reference": "Device/901e9f0c-69a1-4b75-b831-a2b703341f9a"
            }
          }
        ],
        "reason": [
          {
            "text": "Interoperability Testing and Training (non-clinical use)"
          }
        ],
        "text": {
          "status": "generated",
          "div": "<div xmlns=\"http://www.w3.org/1999/xhtml\">Provenance for SYNDERAI Synthetic Example Data Resource</div>"
        },
        "recorded": "2022-07-26T00:11:04Z"
      }
    },
    {
      "fullUrl": "urn:uuid:5bf7506f-91dc-4814-afbe-e057b2f24d9c",
      "resource": {
        "resourceType": "PractitionerRole",
        "id": "5bf7506f-91dc-4814-afbe-e057b2f24d9c",
        "meta": {
          "profile": [
            "http://hl7.eu/fhir/base/StructureDefinition/practitionerRole-eu"
          ]
        },
        "text": {
          "status": "generated",
          "div": "<div xmlns=\"http://www.w3.org/1999/xhtml\">Laboratory Role Id: 5bf7506f-91dc-4814-afbe-e057b2f24d9c</div>"
        },
        "practitioner": {
          "reference": "urn:uuid:c39a9d11-aa68-4bc5-b0dc-ae64fcdb0b36"
        }
      }
    },
    {
      "fullUrl": "urn:uuid:c39a9d11-aa68-4bc5-b0dc-ae64fcdb0b36",
      "resource": {
        "resourceType": "Practitioner",
        "id": "c39a9d11-aa68-4bc5-b0dc-ae64fcdb0b36",
        "meta": {
          "profile": [
            "http://hl7.eu/fhir/base/StructureDefinition/practitioner-eu"
          ]
        },
        "identifier": [
          {
            "assigner": {
              "display": "HL7 Europe"
            },
            "system": "urn:oid:2.16.840.1.113883.2.51.999",
            "value": "61720ed3-d64b-451f-a956-9b9f46dbfe2b"
          }
        ],
        "name": [
          {
            "prefix": [
              "dr"
            ],
            "given": [
              "Ex"
            ],
            "family": "Ample"
          }
        ],
        "address": [
          {
            "line": [
              "Laboratoire Central Européenne",
              "Boulevard du Jardin Botanique 32"
            ],
            "postalCode": "1000",
            "city": "Brussels",
            "country": "Belgium"
          }
        ],
        "text": {
          "status": "generated",
          "div": "<div xmlns=\"http://www.w3.org/1999/xhtml\">Laboratory: Laboratoire Central Européenne, 1000 Brussels, Belgium</div>"
        }
      }
    }
  ],
  "type": "document",
  "timestamp": "2022-07-26T00:11:04Z"
}
