{
  "resourceType": "Bundle",
  "id": "Instance-Bundle-c67b098f-1650-4af5-b49f-44cd5008118f",
  "meta": {
    "profile": [
      "http://hl7.eu/fhir/eps/StructureDefinition/bundle-eu-eps"
    ]
  },
  "identifier": {
    "assigner": {
      "display": "HL7 Europe"
    },
    "system": "urn:oid:2.16.840.1.113883.2.51.999",
    "value": "475f3d59-4ae2-451e-9926-6d107a4b80b9"
  },
  "entry": [
    {
      "fullUrl": "urn:uuid:7456171a-293f-4b69-95e9-75ed42a91952",
      "resource": {
        "resourceType": "Composition",
        "id": "7456171a-293f-4b69-95e9-75ed42a91952",
        "meta": {
          "profile": [
            "http://hl7.eu/fhir/eps/StructureDefinition/composition-eu-eps"
          ]
        },
        "identifier": {
          "assigner": {
            "display": "HL7 Europe"
          },
          "system": "urn:oid:2.16.840.1.113883.2.51.999",
          "value": "f80db8bd-9044-48d0-aea5-d4197812a871"
        },
        "type": {
          "coding": [
            {
              "system": "http://loinc.org",
              "code": "60591-5",
              "display": "European Patient Summary"
            }
          ],
          "text": "European Patient Summary"
        },
        "author": [
          {
            "reference": "urn:uuid:06f462fd-b43d-4e3b-b3d7-67c6ef187061"
          }
        ],
        "section": [
          {
            "text": {
              "status": "generated",
              "div": "<div xmlns=\"http://www.w3.org/1999/xhtml\"><table class=\"hl7__ips\"><tr><th>Condition</th><th>Onset Date</th><th>Status</th></tr><tr><td>Osteoporosis</td><td><span class=\"nb\">2021-06-25</span></td><td>active</td></tr><tr><td>Ischemic heart disease</td><td><span class=\"nb\">2019-06-14</span></td><td>active</td></tr><tr><td>Anemia</td><td><span class=\"nb\">1989-07-07</span></td><td>active</td></tr><tr><td><span class=\"grayedout\">Viral sinusitis</span></td><td><span class=\"nb\">2024-11-27</span></td><td><span class=\"grayedout\">inactive</span></td></tr><tr><td><span class=\"grayedout\">Gingival disease</span></td><td><span class=\"nb\">2024-07-26</span></td><td><span class=\"grayedout\">inactive</span></td></tr><tr><td><span class=\"grayedout\">Primary dental caries</span></td><td><span class=\"nb\">2024-07-26</span></td><td><span class=\"grayedout\">inactive</span></td></tr><tr><td><span class=\"grayedout\">Gingivitis</span></td><td><span class=\"nb\">2022-07-01</span></td><td><span class=\"grayedout\">inactive</span></td></tr><tr><td><span class=\"grayedout\">Gingivitis</span></td><td><span class=\"nb\">2021-06-25</span></td><td><span class=\"grayedout\">inactive</span></td></tr><tr><td><span class=\"grayedout\">Gingivitis</span></td><td><span class=\"nb\">2020-06-19</span></td><td><span class=\"grayedout\">inactive</span></td></tr><tr><td><span class=\"grayedout\">Concussion with no loss of consciousness</span></td><td><span class=\"nb\">2019-06-21</span></td><td><span class=\"grayedout\">inactive</span></td></tr><tr><td><span class=\"grayedout\">Concussion injury of brain</span></td><td><span class=\"nb\">2019-06-21</span></td><td><span class=\"grayedout\">inactive</span></td></tr><tr><td><span class=\"grayedout\">Acute infective cystitis</span></td><td><span class=\"nb\">2018-11-16</span></td><td><span class=\"grayedout\">inactive</span></td></tr><tr><td><span class=\"grayedout\">Gingival disease</span></td><td><span class=\"nb\">2017-06-16</span></td><td><span class=\"grayedout\">inactive</span></td></tr><tr><td><span class=\"grayedout\">Gingivitis</span></td><td><span class=\"nb\">2017-06-02</span></td><td><span class=\"grayedout\">inactive</span></td></tr><tr><td><span class=\"grayedout\">Primary dental caries</span></td><td><span class=\"nb\">2016-06-10</span></td><td><span class=\"grayedout\">inactive</span></td></tr></table></div>"
            },
            "entry": [
              {
                "reference": "urn:uuid:2444cecd-46b4-47b3-8815-ac7caa065aa2"
              },
              {
                "reference": "urn:uuid:4ce34f83-e1c3-4336-98d3-bfd74f1f1bb8"
              },
              {
                "reference": "urn:uuid:ad4aff74-7e17-4c43-bd27-122340c1b306"
              },
              {
                "reference": "urn:uuid:a9d81603-f94e-4a35-a438-d0bd2f97a4aa"
              },
              {
                "reference": "urn:uuid:268a7ac0-6d8e-41be-b32f-21a8b749151a"
              },
              {
                "reference": "urn:uuid:1aba0ad0-34a2-483f-9dec-5ca141d3abf5"
              },
              {
                "reference": "urn:uuid:4a728346-eb03-40f5-9d91-1bf477232b50"
              },
              {
                "reference": "urn:uuid:cb022cf4-8886-4bc9-b4b9-8e09aa05a497"
              },
              {
                "reference": "urn:uuid:ba7d8e84-e8bf-4fb0-a48e-4009f49d3623"
              },
              {
                "reference": "urn:uuid:238be1be-fefa-4e61-9b89-d0cc73c80c8d"
              },
              {
                "reference": "urn:uuid:b93b8201-c31c-4d3b-86f2-06b9f4a789d7"
              },
              {
                "reference": "urn:uuid:61b15680-98fa-4d4f-952e-e7719770cd01"
              },
              {
                "reference": "urn:uuid:160b219f-a396-4ac5-9e2d-9b31c7acd401"
              },
              {
                "reference": "urn:uuid:6ce7fe9d-e33c-4619-855f-6909d9e40c52"
              },
              {
                "reference": "urn:uuid:e630c6f1-3524-4b3e-8f55-6b09f8dd29f2"
              }
            ],
            "code": {
              "coding": [
                {
                  "system": "http://loinc.org",
                  "code": "11450-4",
                  "display": "Problem list - Reported"
                }
              ]
            },
            "title": "Problem list"
          },
          {
            "text": {
              "status": "generated",
              "div": "<div xmlns=\"http://www.w3.org/1999/xhtml\"><table class=\"hl7__ips\"><tr><th>Medication</th><th>Since</th><th>Form</th><th>Dosage</th><th>Reason</th></tr><tr><td>Alendronic acid (as alendronate sodium) 10 mg oral tablet</td><td><span class=\"nb\">2024-07-12</span></td><td>Oral tablet</td><td>1 tablet (10 mg) once daily</td><td>Osteoporosis (disorder)</td></tr><tr><td>Clopidogrel (as clopidogrel bisulfate) 75 mg oral tablet</td><td><span class=\"nb\">2019-06-21</span></td><td>Oral tablet</td><td>1 tablet (75 mg) by mouth once daily</td><td></td></tr><tr><td>Simvastatin 20 mg oral tablet</td><td><span class=\"nb\">2019-06-21</span></td><td>Oral tablet</td><td>1 tablet (20 mg) by mouth once daily</td><td></td></tr><tr><td>Nitroglycerin 400 microgram/actuation sublingual spray</td><td><span class=\"nb\">2019-06-21</span></td><td>Sublingual spray</td><td>400 micrograms sublingually as needed for chest pain, may repeat every 5 minutes as needed, up to 3 doses in 15 minutes</td><td></td></tr><tr><td>Metoprolol tartrate (as metoprolol succinate) 100 mg prolonged-release oral tablet</td><td><span class=\"nb\">2019-06-21</span></td><td>Prolonged-release oral tablet</td><td>1 tablet (100 mg) once daily</td><td></td></tr><tr><td>Diphenhydramine hydrochloride 25 mg oral tablet</td><td><span class=\"nb\">1964-02-10</span></td><td>Oral tablet</td><td>1 tablet (25 mg) by mouth every 6 hours as needed</td><td></td></tr></table></div>"
            },
            "entry": [
              {
                "reference": "urn:uuid:226bf601-c184-4989-b463-bdcb44e5b6e1"
              },
              {
                "reference": "urn:uuid:4b2c6a94-f60b-429a-84a0-f6f701e3bf76"
              },
              {
                "reference": "urn:uuid:fa2353cf-8dde-4f0b-b202-a0f926d5a7cf"
              },
              {
                "reference": "urn:uuid:7a7a01a1-1c07-4ad8-bde0-ceec29775544"
              },
              {
                "reference": "urn:uuid:989695dd-bd12-4afc-a258-2a8f0536b7d4"
              },
              {
                "reference": "urn:uuid:0c28493c-84e9-46ae-b64e-850cd53f0236"
              }
            ],
            "code": {
              "coding": [
                {
                  "system": "http://loinc.org",
                  "code": "10160-0",
                  "display": "History of Medication use Narrative"
                }
              ]
            },
            "title": "Medication list"
          },
          {
            "text": {
              "status": "generated",
              "div": "<div xmlns=\"http://www.w3.org/1999/xhtml\"><table class=\"hl7__ips\"><tr><th>Allergy/Intolerance</th><th>Onset Date</th><th>Status</th><th>Type</th><th>Reaction</th></tr><tr><td>Sulfamethoxazole / Trimethoprim</td><td><span class=\"nb\">1961-12-10</span></td><td>active</td><td>medication</td><td>Eruption of skin (disorder) (moderate)<br><br></td></tr><tr><td>Cow's milk</td><td><span class=\"nb\">1961-12-10</span></td><td>active</td><td>food</td><td>Wheal (finding) (mild)<br><br></td></tr><tr><td>Mold</td><td><span class=\"nb\">1961-12-10</span></td><td>active</td><td>environment</td><td>Cutaneous hypersensitivity (disorder) (mild)<br><br>Sneezing (finding) (mild)<br><br></td></tr><tr><td>House dust mite</td><td><span class=\"nb\">1961-12-10</span></td><td>active</td><td>environment</td><td></td></tr><tr><td>Animal dander</td><td><span class=\"nb\">1961-12-10</span></td><td>active</td><td>environment</td><td>Cough (finding) (moderate)<br><br>Eruption of skin (disorder) (mild)<br><br></td></tr><tr><td>Bee venom</td><td><span class=\"nb\">1961-12-10</span></td><td>active</td><td>environment</td><td>Anaphylaxis (disorder) (severe)<br><br></td></tr><tr><td>Allergic disposition</td><td><span class=\"nb\">1961-12-10</span></td><td>active</td><td>environment</td><td></td></tr><tr><td>Tree pollen</td><td><span class=\"nb\">1961-12-10</span></td><td>active</td><td>environment</td><td></td></tr></table></div>"
            },
            "entry": [
              {
                "reference": "urn:uuid:c4ed8de7-fed1-43c1-aefc-e9d64b22db09"
              },
              {
                "reference": "urn:uuid:8a64b5ee-99b7-4377-8ba0-69b6651286d3"
              },
              {
                "reference": "urn:uuid:89a1531a-ffd0-45d9-bf13-b6832a99683b"
              },
              {
                "reference": "urn:uuid:39d6d828-ff0d-4823-a757-b8ec21da4111"
              },
              {
                "reference": "urn:uuid:4bc2cca2-f406-48dd-bb9f-3fd33d6b848f"
              },
              {
                "reference": "urn:uuid:7940db65-afe0-402c-aeba-73bcd542437e"
              },
              {
                "reference": "urn:uuid:4cf800e2-b2aa-40aa-b878-4013c373782c"
              },
              {
                "reference": "urn:uuid:9b341c31-6324-457a-913c-359d9a5685fe"
              }
            ],
            "code": {
              "coding": [
                {
                  "system": "http://loinc.org",
                  "code": "48765-2",
                  "display": "Allergies and adverse reactions Document"
                }
              ]
            },
            "title": "Allergies and Intolerances"
          },
          {
            "text": {
              "status": "generated",
              "div": "<div xmlns=\"http://www.w3.org/1999/xhtml\"><table class=\"hl7__ips\"><tr><th>Procedure</th><th>Date</th><th>Reason</th></tr><tr><td>Postoperative procedure education</td><td><span class=\"nb\">2019-07-30</span></td><td>History of coronary artery bypass grafting (situation)</td></tr><tr><td>Stair-climbing test</td><td><span class=\"nb\">2019-07-30</span></td><td>History of coronary artery bypass grafting (situation)</td></tr><tr><td>Walking exercise test</td><td><span class=\"nb\">2019-07-30</span></td><td>History of coronary artery bypass grafting (situation)</td></tr><tr><td>Discharge to ward</td><td><span class=\"nb\">2019-07-30</span></td><td>-</td></tr><tr><td>Discharge from hospital</td><td><span class=\"nb\">2019-07-30</span></td><td>History of coronary artery bypass grafting (situation)</td></tr><tr><td>Electrocardiographic procedure</td><td><span class=\"nb\">2019-07-29</span></td><td>-</td></tr><tr><td>Transfusion of packed red blood cells</td><td><span class=\"nb\">2019-07-29</span></td><td>-</td></tr><tr><td>Plain X-ray of chest</td><td><span class=\"nb\">2019-07-29</span></td><td>-</td></tr><tr><td>Removal of endotracheal tube</td><td><span class=\"nb\">2019-07-24</span></td><td>-</td></tr></table></div>"
            },
            "entry": [
              {
                "reference": "urn:uuid:09c60634-c801-4441-994b-29ffd3b4a883"
              },
              {
                "reference": "urn:uuid:97e2e63c-a7e3-463c-aadb-1e88dcec0e45"
              },
              {
                "reference": "urn:uuid:f893eb49-00a6-4480-abee-5907c4d7ee3f"
              },
              {
                "reference": "urn:uuid:ffb4b047-78f0-415c-9281-449730932f34"
              },
              {
                "reference": "urn:uuid:5dafaa13-3a26-409d-b341-cd576f8948f5"
              },
              {
                "reference": "urn:uuid:0db3f7a0-4a33-45a1-ab53-19c55d2eccf0"
              },
              {
                "reference": "urn:uuid:a5a1b634-8c15-43a9-b9d6-4701f227d3cb"
              },
              {
                "reference": "urn:uuid:705344ce-8c7d-4e6b-9a83-783d2c92bae1"
              },
              {
                "reference": "urn:uuid:49490442-00d6-40bf-979a-b0bb6a669087"
              }
            ],
            "code": {
              "coding": [
                {
                  "system": "http://loinc.org",
                  "code": "47519-4",
                  "display": "History of Procedures Document"
                }
              ]
            },
            "title": "Procedure History list"
          },
          {
            "text": {
              "status": "generated",
              "div": "<div xmlns=\"http://www.w3.org/1999/xhtml\"><table class=\"hl7__ips\"><tr><th>Vaccine</th><th>Date</th></tr><tr><td>Influenza virus antigen only vaccine product</td><td><span class=\"nb\">2024-07-12</span></td></tr><tr><td>Clostridium tetani toxoid antigen adsorbed only vaccine product</td><td><span class=\"nb\">2022-07-01</span></td></tr><tr><td>COVID-19 non-replicating viral vector vaccine</td><td><span class=\"nb\">2021-04-02</span></td></tr></table></div>"
            },
            "entry": [
              {
                "reference": "urn:uuid:39b7cd00-ebd4-4922-a9ef-82154ebcad8c"
              },
              {
                "reference": "urn:uuid:a2eff48f-dd70-4d18-b0db-20e93fb0e3a5"
              },
              {
                "reference": "urn:uuid:9eadf496-bf14-433f-be65-0579049a1e3f"
              }
            ],
            "code": {
              "coding": [
                {
                  "system": "http://loinc.org",
                  "code": "11369-6",
                  "display": "History of Immunization Narrative"
                }
              ]
            },
            "title": "Immunizations list"
          }
        ],
        "title": "European Patient Summary",
        "status": "final",
        "subject": {
          "reference": "urn:uuid:955c2162-bb69-460c-ab09-7800106dcf26"
        },
        "custodian": {
          "reference": "urn:uuid:a41193cf-ad8a-42ad-a405-07d6510eedd0"
        },
        "date": "2025-06-17T11:26:49Z",
        "confidentiality": "N"
      }
    },
    {
      "fullUrl": "urn:uuid:955c2162-bb69-460c-ab09-7800106dcf26",
      "resource": {
        "resourceType": "Patient",
        "id": "955c2162-bb69-460c-ab09-7800106dcf26",
        "meta": {
          "profile": [
            "http://hl7.eu/fhir/eps/StructureDefinition/patient-eu-eps"
          ]
        },
        "identifier": [
          {
            "type": {
              "coding": [
                {
                  "code": "NI",
                  "system": "http://terminology.hl7.org/CodeSystem/v2-0203"
                }
              ]
            },
            "system": "http://ec.europa.eu/identifier/eci",
            "value": "3040-687841-0"
          },
          {
            "type": {
              "coding": [
                {
                  "code": "MR",
                  "system": "http://terminology.hl7.org/CodeSystem/v2-0203"
                }
              ]
            },
            "system": "http://local.setting.eu/identifier",
            "value": "685cd5c6-9cc8-1108-5a82-8f9c0768ea76"
          }
        ],
        "name": [
          {
            "given": [
              "Silvana"
            ],
            "family": "Plak",
            "text": "Silvana Plak"
          }
        ],
        "address": [
          {
            "line": [
              "Michaelkirchstr. 48"
            ],
            "use": "home",
            "type": "physical",
            "city": "Barum",
            "postalCode": "29576",
            "country": "Germany"
          }
        ],
        "telecom": [
          {
            "system": "phone",
            "value": "+49 05806 34 32 43"
          }
        ],
        "gender": "female",
        "birthDate": "1957-02-04"
      }
    },
    {
      "fullUrl": "urn:uuid:06f462fd-b43d-4e3b-b3d7-67c6ef187061",
      "resource": {
        "resourceType": "PractitionerRole",
        "id": "06f462fd-b43d-4e3b-b3d7-67c6ef187061",
        "meta": {
          "profile": [
            "http://hl7.eu/fhir/base/StructureDefinition/practitionerRole-eu"
          ]
        },
        "practitioner": {
          "reference": "urn:uuid:f33c9b30-3ad4-41d7-9cf1-12631bfbf1ee"
        },
        "organization": {
          "reference": "urn:uuid:a41193cf-ad8a-42ad-a405-07d6510eedd0"
        }
      }
    },
    {
      "fullUrl": "urn:uuid:f33c9b30-3ad4-41d7-9cf1-12631bfbf1ee",
      "resource": {
        "resourceType": "Practitioner",
        "id": "f33c9b30-3ad4-41d7-9cf1-12631bfbf1ee",
        "meta": {
          "profile": [
            "http://hl7.eu/fhir/base/StructureDefinition/practitioner-eu"
          ]
        },
        "name": [
          {
            "prefix": [
              "Dr."
            ],
            "given": [
              "Hel"
            ],
            "family": "Ping"
          }
        ]
      }
    },
    {
      "fullUrl": "urn:uuid:2444cecd-46b4-47b3-8815-ac7caa065aa2",
      "resource": {
        "resourceType": "Condition",
        "id": "2444cecd-46b4-47b3-8815-ac7caa065aa2",
        "meta": {
          "profile": [
            "http://hl7.org/fhir/uv/ips/StructureDefinition/Condition-uv-ips"
          ]
        },
        "category": [
          {
            "coding": [
              {
                "code": "problem-list-item",
                "system": "http://terminology.hl7.org/CodeSystem/condition-category",
                "display": "Problem List Item"
              }
            ]
          }
        ],
        "code": {
          "coding": [
            {
              "code": "64859006",
              "system": "http://snomed.info/sct",
              "display": "Osteoporosis (disorder)"
            }
          ],
          "text": "Osteoporosis"
        },
        "onsetDateTime": "2021-06-25",
        "clinicalStatus": {
          "coding": [
            {
              "code": "active",
              "system": "http://terminology.hl7.org/CodeSystem/condition-clinical"
            }
          ]
        },
        "subject": {
          "reference": "Patient/955c2162-bb69-460c-ab09-7800106dcf26",
          "display": "Silvana Plak"
        },
        "asserter": {
          "reference": "Practitioner/f33c9b30-3ad4-41d7-9cf1-12631bfbf1ee",
          "display": "Dr. Hel Ping"
        }
      }
    },
    {
      "fullUrl": "urn:uuid:4ce34f83-e1c3-4336-98d3-bfd74f1f1bb8",
      "resource": {
        "resourceType": "Condition",
        "id": "4ce34f83-e1c3-4336-98d3-bfd74f1f1bb8",
        "meta": {
          "profile": [
            "http://hl7.org/fhir/uv/ips/StructureDefinition/Condition-uv-ips"
          ]
        },
        "category": [
          {
            "coding": [
              {
                "code": "problem-list-item",
                "system": "http://terminology.hl7.org/CodeSystem/condition-category",
                "display": "Problem List Item"
              }
            ]
          }
        ],
        "code": {
          "coding": [
            {
              "code": "414545008",
              "system": "http://snomed.info/sct",
              "display": "Ischemic heart disease (disorder)"
            }
          ],
          "text": "Ischemic heart disease"
        },
        "onsetDateTime": "2019-06-14",
        "clinicalStatus": {
          "coding": [
            {
              "code": "active",
              "system": "http://terminology.hl7.org/CodeSystem/condition-clinical"
            }
          ]
        },
        "subject": {
          "reference": "Patient/955c2162-bb69-460c-ab09-7800106dcf26",
          "display": "Silvana Plak"
        },
        "asserter": {
          "reference": "Practitioner/f33c9b30-3ad4-41d7-9cf1-12631bfbf1ee",
          "display": "Dr. Hel Ping"
        }
      }
    },
    {
      "fullUrl": "urn:uuid:ad4aff74-7e17-4c43-bd27-122340c1b306",
      "resource": {
        "resourceType": "Condition",
        "id": "ad4aff74-7e17-4c43-bd27-122340c1b306",
        "meta": {
          "profile": [
            "http://hl7.org/fhir/uv/ips/StructureDefinition/Condition-uv-ips"
          ]
        },
        "category": [
          {
            "coding": [
              {
                "code": "problem-list-item",
                "system": "http://terminology.hl7.org/CodeSystem/condition-category",
                "display": "Problem List Item"
              }
            ]
          }
        ],
        "code": {
          "coding": [
            {
              "code": "271737000",
              "system": "http://snomed.info/sct",
              "display": "Anemia (disorder)"
            }
          ],
          "text": "Anemia"
        },
        "onsetDateTime": "1989-07-07",
        "clinicalStatus": {
          "coding": [
            {
              "code": "active",
              "system": "http://terminology.hl7.org/CodeSystem/condition-clinical"
            }
          ]
        },
        "subject": {
          "reference": "Patient/955c2162-bb69-460c-ab09-7800106dcf26",
          "display": "Silvana Plak"
        },
        "asserter": {
          "reference": "Practitioner/f33c9b30-3ad4-41d7-9cf1-12631bfbf1ee",
          "display": "Dr. Hel Ping"
        }
      }
    },
    {
      "fullUrl": "urn:uuid:a9d81603-f94e-4a35-a438-d0bd2f97a4aa",
      "resource": {
        "resourceType": "Condition",
        "id": "a9d81603-f94e-4a35-a438-d0bd2f97a4aa",
        "meta": {
          "profile": [
            "http://hl7.org/fhir/uv/ips/StructureDefinition/Condition-uv-ips"
          ]
        },
        "category": [
          {
            "coding": [
              {
                "code": "problem-list-item",
                "system": "http://terminology.hl7.org/CodeSystem/condition-category",
                "display": "Problem List Item"
              }
            ]
          }
        ],
        "code": {
          "coding": [
            {
              "code": "444814009",
              "system": "http://snomed.info/sct",
              "display": "Viral sinusitis (disorder)"
            }
          ],
          "text": "Viral sinusitis"
        },
        "onsetDateTime": "2024-11-27",
        "clinicalStatus": {
          "coding": [
            {
              "code": "inactive",
              "system": "http://terminology.hl7.org/CodeSystem/condition-clinical"
            }
          ]
        },
        "subject": {
          "reference": "Patient/955c2162-bb69-460c-ab09-7800106dcf26",
          "display": "Silvana Plak"
        },
        "asserter": {
          "reference": "Practitioner/f33c9b30-3ad4-41d7-9cf1-12631bfbf1ee",
          "display": "Dr. Hel Ping"
        }
      }
    },
    {
      "fullUrl": "urn:uuid:268a7ac0-6d8e-41be-b32f-21a8b749151a",
      "resource": {
        "resourceType": "Condition",
        "id": "268a7ac0-6d8e-41be-b32f-21a8b749151a",
        "meta": {
          "profile": [
            "http://hl7.org/fhir/uv/ips/StructureDefinition/Condition-uv-ips"
          ]
        },
        "category": [
          {
            "coding": [
              {
                "code": "problem-list-item",
                "system": "http://terminology.hl7.org/CodeSystem/condition-category",
                "display": "Problem List Item"
              }
            ]
          }
        ],
        "code": {
          "coding": [
            {
              "code": "18718003",
              "system": "http://snomed.info/sct",
              "display": "Gingival disease (disorder)"
            }
          ],
          "text": "Gingival disease"
        },
        "onsetDateTime": "2024-07-26",
        "clinicalStatus": {
          "coding": [
            {
              "code": "inactive",
              "system": "http://terminology.hl7.org/CodeSystem/condition-clinical"
            }
          ]
        },
        "subject": {
          "reference": "Patient/955c2162-bb69-460c-ab09-7800106dcf26",
          "display": "Silvana Plak"
        },
        "asserter": {
          "reference": "Practitioner/f33c9b30-3ad4-41d7-9cf1-12631bfbf1ee",
          "display": "Dr. Hel Ping"
        }
      }
    },
    {
      "fullUrl": "urn:uuid:1aba0ad0-34a2-483f-9dec-5ca141d3abf5",
      "resource": {
        "resourceType": "Condition",
        "id": "1aba0ad0-34a2-483f-9dec-5ca141d3abf5",
        "meta": {
          "profile": [
            "http://hl7.org/fhir/uv/ips/StructureDefinition/Condition-uv-ips"
          ]
        },
        "category": [
          {
            "coding": [
              {
                "code": "problem-list-item",
                "system": "http://terminology.hl7.org/CodeSystem/condition-category",
                "display": "Problem List Item"
              }
            ]
          }
        ],
        "code": {
          "coding": [
            {
              "code": "109570002",
              "system": "http://snomed.info/sct",
              "display": "Primary dental caries (disorder)"
            }
          ],
          "text": "Primary dental caries"
        },
        "onsetDateTime": "2024-07-26",
        "clinicalStatus": {
          "coding": [
            {
              "code": "inactive",
              "system": "http://terminology.hl7.org/CodeSystem/condition-clinical"
            }
          ]
        },
        "subject": {
          "reference": "Patient/955c2162-bb69-460c-ab09-7800106dcf26",
          "display": "Silvana Plak"
        },
        "asserter": {
          "reference": "Practitioner/f33c9b30-3ad4-41d7-9cf1-12631bfbf1ee",
          "display": "Dr. Hel Ping"
        }
      }
    },
    {
      "fullUrl": "urn:uuid:4a728346-eb03-40f5-9d91-1bf477232b50",
      "resource": {
        "resourceType": "Condition",
        "id": "4a728346-eb03-40f5-9d91-1bf477232b50",
        "meta": {
          "profile": [
            "http://hl7.org/fhir/uv/ips/StructureDefinition/Condition-uv-ips"
          ]
        },
        "category": [
          {
            "coding": [
              {
                "code": "problem-list-item",
                "system": "http://terminology.hl7.org/CodeSystem/condition-category",
                "display": "Problem List Item"
              }
            ]
          }
        ],
        "code": {
          "coding": [
            {
              "code": "66383009",
              "system": "http://snomed.info/sct",
              "display": "Gingivitis (disorder)"
            }
          ],
          "text": "Gingivitis"
        },
        "onsetDateTime": "2022-07-01",
        "clinicalStatus": {
          "coding": [
            {
              "code": "inactive",
              "system": "http://terminology.hl7.org/CodeSystem/condition-clinical"
            }
          ]
        },
        "subject": {
          "reference": "Patient/955c2162-bb69-460c-ab09-7800106dcf26",
          "display": "Silvana Plak"
        },
        "asserter": {
          "reference": "Practitioner/f33c9b30-3ad4-41d7-9cf1-12631bfbf1ee",
          "display": "Dr. Hel Ping"
        }
      }
    },
    {
      "fullUrl": "urn:uuid:cb022cf4-8886-4bc9-b4b9-8e09aa05a497",
      "resource": {
        "resourceType": "Condition",
        "id": "cb022cf4-8886-4bc9-b4b9-8e09aa05a497",
        "meta": {
          "profile": [
            "http://hl7.org/fhir/uv/ips/StructureDefinition/Condition-uv-ips"
          ]
        },
        "category": [
          {
            "coding": [
              {
                "code": "problem-list-item",
                "system": "http://terminology.hl7.org/CodeSystem/condition-category",
                "display": "Problem List Item"
              }
            ]
          }
        ],
        "code": {
          "coding": [
            {
              "code": "66383009",
              "system": "http://snomed.info/sct",
              "display": "Gingivitis (disorder)"
            }
          ],
          "text": "Gingivitis"
        },
        "onsetDateTime": "2021-06-25",
        "clinicalStatus": {
          "coding": [
            {
              "code": "inactive",
              "system": "http://terminology.hl7.org/CodeSystem/condition-clinical"
            }
          ]
        },
        "subject": {
          "reference": "Patient/955c2162-bb69-460c-ab09-7800106dcf26",
          "display": "Silvana Plak"
        },
        "asserter": {
          "reference": "Practitioner/f33c9b30-3ad4-41d7-9cf1-12631bfbf1ee",
          "display": "Dr. Hel Ping"
        }
      }
    },
    {
      "fullUrl": "urn:uuid:ba7d8e84-e8bf-4fb0-a48e-4009f49d3623",
      "resource": {
        "resourceType": "Condition",
        "id": "ba7d8e84-e8bf-4fb0-a48e-4009f49d3623",
        "meta": {
          "profile": [
            "http://hl7.org/fhir/uv/ips/StructureDefinition/Condition-uv-ips"
          ]
        },
        "category": [
          {
            "coding": [
              {
                "code": "problem-list-item",
                "system": "http://terminology.hl7.org/CodeSystem/condition-category",
                "display": "Problem List Item"
              }
            ]
          }
        ],
        "code": {
          "coding": [
            {
              "code": "66383009",
              "system": "http://snomed.info/sct",
              "display": "Gingivitis (disorder)"
            }
          ],
          "text": "Gingivitis"
        },
        "onsetDateTime": "2020-06-19",
        "clinicalStatus": {
          "coding": [
            {
              "code": "inactive",
              "system": "http://terminology.hl7.org/CodeSystem/condition-clinical"
            }
          ]
        },
        "subject": {
          "reference": "Patient/955c2162-bb69-460c-ab09-7800106dcf26",
          "display": "Silvana Plak"
        },
        "asserter": {
          "reference": "Practitioner/f33c9b30-3ad4-41d7-9cf1-12631bfbf1ee",
          "display": "Dr. Hel Ping"
        }
      }
    },
    {
      "fullUrl": "urn:uuid:238be1be-fefa-4e61-9b89-d0cc73c80c8d",
      "resource": {
        "resourceType": "Condition",
        "id": "238be1be-fefa-4e61-9b89-d0cc73c80c8d",
        "meta": {
          "profile": [
            "http://hl7.org/fhir/uv/ips/StructureDefinition/Condition-uv-ips"
          ]
        },
        "category": [
          {
            "coding": [
              {
                "code": "problem-list-item",
                "system": "http://terminology.hl7.org/CodeSystem/condition-category",
                "display": "Problem List Item"
              }
            ]
          }
        ],
        "code": {
          "coding": [
            {
              "code": "62106007",
              "system": "http://snomed.info/sct",
              "display": "Concussion with no loss of consciousness (disorder)"
            }
          ],
          "text": "Concussion with no loss of consciousness"
        },
        "onsetDateTime": "2019-06-21",
        "clinicalStatus": {
          "coding": [
            {
              "code": "inactive",
              "system": "http://terminology.hl7.org/CodeSystem/condition-clinical"
            }
          ]
        },
        "subject": {
          "reference": "Patient/955c2162-bb69-460c-ab09-7800106dcf26",
          "display": "Silvana Plak"
        },
        "asserter": {
          "reference": "Practitioner/f33c9b30-3ad4-41d7-9cf1-12631bfbf1ee",
          "display": "Dr. Hel Ping"
        }
      }
    },
    {
      "fullUrl": "urn:uuid:b93b8201-c31c-4d3b-86f2-06b9f4a789d7",
      "resource": {
        "resourceType": "Condition",
        "id": "b93b8201-c31c-4d3b-86f2-06b9f4a789d7",
        "meta": {
          "profile": [
            "http://hl7.org/fhir/uv/ips/StructureDefinition/Condition-uv-ips"
          ]
        },
        "category": [
          {
            "coding": [
              {
                "code": "problem-list-item",
                "system": "http://terminology.hl7.org/CodeSystem/condition-category",
                "display": "Problem List Item"
              }
            ]
          }
        ],
        "code": {
          "coding": [
            {
              "code": "110030002",
              "system": "http://snomed.info/sct",
              "display": "Concussion injury of brain (disorder)"
            }
          ],
          "text": "Concussion injury of brain"
        },
        "onsetDateTime": "2019-06-21",
        "clinicalStatus": {
          "coding": [
            {
              "code": "inactive",
              "system": "http://terminology.hl7.org/CodeSystem/condition-clinical"
            }
          ]
        },
        "subject": {
          "reference": "Patient/955c2162-bb69-460c-ab09-7800106dcf26",
          "display": "Silvana Plak"
        },
        "asserter": {
          "reference": "Practitioner/f33c9b30-3ad4-41d7-9cf1-12631bfbf1ee",
          "display": "Dr. Hel Ping"
        }
      }
    },
    {
      "fullUrl": "urn:uuid:61b15680-98fa-4d4f-952e-e7719770cd01",
      "resource": {
        "resourceType": "Condition",
        "id": "61b15680-98fa-4d4f-952e-e7719770cd01",
        "meta": {
          "profile": [
            "http://hl7.org/fhir/uv/ips/StructureDefinition/Condition-uv-ips"
          ]
        },
        "category": [
          {
            "coding": [
              {
                "code": "problem-list-item",
                "system": "http://terminology.hl7.org/CodeSystem/condition-category",
                "display": "Problem List Item"
              }
            ]
          }
        ],
        "code": {
          "coding": [
            {
              "code": "307426000",
              "system": "http://snomed.info/sct",
              "display": "Acute infective cystitis (disorder)"
            }
          ],
          "text": "Acute infective cystitis"
        },
        "onsetDateTime": "2018-11-16",
        "clinicalStatus": {
          "coding": [
            {
              "code": "inactive",
              "system": "http://terminology.hl7.org/CodeSystem/condition-clinical"
            }
          ]
        },
        "subject": {
          "reference": "Patient/955c2162-bb69-460c-ab09-7800106dcf26",
          "display": "Silvana Plak"
        },
        "asserter": {
          "reference": "Practitioner/f33c9b30-3ad4-41d7-9cf1-12631bfbf1ee",
          "display": "Dr. Hel Ping"
        }
      }
    },
    {
      "fullUrl": "urn:uuid:160b219f-a396-4ac5-9e2d-9b31c7acd401",
      "resource": {
        "resourceType": "Condition",
        "id": "160b219f-a396-4ac5-9e2d-9b31c7acd401",
        "meta": {
          "profile": [
            "http://hl7.org/fhir/uv/ips/StructureDefinition/Condition-uv-ips"
          ]
        },
        "category": [
          {
            "coding": [
              {
                "code": "problem-list-item",
                "system": "http://terminology.hl7.org/CodeSystem/condition-category",
                "display": "Problem List Item"
              }
            ]
          }
        ],
        "code": {
          "coding": [
            {
              "code": "18718003",
              "system": "http://snomed.info/sct",
              "display": "Gingival disease (disorder)"
            }
          ],
          "text": "Gingival disease"
        },
        "onsetDateTime": "2017-06-16",
        "clinicalStatus": {
          "coding": [
            {
              "code": "inactive",
              "system": "http://terminology.hl7.org/CodeSystem/condition-clinical"
            }
          ]
        },
        "subject": {
          "reference": "Patient/955c2162-bb69-460c-ab09-7800106dcf26",
          "display": "Silvana Plak"
        },
        "asserter": {
          "reference": "Practitioner/f33c9b30-3ad4-41d7-9cf1-12631bfbf1ee",
          "display": "Dr. Hel Ping"
        }
      }
    },
    {
      "fullUrl": "urn:uuid:6ce7fe9d-e33c-4619-855f-6909d9e40c52",
      "resource": {
        "resourceType": "Condition",
        "id": "6ce7fe9d-e33c-4619-855f-6909d9e40c52",
        "meta": {
          "profile": [
            "http://hl7.org/fhir/uv/ips/StructureDefinition/Condition-uv-ips"
          ]
        },
        "category": [
          {
            "coding": [
              {
                "code": "problem-list-item",
                "system": "http://terminology.hl7.org/CodeSystem/condition-category",
                "display": "Problem List Item"
              }
            ]
          }
        ],
        "code": {
          "coding": [
            {
              "code": "66383009",
              "system": "http://snomed.info/sct",
              "display": "Gingivitis (disorder)"
            }
          ],
          "text": "Gingivitis"
        },
        "onsetDateTime": "2017-06-02",
        "clinicalStatus": {
          "coding": [
            {
              "code": "inactive",
              "system": "http://terminology.hl7.org/CodeSystem/condition-clinical"
            }
          ]
        },
        "subject": {
          "reference": "Patient/955c2162-bb69-460c-ab09-7800106dcf26",
          "display": "Silvana Plak"
        },
        "asserter": {
          "reference": "Practitioner/f33c9b30-3ad4-41d7-9cf1-12631bfbf1ee",
          "display": "Dr. Hel Ping"
        }
      }
    },
    {
      "fullUrl": "urn:uuid:e630c6f1-3524-4b3e-8f55-6b09f8dd29f2",
      "resource": {
        "resourceType": "Condition",
        "id": "e630c6f1-3524-4b3e-8f55-6b09f8dd29f2",
        "meta": {
          "profile": [
            "http://hl7.org/fhir/uv/ips/StructureDefinition/Condition-uv-ips"
          ]
        },
        "category": [
          {
            "coding": [
              {
                "code": "problem-list-item",
                "system": "http://terminology.hl7.org/CodeSystem/condition-category",
                "display": "Problem List Item"
              }
            ]
          }
        ],
        "code": {
          "coding": [
            {
              "code": "109570002",
              "system": "http://snomed.info/sct",
              "display": "Primary dental caries (disorder)"
            }
          ],
          "text": "Primary dental caries"
        },
        "onsetDateTime": "2016-06-10",
        "clinicalStatus": {
          "coding": [
            {
              "code": "inactive",
              "system": "http://terminology.hl7.org/CodeSystem/condition-clinical"
            }
          ]
        },
        "subject": {
          "reference": "Patient/955c2162-bb69-460c-ab09-7800106dcf26",
          "display": "Silvana Plak"
        },
        "asserter": {
          "reference": "Practitioner/f33c9b30-3ad4-41d7-9cf1-12631bfbf1ee",
          "display": "Dr. Hel Ping"
        }
      }
    },
    {
      "fullUrl": "urn:uuid:6eeaddd5-b212-42fd-bbeb-07c55acbb476",
      "resource": {
        "resourceType": "Medication",
        "id": "6eeaddd5-b212-42fd-bbeb-07c55acbb476",
        "meta": {
          "profile": [
            "http://hl7.org/fhir/uv/ips/StructureDefinition/Medication-uv-ips"
          ]
        },
        "code": {
          "coding": [
            {
              "code": "904419",
              "system": "http://www.nlm.nih.gov/research/umls/rxnorm",
              "display": "alendronic acid 10 MG Oral Tablet"
            },
            {
              "code": "783144007",
              "system": "http://snomed.info/sct",
              "display": "Product containing precisely alendronic acid (as alendronate sodium) 10 milligram/1 each conventional release oral tablet (clinical drug)"
            }
          ],
          "text": "Alendronic acid (as alendronate sodium) 10 mg oral tablet"
        },
        "form": {
          "coding": [
            {
              "code": "421026006",
              "system": "http://snomed.info/sct",
              "display": "Oral tablet"
            }
          ]
        },
        "ingredient": [
          {
            "itemCodeableConcept": {
              "coding": [
                {
                  "code": "391729003",
                  "system": "http://snomed.info/sct",
                  "display": "Alendronate sodium"
                }
              ]
            },
            "isActive": true
          }
        ]
      }
    },
    {
      "fullUrl": "urn:uuid:226bf601-c184-4989-b463-bdcb44e5b6e1",
      "resource": {
        "resourceType": "MedicationStatement",
        "id": "226bf601-c184-4989-b463-bdcb44e5b6e1",
        "meta": {
          "profile": [
            "http://hl7.org/fhir/uv/ips/StructureDefinition/MedicationStatement-uv-ips"
          ]
        },
        "effectivePeriod": {
          "start": "2024-07-12"
        },
        "dosage": [
          {
            "doseAndRate": [
              {
                "doseQuantity": {
                  "value": 1,
                  "unit": "{tbl}",
                  "code": "{tbl}"
                }
              }
            ],
            "timing": {
              "repeat": {
                "frequency": 1,
                "period": 1,
                "periodUnit": "d"
              }
            },
            "text": "1 tablet (10 mg) once daily",
            "asNeededBoolean": false
          }
        ],
        "reasonCode": [
          {
            "coding": [
              {
                "code": "64859006",
                "system": "http://snomed.info/sct",
                "display": "Osteoporosis (disorder)"
              }
            ]
          }
        ],
        "status": "active",
        "medicationReference": {
          "reference": "Medication/6eeaddd5-b212-42fd-bbeb-07c55acbb476",
          "display": "Alendronic acid (as alendronate sodium) 10 mg oral tablet"
        },
        "subject": {
          "reference": "Patient/955c2162-bb69-460c-ab09-7800106dcf26",
          "display": "Silvana Plak"
        }
      }
    },
    {
      "fullUrl": "urn:uuid:8d380d35-c2f4-4814-b6e1-003bc6633bb4",
      "resource": {
        "resourceType": "Medication",
        "id": "8d380d35-c2f4-4814-b6e1-003bc6633bb4",
        "meta": {
          "profile": [
            "http://hl7.org/fhir/uv/ips/StructureDefinition/Medication-uv-ips"
          ]
        },
        "code": {
          "coding": [
            {
              "code": "309362",
              "system": "http://www.nlm.nih.gov/research/umls/rxnorm",
              "display": "clopidogrel 75 MG Oral Tablet"
            },
            {
              "code": "783586007",
              "system": "http://snomed.info/sct",
              "display": "Product containing precisely clopidogrel (as clopidogrel bisulfate) 75 milligram/1 each conventional release oral tablet (clinical drug)"
            }
          ],
          "text": "Clopidogrel (as clopidogrel bisulfate) 75 mg oral tablet"
        },
        "form": {
          "coding": [
            {
              "code": "421026006",
              "system": "http://snomed.info/sct",
              "display": "Oral tablet"
            }
          ]
        },
        "ingredient": [
          {
            "itemCodeableConcept": {
              "coding": [
                {
                  "code": "412354008",
                  "system": "http://snomed.info/sct",
                  "display": "Clopidogrel bisulfate"
                }
              ]
            },
            "isActive": true
          }
        ]
      }
    },
    {
      "fullUrl": "urn:uuid:4b2c6a94-f60b-429a-84a0-f6f701e3bf76",
      "resource": {
        "resourceType": "MedicationStatement",
        "id": "4b2c6a94-f60b-429a-84a0-f6f701e3bf76",
        "meta": {
          "profile": [
            "http://hl7.org/fhir/uv/ips/StructureDefinition/MedicationStatement-uv-ips"
          ]
        },
        "effectivePeriod": {
          "start": "2019-06-21"
        },
        "dosage": [
          {
            "doseAndRate": [
              {
                "doseQuantity": {
                  "value": 1,
                  "unit": "{tbl}",
                  "code": "{tbl}"
                }
              }
            ],
            "timing": {
              "repeat": {
                "frequency": 1,
                "period": 1,
                "periodUnit": "d"
              }
            },
            "text": "1 tablet (75 mg) by mouth once daily",
            "asNeededBoolean": false
          }
        ],
        "status": "active",
        "medicationReference": {
          "reference": "Medication/8d380d35-c2f4-4814-b6e1-003bc6633bb4",
          "display": "Clopidogrel (as clopidogrel bisulfate) 75 mg oral tablet"
        },
        "subject": {
          "reference": "Patient/955c2162-bb69-460c-ab09-7800106dcf26",
          "display": "Silvana Plak"
        }
      }
    },
    {
      "fullUrl": "urn:uuid:c185a547-aa79-44a2-9a96-9671f579b7b8",
      "resource": {
        "resourceType": "Medication",
        "id": "c185a547-aa79-44a2-9a96-9671f579b7b8",
        "meta": {
          "profile": [
            "http://hl7.org/fhir/uv/ips/StructureDefinition/Medication-uv-ips"
          ]
        },
        "code": {
          "coding": [
            {
              "code": "312961",
              "system": "http://www.nlm.nih.gov/research/umls/rxnorm",
              "display": "simvastatin 20 MG Oral Tablet"
            },
            {
              "code": "319997009",
              "system": "http://snomed.info/sct",
              "display": "Product containing precisely simvastatin 20 milligram/1 each conventional release oral tablet (clinical drug)"
            }
          ],
          "text": "Simvastatin 20 mg oral tablet"
        },
        "form": {
          "coding": [
            {
              "code": "421026006",
              "system": "http://snomed.info/sct",
              "display": "Oral tablet"
            }
          ]
        },
        "ingredient": [
          {
            "itemCodeableConcept": {
              "coding": [
                {
                  "code": "387584000",
                  "system": "http://snomed.info/sct",
                  "display": "Simvastatin"
                }
              ]
            },
            "isActive": true
          }
        ]
      }
    },
    {
      "fullUrl": "urn:uuid:fa2353cf-8dde-4f0b-b202-a0f926d5a7cf",
      "resource": {
        "resourceType": "MedicationStatement",
        "id": "fa2353cf-8dde-4f0b-b202-a0f926d5a7cf",
        "meta": {
          "profile": [
            "http://hl7.org/fhir/uv/ips/StructureDefinition/MedicationStatement-uv-ips"
          ]
        },
        "effectivePeriod": {
          "start": "2019-06-21"
        },
        "dosage": [
          {
            "doseAndRate": [
              {
                "doseQuantity": {
                  "value": 1,
                  "unit": "{tbl}",
                  "code": "{tbl}"
                }
              }
            ],
            "timing": {
              "repeat": {
                "frequency": 1,
                "period": 1,
                "periodUnit": "d"
              }
            },
            "text": "1 tablet (20 mg) by mouth once daily",
            "asNeededBoolean": false
          }
        ],
        "status": "active",
        "medicationReference": {
          "reference": "Medication/c185a547-aa79-44a2-9a96-9671f579b7b8",
          "display": "Simvastatin 20 mg oral tablet"
        },
        "subject": {
          "reference": "Patient/955c2162-bb69-460c-ab09-7800106dcf26",
          "display": "Silvana Plak"
        }
      }
    },
    {
      "fullUrl": "urn:uuid:780ee1b9-68af-4cba-a47e-87f3945d82d8",
      "resource": {
        "resourceType": "Medication",
        "id": "780ee1b9-68af-4cba-a47e-87f3945d82d8",
        "meta": {
          "profile": [
            "http://hl7.org/fhir/uv/ips/StructureDefinition/Medication-uv-ips"
          ]
        },
        "code": {
          "coding": [
            {
              "code": "705129",
              "system": "http://www.nlm.nih.gov/research/umls/rxnorm",
              "display": "nitroglycerin 0.4 MG/ACTUAT Mucosal Spray"
            },
            {
              "code": "425176000",
              "system": "http://snomed.info/sct",
              "display": "Product containing precisely glyceryl trinitrate 400 microgram/1 actuation conventional release sublingual spray (clinical drug)"
            }
          ],
          "text": "Nitroglycerin 400 microgram/actuation sublingual spray"
        },
        "form": {
          "coding": [
            {
              "code": "385074009",
              "system": "http://snomed.info/sct",
              "display": "Sublingual spray"
            }
          ]
        },
        "ingredient": [
          {
            "itemCodeableConcept": {
              "coding": [
                {
                  "code": "387404004",
                  "system": "http://snomed.info/sct",
                  "display": "Glyceryl trinitrate"
                }
              ]
            },
            "isActive": true
          }
        ]
      }
    },
    {
      "fullUrl": "urn:uuid:7a7a01a1-1c07-4ad8-bde0-ceec29775544",
      "resource": {
        "resourceType": "MedicationStatement",
        "id": "7a7a01a1-1c07-4ad8-bde0-ceec29775544",
        "meta": {
          "profile": [
            "http://hl7.org/fhir/uv/ips/StructureDefinition/MedicationStatement-uv-ips"
          ]
        },
        "effectivePeriod": {
          "start": "2019-06-21"
        },
        "dosage": [
          {
            "doseAndRate": [
              {
                "doseQuantity": {
                  "value": 400,
                  "unit": "microgram",
                  "code": "ug"
                }
              }
            ],
            "timing": {
              "repeat": {
                "frequency": 1,
                "period": 5,
                "periodUnit": "min"
              }
            },
            "text": "400 micrograms sublingually as needed for chest pain, may repeat every 5 minutes as needed, up to 3 doses in 15 minutes",
            "asNeededBoolean": true
          }
        ],
        "status": "active",
        "medicationReference": {
          "reference": "Medication/780ee1b9-68af-4cba-a47e-87f3945d82d8",
          "display": "Nitroglycerin 400 microgram/actuation sublingual spray"
        },
        "subject": {
          "reference": "Patient/955c2162-bb69-460c-ab09-7800106dcf26",
          "display": "Silvana Plak"
        }
      }
    },
    {
      "fullUrl": "urn:uuid:b55ddb04-6cba-4538-a5e0-aed97a01059f",
      "resource": {
        "resourceType": "Medication",
        "id": "b55ddb04-6cba-4538-a5e0-aed97a01059f",
        "meta": {
          "profile": [
            "http://hl7.org/fhir/uv/ips/StructureDefinition/Medication-uv-ips"
          ]
        },
        "code": {
          "coding": [
            {
              "code": "866412",
              "system": "http://www.nlm.nih.gov/research/umls/rxnorm",
              "display": "24 HR metoprolol succinate 100 MG Extended Release Oral Tablet"
            },
            {
              "code": "879980009",
              "system": "http://snomed.info/sct",
              "display": "Product containing precisely metoprolol tartrate (as metoprolol succinate) 100 milligram/1 each prolonged-release oral tablet (clinical drug)"
            }
          ],
          "text": "Metoprolol tartrate (as metoprolol succinate) 100 mg prolonged-release oral tablet"
        },
        "form": {
          "coding": [
            {
              "code": "385060002",
              "system": "http://snomed.info/sct",
              "display": "Prolonged-release oral tablet"
            }
          ]
        },
        "ingredient": [
          {
            "itemCodeableConcept": {
              "coding": [
                {
                  "code": "412432007",
                  "system": "http://snomed.info/sct",
                  "display": "Metoprolol succinate"
                }
              ]
            },
            "isActive": true
          }
        ]
      }
    },
    {
      "fullUrl": "urn:uuid:989695dd-bd12-4afc-a258-2a8f0536b7d4",
      "resource": {
        "resourceType": "MedicationStatement",
        "id": "989695dd-bd12-4afc-a258-2a8f0536b7d4",
        "meta": {
          "profile": [
            "http://hl7.org/fhir/uv/ips/StructureDefinition/MedicationStatement-uv-ips"
          ]
        },
        "effectivePeriod": {
          "start": "2019-06-21"
        },
        "dosage": [
          {
            "doseAndRate": [
              {
                "doseQuantity": {
                  "value": 1,
                  "unit": "{tbl}",
                  "code": "{tbl}"
                }
              }
            ],
            "timing": {
              "repeat": {
                "frequency": 1,
                "period": 1,
                "periodUnit": "d"
              }
            },
            "text": "1 tablet (100 mg) once daily",
            "asNeededBoolean": false
          }
        ],
        "status": "active",
        "medicationReference": {
          "reference": "Medication/b55ddb04-6cba-4538-a5e0-aed97a01059f",
          "display": "Metoprolol tartrate (as metoprolol succinate) 100 mg prolonged-release oral tablet"
        },
        "subject": {
          "reference": "Patient/955c2162-bb69-460c-ab09-7800106dcf26",
          "display": "Silvana Plak"
        }
      }
    },
    {
      "fullUrl": "urn:uuid:c1f25e10-d5ea-4267-aa05-bdf0bf17de43",
      "resource": {
        "resourceType": "Medication",
        "id": "c1f25e10-d5ea-4267-aa05-bdf0bf17de43",
        "meta": {
          "profile": [
            "http://hl7.org/fhir/uv/ips/StructureDefinition/Medication-uv-ips"
          ]
        },
        "code": {
          "coding": [
            {
              "code": "1049630",
              "system": "http://www.nlm.nih.gov/research/umls/rxnorm",
              "display": "diphenhydramine hydrochloride 25 MG Oral Tablet"
            },
            {
              "code": "320726008",
              "system": "http://snomed.info/sct",
              "display": "Product containing precisely diphenhydramine hydrochloride 25 milligram/1 each conventional release oral tablet (clinical drug)"
            }
          ],
          "text": "Diphenhydramine hydrochloride 25 mg oral tablet"
        },
        "form": {
          "coding": [
            {
              "code": "421026006",
              "system": "http://snomed.info/sct",
              "display": "Oral tablet"
            }
          ]
        },
        "ingredient": [
          {
            "itemCodeableConcept": {
              "coding": [
                {
                  "code": "19510001",
                  "system": "http://snomed.info/sct",
                  "display": "Diphenhydramine hydrochloride"
                }
              ]
            },
            "isActive": true
          }
        ]
      }
    },
    {
      "fullUrl": "urn:uuid:0c28493c-84e9-46ae-b64e-850cd53f0236",
      "resource": {
        "resourceType": "MedicationStatement",
        "id": "0c28493c-84e9-46ae-b64e-850cd53f0236",
        "meta": {
          "profile": [
            "http://hl7.org/fhir/uv/ips/StructureDefinition/MedicationStatement-uv-ips"
          ]
        },
        "effectivePeriod": {
          "start": "1964-02-10"
        },
        "dosage": [
          {
            "doseAndRate": [
              {
                "doseQuantity": {
                  "value": 1,
                  "unit": "{tbl}",
                  "code": "{tbl}"
                }
              }
            ],
            "timing": {
              "repeat": {
                "frequency": 4,
                "period": 1,
                "periodUnit": "d"
              }
            },
            "text": "1 tablet (25 mg) by mouth every 6 hours as needed",
            "asNeededBoolean": true
          }
        ],
        "status": "active",
        "medicationReference": {
          "reference": "Medication/c1f25e10-d5ea-4267-aa05-bdf0bf17de43",
          "display": "Diphenhydramine hydrochloride 25 mg oral tablet"
        },
        "subject": {
          "reference": "Patient/955c2162-bb69-460c-ab09-7800106dcf26",
          "display": "Silvana Plak"
        }
      }
    },
    {
      "fullUrl": "urn:uuid:c4ed8de7-fed1-43c1-aefc-e9d64b22db09",
      "resource": {
        "resourceType": "AllergyIntolerance",
        "id": "c4ed8de7-fed1-43c1-aefc-e9d64b22db09",
        "meta": {
          "profile": [
            "http://hl7.eu/fhir/eps/StructureDefinition/allergyIntolerance-eu-eps"
          ]
        },
        "code": {
          "coding": [
            {
              "code": "10831",
              "system": "http://snomed.info/sct",
              "display": "Sulfamethoxazole / Trimethoprim"
            }
          ],
          "text": "Sulfamethoxazole / Trimethoprim"
        },
        "category": [
          "medication"
        ],
        "reaction": [
          {
            "manifestation": [
              {
                "coding": [
                  {
                    "code": "271807003",
                    "system": "http://snomed.info/sct",
                    "display": "Eruption of skin (disorder)"
                  }
                ]
              }
            ]
          }
        ],
        "verificationStatus": {
          "coding": [
            {
              "code": "confirmed"
            }
          ]
        },
        "type": "allergy",
        "onsetDateTime": "1961-12-10",
        "clinicalStatus": {
          "coding": [
            {
              "code": "active"
            }
          ]
        },
        "patient": {
          "reference": "Patient/955c2162-bb69-460c-ab09-7800106dcf26",
          "display": "Silvana Plak"
        }
      }
    },
    {
      "fullUrl": "urn:uuid:8a64b5ee-99b7-4377-8ba0-69b6651286d3",
      "resource": {
        "resourceType": "AllergyIntolerance",
        "id": "8a64b5ee-99b7-4377-8ba0-69b6651286d3",
        "meta": {
          "profile": [
            "http://hl7.eu/fhir/eps/StructureDefinition/allergyIntolerance-eu-eps"
          ]
        },
        "code": {
          "coding": [
            {
              "code": "3718001",
              "system": "http://snomed.info/sct",
              "display": "Cow's milk (substance)"
            }
          ],
          "text": "Cow's milk"
        },
        "category": [
          "food"
        ],
        "reaction": [
          {
            "manifestation": [
              {
                "coding": [
                  {
                    "code": "247472004",
                    "system": "http://snomed.info/sct",
                    "display": "Wheal (finding)"
                  }
                ]
              }
            ]
          }
        ],
        "verificationStatus": {
          "coding": [
            {
              "code": "confirmed"
            }
          ]
        },
        "type": "allergy",
        "onsetDateTime": "1961-12-10",
        "clinicalStatus": {
          "coding": [
            {
              "code": "active"
            }
          ]
        },
        "patient": {
          "reference": "Patient/955c2162-bb69-460c-ab09-7800106dcf26",
          "display": "Silvana Plak"
        }
      }
    },
    {
      "fullUrl": "urn:uuid:89a1531a-ffd0-45d9-bf13-b6832a99683b",
      "resource": {
        "resourceType": "AllergyIntolerance",
        "id": "89a1531a-ffd0-45d9-bf13-b6832a99683b",
        "meta": {
          "profile": [
            "http://hl7.eu/fhir/eps/StructureDefinition/allergyIntolerance-eu-eps"
          ]
        },
        "code": {
          "coding": [
            {
              "code": "84489001",
              "system": "http://snomed.info/sct",
              "display": "Mold (organism)"
            }
          ],
          "text": "Mold"
        },
        "category": [
          "environment"
        ],
        "reaction": [
          {
            "manifestation": [
              {
                "coding": [
                  {
                    "code": "76067001",
                    "system": "http://snomed.info/sct",
                    "display": "Sneezing (finding)"
                  }
                ]
              }
            ]
          }
        ],
        "verificationStatus": {
          "coding": [
            {
              "code": "confirmed"
            }
          ]
        },
        "type": "allergy",
        "onsetDateTime": "1961-12-10",
        "clinicalStatus": {
          "coding": [
            {
              "code": "active"
            }
          ]
        },
        "patient": {
          "reference": "Patient/955c2162-bb69-460c-ab09-7800106dcf26",
          "display": "Silvana Plak"
        }
      }
    },
    {
      "fullUrl": "urn:uuid:39d6d828-ff0d-4823-a757-b8ec21da4111",
      "resource": {
        "resourceType": "AllergyIntolerance",
        "id": "39d6d828-ff0d-4823-a757-b8ec21da4111",
        "meta": {
          "profile": [
            "http://hl7.eu/fhir/eps/StructureDefinition/allergyIntolerance-eu-eps"
          ]
        },
        "code": {
          "coding": [
            {
              "code": "260147004",
              "system": "http://snomed.info/sct",
              "display": "House dust mite (organism)"
            }
          ],
          "text": "House dust mite"
        },
        "category": [
          "environment"
        ],
        "verificationStatus": {
          "coding": [
            {
              "code": "confirmed"
            }
          ]
        },
        "type": "allergy",
        "onsetDateTime": "1961-12-10",
        "clinicalStatus": {
          "coding": [
            {
              "code": "active"
            }
          ]
        },
        "patient": {
          "reference": "Patient/955c2162-bb69-460c-ab09-7800106dcf26",
          "display": "Silvana Plak"
        }
      }
    },
    {
      "fullUrl": "urn:uuid:4bc2cca2-f406-48dd-bb9f-3fd33d6b848f",
      "resource": {
        "resourceType": "AllergyIntolerance",
        "id": "4bc2cca2-f406-48dd-bb9f-3fd33d6b848f",
        "meta": {
          "profile": [
            "http://hl7.eu/fhir/eps/StructureDefinition/allergyIntolerance-eu-eps"
          ]
        },
        "code": {
          "coding": [
            {
              "code": "264287008",
              "system": "http://snomed.info/sct",
              "display": "Animal dander (substance)"
            }
          ],
          "text": "Animal dander"
        },
        "category": [
          "environment"
        ],
        "reaction": [
          {
            "manifestation": [
              {
                "coding": [
                  {
                    "code": "271807003",
                    "system": "http://snomed.info/sct",
                    "display": "Eruption of skin (disorder)"
                  }
                ]
              }
            ]
          }
        ],
        "verificationStatus": {
          "coding": [
            {
              "code": "confirmed"
            }
          ]
        },
        "type": "allergy",
        "onsetDateTime": "1961-12-10",
        "clinicalStatus": {
          "coding": [
            {
              "code": "active"
            }
          ]
        },
        "patient": {
          "reference": "Patient/955c2162-bb69-460c-ab09-7800106dcf26",
          "display": "Silvana Plak"
        }
      }
    },
    {
      "fullUrl": "urn:uuid:7940db65-afe0-402c-aeba-73bcd542437e",
      "resource": {
        "resourceType": "AllergyIntolerance",
        "id": "7940db65-afe0-402c-aeba-73bcd542437e",
        "meta": {
          "profile": [
            "http://hl7.eu/fhir/eps/StructureDefinition/allergyIntolerance-eu-eps"
          ]
        },
        "code": {
          "coding": [
            {
              "code": "288328004",
              "system": "http://snomed.info/sct",
              "display": "Bee venom (substance)"
            }
          ],
          "text": "Bee venom"
        },
        "category": [
          "environment"
        ],
        "reaction": [
          {
            "manifestation": [
              {
                "coding": [
                  {
                    "code": "39579001",
                    "system": "http://snomed.info/sct",
                    "display": "Anaphylaxis (disorder)"
                  }
                ]
              }
            ]
          }
        ],
        "verificationStatus": {
          "coding": [
            {
              "code": "confirmed"
            }
          ]
        },
        "type": "allergy",
        "onsetDateTime": "1961-12-10",
        "clinicalStatus": {
          "coding": [
            {
              "code": "active"
            }
          ]
        },
        "patient": {
          "reference": "Patient/955c2162-bb69-460c-ab09-7800106dcf26",
          "display": "Silvana Plak"
        }
      }
    },
    {
      "fullUrl": "urn:uuid:4cf800e2-b2aa-40aa-b878-4013c373782c",
      "resource": {
        "resourceType": "AllergyIntolerance",
        "id": "4cf800e2-b2aa-40aa-b878-4013c373782c",
        "meta": {
          "profile": [
            "http://hl7.eu/fhir/eps/StructureDefinition/allergyIntolerance-eu-eps"
          ]
        },
        "code": {
          "coding": [
            {
              "code": "609328004",
              "system": "http://snomed.info/sct",
              "display": "Allergic disposition (finding)"
            }
          ],
          "text": "Allergic disposition"
        },
        "category": [
          "environment"
        ],
        "verificationStatus": {
          "coding": [
            {
              "code": "confirmed"
            }
          ]
        },
        "type": "allergy",
        "onsetDateTime": "1961-12-10",
        "clinicalStatus": {
          "coding": [
            {
              "code": "active"
            }
          ]
        },
        "patient": {
          "reference": "Patient/955c2162-bb69-460c-ab09-7800106dcf26",
          "display": "Silvana Plak"
        }
      }
    },
    {
      "fullUrl": "urn:uuid:9b341c31-6324-457a-913c-359d9a5685fe",
      "resource": {
        "resourceType": "AllergyIntolerance",
        "id": "9b341c31-6324-457a-913c-359d9a5685fe",
        "meta": {
          "profile": [
            "http://hl7.eu/fhir/eps/StructureDefinition/allergyIntolerance-eu-eps"
          ]
        },
        "code": {
          "coding": [
            {
              "code": "782576004",
              "system": "http://snomed.info/sct",
              "display": "Tree pollen (substance)"
            }
          ],
          "text": "Tree pollen"
        },
        "category": [
          "environment"
        ],
        "verificationStatus": {
          "coding": [
            {
              "code": "confirmed"
            }
          ]
        },
        "type": "allergy",
        "onsetDateTime": "1961-12-10",
        "clinicalStatus": {
          "coding": [
            {
              "code": "active"
            }
          ]
        },
        "patient": {
          "reference": "Patient/955c2162-bb69-460c-ab09-7800106dcf26",
          "display": "Silvana Plak"
        }
      }
    },
    {
      "fullUrl": "urn:uuid:09c60634-c801-4441-994b-29ffd3b4a883",
      "resource": {
        "resourceType": "Procedure",
        "id": "09c60634-c801-4441-994b-29ffd3b4a883",
        "meta": {
          "profile": [
            "http://hl7.org/fhir/uv/ips/StructureDefinition/Procedure-uv-ips"
          ]
        },
        "code": {
          "coding": [
            {
              "code": "243063003",
              "system": "http://snomed.info/sct",
              "display": "Postoperative procedure education (procedure)"
            }
          ],
          "text": "Postoperative procedure education"
        },
        "reasonCode": [
          {
            "coding": [
              {
                "code": "399261000",
                "system": "http://snomed.info/sct",
                "display": "History of coronary artery bypass grafting (situation)"
              }
            ]
          }
        ],
        "status": "completed",
        "subject": {
          "reference": "Patient/955c2162-bb69-460c-ab09-7800106dcf26",
          "display": "Silvana Plak"
        },
        "performedDateTime": "2019-07-30"
      }
    },
    {
      "fullUrl": "urn:uuid:97e2e63c-a7e3-463c-aadb-1e88dcec0e45",
      "resource": {
        "resourceType": "Procedure",
        "id": "97e2e63c-a7e3-463c-aadb-1e88dcec0e45",
        "meta": {
          "profile": [
            "http://hl7.org/fhir/uv/ips/StructureDefinition/Procedure-uv-ips"
          ]
        },
        "code": {
          "coding": [
            {
              "code": "252482003",
              "system": "http://snomed.info/sct",
              "display": "Stair-climbing test (procedure)"
            }
          ],
          "text": "Stair-climbing test"
        },
        "reasonCode": [
          {
            "coding": [
              {
                "code": "399261000",
                "system": "http://snomed.info/sct",
                "display": "History of coronary artery bypass grafting (situation)"
              }
            ]
          }
        ],
        "status": "completed",
        "subject": {
          "reference": "Patient/955c2162-bb69-460c-ab09-7800106dcf26",
          "display": "Silvana Plak"
        },
        "performedDateTime": "2019-07-30"
      }
    },
    {
      "fullUrl": "urn:uuid:f893eb49-00a6-4480-abee-5907c4d7ee3f",
      "resource": {
        "resourceType": "Procedure",
        "id": "f893eb49-00a6-4480-abee-5907c4d7ee3f",
        "meta": {
          "profile": [
            "http://hl7.org/fhir/uv/ips/StructureDefinition/Procedure-uv-ips"
          ]
        },
        "code": {
          "coding": [
            {
              "code": "302761001",
              "system": "http://snomed.info/sct",
              "display": "Walking exercise test (procedure)"
            }
          ],
          "text": "Walking exercise test"
        },
        "reasonCode": [
          {
            "coding": [
              {
                "code": "399261000",
                "system": "http://snomed.info/sct",
                "display": "History of coronary artery bypass grafting (situation)"
              }
            ]
          }
        ],
        "status": "completed",
        "subject": {
          "reference": "Patient/955c2162-bb69-460c-ab09-7800106dcf26",
          "display": "Silvana Plak"
        },
        "performedDateTime": "2019-07-30"
      }
    },
    {
      "fullUrl": "urn:uuid:ffb4b047-78f0-415c-9281-449730932f34",
      "resource": {
        "resourceType": "Procedure",
        "id": "ffb4b047-78f0-415c-9281-449730932f34",
        "meta": {
          "profile": [
            "http://hl7.org/fhir/uv/ips/StructureDefinition/Procedure-uv-ips"
          ]
        },
        "code": {
          "coding": [
            {
              "code": "306706006",
              "system": "http://snomed.info/sct",
              "display": "Discharge to ward (procedure)"
            }
          ],
          "text": "Discharge to ward"
        },
        "status": "completed",
        "subject": {
          "reference": "Patient/955c2162-bb69-460c-ab09-7800106dcf26",
          "display": "Silvana Plak"
        },
        "performedDateTime": "2019-07-30"
      }
    },
    {
      "fullUrl": "urn:uuid:5dafaa13-3a26-409d-b341-cd576f8948f5",
      "resource": {
        "resourceType": "Procedure",
        "id": "5dafaa13-3a26-409d-b341-cd576f8948f5",
        "meta": {
          "profile": [
            "http://hl7.org/fhir/uv/ips/StructureDefinition/Procedure-uv-ips"
          ]
        },
        "code": {
          "coding": [
            {
              "code": "308283009",
              "system": "http://snomed.info/sct",
              "display": "Discharge from hospital (procedure)"
            }
          ],
          "text": "Discharge from hospital"
        },
        "reasonCode": [
          {
            "coding": [
              {
                "code": "399261000",
                "system": "http://snomed.info/sct",
                "display": "History of coronary artery bypass grafting (situation)"
              }
            ]
          }
        ],
        "status": "completed",
        "subject": {
          "reference": "Patient/955c2162-bb69-460c-ab09-7800106dcf26",
          "display": "Silvana Plak"
        },
        "performedDateTime": "2019-07-30"
      }
    },
    {
      "fullUrl": "urn:uuid:0db3f7a0-4a33-45a1-ab53-19c55d2eccf0",
      "resource": {
        "resourceType": "Procedure",
        "id": "0db3f7a0-4a33-45a1-ab53-19c55d2eccf0",
        "meta": {
          "profile": [
            "http://hl7.org/fhir/uv/ips/StructureDefinition/Procedure-uv-ips"
          ]
        },
        "code": {
          "coding": [
            {
              "code": "29303009",
              "system": "http://snomed.info/sct",
              "display": "Electrocardiographic procedure (procedure)"
            }
          ],
          "text": "Electrocardiographic procedure"
        },
        "status": "completed",
        "subject": {
          "reference": "Patient/955c2162-bb69-460c-ab09-7800106dcf26",
          "display": "Silvana Plak"
        },
        "performedDateTime": "2019-07-29"
      }
    },
    {
      "fullUrl": "urn:uuid:a5a1b634-8c15-43a9-b9d6-4701f227d3cb",
      "resource": {
        "resourceType": "Procedure",
        "id": "a5a1b634-8c15-43a9-b9d6-4701f227d3cb",
        "meta": {
          "profile": [
            "http://hl7.org/fhir/uv/ips/StructureDefinition/Procedure-uv-ips"
          ]
        },
        "code": {
          "coding": [
            {
              "code": "71493000",
              "system": "http://snomed.info/sct",
              "display": "Transfusion of packed red blood cells (procedure)"
            }
          ],
          "text": "Transfusion of packed red blood cells"
        },
        "status": "completed",
        "subject": {
          "reference": "Patient/955c2162-bb69-460c-ab09-7800106dcf26",
          "display": "Silvana Plak"
        },
        "performedDateTime": "2019-07-29"
      }
    },
    {
      "fullUrl": "urn:uuid:705344ce-8c7d-4e6b-9a83-783d2c92bae1",
      "resource": {
        "resourceType": "Procedure",
        "id": "705344ce-8c7d-4e6b-9a83-783d2c92bae1",
        "meta": {
          "profile": [
            "http://hl7.org/fhir/uv/ips/StructureDefinition/Procedure-uv-ips"
          ]
        },
        "code": {
          "coding": [
            {
              "code": "399208008",
              "system": "http://snomed.info/sct",
              "display": "Plain X-ray of chest (procedure)"
            }
          ],
          "text": "Plain X-ray of chest"
        },
        "status": "completed",
        "subject": {
          "reference": "Patient/955c2162-bb69-460c-ab09-7800106dcf26",
          "display": "Silvana Plak"
        },
        "performedDateTime": "2019-07-29"
      }
    },
    {
      "fullUrl": "urn:uuid:49490442-00d6-40bf-979a-b0bb6a669087",
      "resource": {
        "resourceType": "Procedure",
        "id": "49490442-00d6-40bf-979a-b0bb6a669087",
        "meta": {
          "profile": [
            "http://hl7.org/fhir/uv/ips/StructureDefinition/Procedure-uv-ips"
          ]
        },
        "code": {
          "coding": [
            {
              "code": "271280005",
              "system": "http://snomed.info/sct",
              "display": "Removal of endotracheal tube (procedure)"
            }
          ],
          "text": "Removal of endotracheal tube"
        },
        "status": "completed",
        "subject": {
          "reference": "Patient/955c2162-bb69-460c-ab09-7800106dcf26",
          "display": "Silvana Plak"
        },
        "performedDateTime": "2019-07-24"
      }
    },
    {
      "fullUrl": "urn:uuid:39b7cd00-ebd4-4922-a9ef-82154ebcad8c",
      "resource": {
        "resourceType": "Immunization",
        "id": "39b7cd00-ebd4-4922-a9ef-82154ebcad8c",
        "meta": {
          "profile": [
            "http://hl7.org/fhir/uv/ips/StructureDefinition/Immunization-uv-ips"
          ]
        },
        "vaccineCode": {
          "coding": [
            {
              "code": "1181000221105",
              "system": "http://snomed.info/sct",
              "display": "Vaccine product containing Influenza virus antigen"
            },
            {
              "code": "J07BB02",
              "system": "http://www.whocc.no/atc",
              "display": "Influenza, inactivated, split virus"
            },
            {
              "code": "140",
              "system": "http://hl7.org/fhir/sid/cvx",
              "display": "Influenza  seasonal  injectable  preservative free"
            }
          ],
          "text": "Influenza virus antigen only vaccine product"
        },
        "site": {
          "coding": [
            {
              "code": "73776007",
              "system": "http://snomed.info/sct",
              "display": "Structure of muscle of upper arm"
            }
          ],
          "text": "Structure of muscle of upper arm"
        },
        "route": {
          "coding": [
            {
              "code": "78421000",
              "system": "http://snomed.info/sct",
              "display": "Intramuscular route"
            }
          ],
          "text": "Intramuscular route"
        },
        "status": "completed",
        "patient": {
          "reference": "Patient/955c2162-bb69-460c-ab09-7800106dcf26",
          "display": "Silvana Plak"
        },
        "occurrenceDateTime": "2024-07-12",
        "lotNumber": "CM-LUhES",
        "expirationDate": "2025-06-12"
      }
    },
    {
      "fullUrl": "urn:uuid:a2eff48f-dd70-4d18-b0db-20e93fb0e3a5",
      "resource": {
        "resourceType": "Immunization",
        "id": "a2eff48f-dd70-4d18-b0db-20e93fb0e3a5",
        "meta": {
          "profile": [
            "http://hl7.org/fhir/uv/ips/StructureDefinition/Immunization-uv-ips"
          ]
        },
        "vaccineCode": {
          "coding": [
            {
              "code": "777725002",
              "system": "http://snomed.info/sct",
              "display": "Vaccine product containing only Clostridium tetani toxoid antigen adsorbed"
            },
            {
              "code": "J07AM51",
              "system": "http://www.whocc.no/atc",
              "display": "Diphtheria-tetanus vaccines, adult type"
            },
            {
              "code": "113",
              "system": "http://hl7.org/fhir/sid/cvx",
              "display": "Td (adult)  5 Lf tetanus toxoid  preservative free  adsorbed"
            }
          ],
          "text": "Clostridium tetani toxoid antigen adsorbed only vaccine product"
        },
        "site": {
          "coding": [
            {
              "code": "73776007",
              "system": "http://snomed.info/sct",
              "display": "Structure of muscle of upper arm"
            }
          ],
          "text": "Structure of muscle of upper arm"
        },
        "route": {
          "coding": [
            {
              "code": "78421000",
              "system": "http://snomed.info/sct",
              "display": "Intramuscular route"
            }
          ],
          "text": "Intramuscular route"
        },
        "status": "completed",
        "patient": {
          "reference": "Patient/955c2162-bb69-460c-ab09-7800106dcf26",
          "display": "Silvana Plak"
        },
        "occurrenceDateTime": "2022-07-01",
        "lotNumber": "PX-jtMmoY",
        "expirationDate": "2022-09-08"
      }
    },
    {
      "fullUrl": "urn:uuid:9eadf496-bf14-433f-be65-0579049a1e3f",
      "resource": {
        "resourceType": "Immunization",
        "id": "9eadf496-bf14-433f-be65-0579049a1e3f",
        "meta": {
          "profile": [
            "http://hl7.org/fhir/uv/ips/StructureDefinition/Immunization-uv-ips"
          ]
        },
        "vaccineCode": {
          "coding": [
            {
              "code": "29061000087103",
              "system": "http://snomed.info/sct",
              "display": "Vaccine product containing recombinant viral vector encoding SARS-CoV-2 spike protein"
            },
            {
              "code": "J07BX03",
              "system": "http://www.whocc.no/atc",
              "display": "COVID-19 vector vaccines (non-replicating)"
            },
            {
              "code": "212",
              "system": "http://hl7.org/fhir/sid/cvx",
              "display": "COVID-19 vaccine  vector-nr  rS-Ad26  PF  0.5 mL"
            }
          ],
          "text": "COVID-19 non-replicating viral vector vaccine"
        },
        "site": {
          "coding": [
            {
              "code": "73776007",
              "system": "http://snomed.info/sct",
              "display": "Structure of muscle of upper arm"
            }
          ],
          "text": "Structure of muscle of upper arm"
        },
        "route": {
          "coding": [
            {
              "code": "78421000",
              "system": "http://snomed.info/sct",
              "display": "Intramuscular route"
            }
          ],
          "text": "Intramuscular route"
        },
        "status": "completed",
        "patient": {
          "reference": "Patient/955c2162-bb69-460c-ab09-7800106dcf26",
          "display": "Silvana Plak"
        },
        "occurrenceDateTime": "2021-04-02",
        "lotNumber": "WM-9szYnwm8",
        "expirationDate": "2022-03-18"
      }
    }
  ],
  "type": "document",
  "timestamp": "2025-06-17T11:26:49Z"
}
