{
  "resourceType": "Bundle",
  "id": "Instance-Bundle-51e2f7bb-c939-4055-96db-109e7dde9012",
  "meta": {
    "profile": [
      "http://hl7.eu/fhir/eps/StructureDefinition/bundle-eu-eps"
    ]
  },
  "identifier": {
    "assigner": {
      "display": "HL7 Europe"
    },
    "system": "urn:oid:2.16.840.1.113883.2.51.999",
    "value": "0d5078e2-d446-4cc0-b628-3ec5bc0c67b2"
  },
  "entry": [
    {
      "fullUrl": "urn:uuid:f885bfe8-ffca-42c3-a98f-8255e85edc2c",
      "resource": {
        "resourceType": "Composition",
        "id": "f885bfe8-ffca-42c3-a98f-8255e85edc2c",
        "meta": {
          "profile": [
            "http://hl7.eu/fhir/eps/StructureDefinition/composition-eu-eps"
          ]
        },
        "identifier": {
          "assigner": {
            "display": "HL7 Europe"
          },
          "system": "urn:oid:2.16.840.1.113883.2.51.999",
          "value": "cb08ced8-c401-46b3-a511-37d6132061af"
        },
        "type": {
          "coding": [
            {
              "system": "http://loinc.org",
              "code": "60591-5",
              "display": "European Patient Summary"
            }
          ],
          "text": "European Patient Summary"
        },
        "author": [
          {
            "reference": "urn:uuid:311d5181-813e-41bc-b26a-fe0566f09937"
          }
        ],
        "section": [
          {
            "text": {
              "status": "generated",
              "div": "<div xmlns=\"http://www.w3.org/1999/xhtml\"><table class=\"hl7__ips\"><tr><td>Type 2 diabetes mellitus</td><td>2024-11-11</td><td>active</td></tr><tr><td>Osteoarthritis of knee</td><td>2009-12-01</td><td>active</td></tr><tr><td>Gingivitis</td><td>2023-11-06</td><td>inactive</td></tr><tr><td>Viral sinusitis</td><td>2023-05-19</td><td>inactive</td></tr><tr><td>Gingivitis</td><td>2021-10-25</td><td>inactive</td></tr><tr><td>Gingivitis</td><td>2019-10-14</td><td>inactive</td></tr><tr><td>Viral sinusitis</td><td>2018-11-22</td><td>inactive</td></tr><tr><td>Gingival disease</td><td>2018-10-22</td><td>inactive</td></tr><tr><td>Fracture of clavicle</td><td>2017-02-27</td><td>inactive</td></tr><tr><td>Fracture of bone</td><td>2017-02-27</td><td>inactive</td></tr></table></div>"
            },
            "entry": [
              {
                "reference": "urn:uuid:4dc08445-2445-4507-8e9c-166d58edfbf7"
              },
              {
                "reference": "urn:uuid:587a6549-03e5-45c3-a72a-6268f520f404"
              },
              {
                "reference": "urn:uuid:ea41f08f-add3-495b-b4fa-dd4c602aa77d"
              },
              {
                "reference": "urn:uuid:bf43cb62-6316-4c18-891d-edfd67878574"
              },
              {
                "reference": "urn:uuid:70905a7a-4a1a-4cc4-bf1c-4705d832ec47"
              },
              {
                "reference": "urn:uuid:ffbe884d-3cd8-4baf-8134-a4baf8e15e93"
              },
              {
                "reference": "urn:uuid:bc230235-0eff-47af-a8bd-56e90d25f58b"
              },
              {
                "reference": "urn:uuid:d90085ea-9bbb-4124-a7e7-cc852149aa14"
              },
              {
                "reference": "urn:uuid:570f2219-9784-43b4-9fdd-22426fa3e078"
              },
              {
                "reference": "urn:uuid:ab9ab372-ee69-4394-a524-63477d8caf95"
              }
            ],
            "code": {
              "coding": [
                {
                  "system": "http://loinc.org",
                  "code": "11450-4",
                  "display": "Problem list - Reported"
                }
              ]
            },
            "title": "Problem list"
          },
          {
            "text": {
              "status": "generated",
              "div": "<div xmlns=\"http://www.w3.org/1999/xhtml\"><table class=\"hl7__ips\"><tr><td>Metformin hydrochloride 500 mg prolonged-release oral tablet</td><td>2024-11-11</td><td>Prolonged-release oral tablet</td><td>1 tablet (500 mg) once daily\"</td><td>Reason: Diabetes mellitus type 2 (disorder)</td></tr><tr><td>Naproxen sodium 220 MG Oral Tablet</td><td>2009-12-01</td><td></td><td>1 tablet (220 mg) every 8 to 12 hours as needed\"</td><td>Reason: Osteoarthritis of knee (disorder)</td></tr><tr><td>ferrous sulfate 325 MG Oral Tablet</td><td>2001-02-05</td><td></td><td>1 tablet (325 mg) by mouth once daily\"</td><td></td></tr><tr><td>Diphenhydramine hydrochloride 25 mg oral tablet</td><td>1969-03-23</td><td>Oral tablet</td><td>1 tablet (25 mg) every 4 to 6 hours as needed\"</td><td></td></tr></table></div>"
            },
            "entry": [
              {
                "reference": "urn:uuid:aa7a200f-cfcb-46c6-a5c0-6c528562f283"
              },
              {
                "reference": "urn:uuid:6d0eceb0-e19e-45df-83a1-b626d5089c8a"
              },
              {
                "reference": "urn:uuid:eb295794-7077-4eb8-a2cb-583c133cfa02"
              },
              {
                "reference": "urn:uuid:02ff573b-071c-4452-bafe-63e496f92bc7"
              }
            ],
            "code": {
              "coding": [
                {
                  "system": "http://loinc.org",
                  "code": "10160-0",
                  "display": "History of Medication use Narrative"
                }
              ]
            },
            "title": "Medication list"
          },
          {
            "text": {
              "status": "generated",
              "div": "<div xmlns=\"http://www.w3.org/1999/xhtml\"><table class=\"hl7__ips\"><tr><td></td><td>1969-03-27</td><td>active</td><td>medication</td></tr><tr><td>Allergic disposition</td><td>1969-03-27</td><td>active</td><td>environment</td></tr><tr><td>Tree pollen</td><td>1969-03-27</td><td>active</td><td>environment</td></tr></table></div>"
            },
            "entry": [
              {
                "reference": "urn:uuid:1bdfb5a6-1879-466e-9074-9177960d376e"
              },
              {
                "reference": "urn:uuid:47d62316-f61f-4cbc-a6b2-9d8515f33863"
              },
              {
                "reference": "urn:uuid:1c4bf728-19fc-4c67-9a7b-7fdae849d687"
              }
            ],
            "code": {
              "coding": [
                {
                  "system": "http://loinc.org",
                  "code": "48765-2",
                  "display": "Allergies and adverse reactions Document"
                }
              ]
            },
            "title": "Allergies and Intolerances"
          },
          {
            "text": {
              "status": "generated",
              "div": "<div xmlns=\"http://www.w3.org/1999/xhtml\"><table class=\"hl7__ips\"><tr><td>Plain X-ray of clavicle</td><td>2017-02-27</td><td>-</td></tr><tr><td>Admission to orthopedic department</td><td>2017-02-27</td><td>Fracture of clavicle (disorder)</td></tr></table></div>"
            },
            "entry": [
              {
                "reference": "urn:uuid:3f578d1a-79b7-44c4-9959-5b3cd3bd67b8"
              },
              {
                "reference": "urn:uuid:056119ee-40c2-41e8-b941-59ae012f7821"
              }
            ],
            "code": {
              "coding": [
                {
                  "system": "http://loinc.org",
                  "code": "47519-4",
                  "display": "History of Procedures Document"
                }
              ]
            },
            "title": "Procedure History list"
          },
          {
            "text": {
              "status": "generated",
              "div": "<div xmlns=\"http://www.w3.org/1999/xhtml\"><table class=\"hl7__ips\"><tr><td>Influenza virus antigen only vaccine product</td><td>2024-11-11</td></tr><tr><td>COVID-19 non-replicating viral vector vaccine</td><td>2021-04-26</td></tr><tr><td>Clostridium tetani toxoid antigen adsorbed only vaccine product</td><td>2017-10-02</td></tr><tr><td>Live attenuated Human alphaherpesvirus 3 only vaccine product</td><td>2017-10-02</td></tr></table></div>"
            },
            "entry": [
              {
                "reference": "urn:uuid:8e0741f7-774d-48cb-8935-3151391c06d9"
              },
              {
                "reference": "urn:uuid:f4a2fd25-aef8-4d9c-8d60-2f77aaaf12ef"
              },
              {
                "reference": "urn:uuid:02ae31f2-aa80-4979-9841-820c32837021"
              },
              {
                "reference": "urn:uuid:1a9a9ada-3d0e-40e3-8564-16bafbeba1b0"
              }
            ],
            "code": {
              "coding": [
                {
                  "system": "http://loinc.org",
                  "code": "11369-6",
                  "display": "History of Immunization Narrative"
                }
              ]
            },
            "title": "Immunizations list"
          }
        ],
        "title": "European Patient Summary",
        "status": "final",
        "subject": {
          "reference": "urn:uuid:e5926f58-4410-43a7-9ef3-e161ceb49dc6"
        },
        "date": "2025-06-06T16:21:09Z",
        "confidentiality": "N"
      }
    },
    {
      "fullUrl": "urn:uuid:e5926f58-4410-43a7-9ef3-e161ceb49dc6",
      "resource": {
        "resourceType": "Patient",
        "id": "e5926f58-4410-43a7-9ef3-e161ceb49dc6",
        "meta": {
          "profile": [
            "http://hl7.eu/fhir/eps/StructureDefinition/patient-eu-eps"
          ]
        },
        "identifier": [
          {
            "type": {
              "coding": [
                {
                  "code": "NI",
                  "system": "http://terminology.hl7.org/CodeSystem/v2-0203"
                }
              ]
            },
            "system": "http://ec.europa.eu/identifier/eci",
            "value": "6132-571926-0"
          },
          {
            "type": {
              "coding": [
                {
                  "code": "MR",
                  "system": "http://terminology.hl7.org/CodeSystem/v2-0203"
                }
              ]
            },
            "system": "http://local.setting.eu/identifier",
            "value": "a9bc03f1-d240-2abe-f5e4-cfb2b06c815b"
          }
        ],
        "name": [
          {
            "given": [
              "Eliane"
            ],
            "family": "Rijneveld",
            "text": "Eliane Rijneveld"
          }
        ],
        "address": [
          {
            "line": [
              "Taille Maréchal 477"
            ],
            "use": "home",
            "type": "physical",
            "city": "Ganshoren",
            "postalCode": "1083",
            "country": "Belgium"
          }
        ],
        "telecom": [
          {
            "system": "phone",
            "value": "+32 0499 89 61 55"
          }
        ],
        "gender": "female",
        "birthDate": "1969-02-25"
      }
    },
    {
      "fullUrl": "urn:uuid:311d5181-813e-41bc-b26a-fe0566f09937",
      "resource": {
        "resourceType": "PractitionerRole",
        "id": "d2cb2678-7c2f-4c68-81a4-b403f7306787",
        "meta": {
          "profile": [
            "http://hl7.eu/fhir/eps/StructureDefinition/practitionerRole-eu-eps"
          ]
        },
        "organization": {
          "reference": "Organization/5e9b6cd6-8947-452a-8c9b-7d4037468238"
        }
      }
    },
    {
      "fullUrl": "urn:uuid:4dc08445-2445-4507-8e9c-166d58edfbf7",
      "resource": {
        "resourceType": "Condition",
        "id": "4dc08445-2445-4507-8e9c-166d58edfbf7",
        "meta": {
          "profile": [
            "http://hl7.org/fhir/uv/ips/StructureDefinition/Condition-uv-ips"
          ]
        },
        "category": [
          {
            "coding": [
              {
                "code": "problem-list-item",
                "system": "http://terminology.hl7.org/CodeSystem/condition-category",
                "display": "Problem List Item"
              }
            ]
          }
        ],
        "code": {
          "coding": [
            {
              "code": "44054006",
              "system": "http://snomed.info/sct",
              "display": "Diabetes mellitus type 2 (disorder)"
            }
          ],
          "text": "Type 2 diabetes mellitus"
        },
        "onsetDateTime": "2024-11-11",
        "clinicalStatus": {
          "coding": [
            {
              "code": "active",
              "system": "http://terminology.hl7.org/CodeSystem/condition-clinical"
            }
          ]
        },
        "subject": {
          "reference": "Patient/e5926f58-4410-43a7-9ef3-e161ceb49dc6",
          "display": "Eliane Rijneveld"
        },
        "asserter": {
          "reference": "PractitionerRole/d2cb2678-7c2f-4c68-81a4-b403f7306787",
          "display": "Ziekenhuis Inkendaal"
        }
      }
    },
    {
      "fullUrl": "urn:uuid:587a6549-03e5-45c3-a72a-6268f520f404",
      "resource": {
        "resourceType": "Condition",
        "id": "587a6549-03e5-45c3-a72a-6268f520f404",
        "meta": {
          "profile": [
            "http://hl7.org/fhir/uv/ips/StructureDefinition/Condition-uv-ips"
          ]
        },
        "category": [
          {
            "coding": [
              {
                "code": "problem-list-item",
                "system": "http://terminology.hl7.org/CodeSystem/condition-category",
                "display": "Problem List Item"
              }
            ]
          }
        ],
        "code": {
          "coding": [
            {
              "code": "239873007",
              "system": "http://snomed.info/sct",
              "display": "Osteoarthritis of knee (disorder)"
            }
          ],
          "text": "Osteoarthritis of knee"
        },
        "onsetDateTime": "2009-12-01",
        "clinicalStatus": {
          "coding": [
            {
              "code": "active",
              "system": "http://terminology.hl7.org/CodeSystem/condition-clinical"
            }
          ]
        },
        "subject": {
          "reference": "Patient/e5926f58-4410-43a7-9ef3-e161ceb49dc6",
          "display": "Eliane Rijneveld"
        },
        "asserter": {
          "reference": "PractitionerRole/d2cb2678-7c2f-4c68-81a4-b403f7306787",
          "display": "Ziekenhuis Inkendaal"
        }
      }
    },
    {
      "fullUrl": "urn:uuid:ea41f08f-add3-495b-b4fa-dd4c602aa77d",
      "resource": {
        "resourceType": "Condition",
        "id": "ea41f08f-add3-495b-b4fa-dd4c602aa77d",
        "meta": {
          "profile": [
            "http://hl7.org/fhir/uv/ips/StructureDefinition/Condition-uv-ips"
          ]
        },
        "category": [
          {
            "coding": [
              {
                "code": "problem-list-item",
                "system": "http://terminology.hl7.org/CodeSystem/condition-category",
                "display": "Problem List Item"
              }
            ]
          }
        ],
        "code": {
          "coding": [
            {
              "code": "66383009",
              "system": "http://snomed.info/sct",
              "display": "Gingivitis (disorder)"
            }
          ],
          "text": "Gingivitis"
        },
        "onsetDateTime": "2023-11-06",
        "clinicalStatus": {
          "coding": [
            {
              "code": "inactive",
              "system": "http://terminology.hl7.org/CodeSystem/condition-clinical"
            }
          ]
        },
        "subject": {
          "reference": "Patient/e5926f58-4410-43a7-9ef3-e161ceb49dc6",
          "display": "Eliane Rijneveld"
        },
        "asserter": {
          "reference": "PractitionerRole/d2cb2678-7c2f-4c68-81a4-b403f7306787",
          "display": "Ziekenhuis Inkendaal"
        }
      }
    },
    {
      "fullUrl": "urn:uuid:bf43cb62-6316-4c18-891d-edfd67878574",
      "resource": {
        "resourceType": "Condition",
        "id": "bf43cb62-6316-4c18-891d-edfd67878574",
        "meta": {
          "profile": [
            "http://hl7.org/fhir/uv/ips/StructureDefinition/Condition-uv-ips"
          ]
        },
        "category": [
          {
            "coding": [
              {
                "code": "problem-list-item",
                "system": "http://terminology.hl7.org/CodeSystem/condition-category",
                "display": "Problem List Item"
              }
            ]
          }
        ],
        "code": {
          "coding": [
            {
              "code": "444814009",
              "system": "http://snomed.info/sct",
              "display": "Viral sinusitis (disorder)"
            }
          ],
          "text": "Viral sinusitis"
        },
        "onsetDateTime": "2023-05-19",
        "clinicalStatus": {
          "coding": [
            {
              "code": "inactive",
              "system": "http://terminology.hl7.org/CodeSystem/condition-clinical"
            }
          ]
        },
        "subject": {
          "reference": "Patient/e5926f58-4410-43a7-9ef3-e161ceb49dc6",
          "display": "Eliane Rijneveld"
        },
        "asserter": {
          "reference": "PractitionerRole/d2cb2678-7c2f-4c68-81a4-b403f7306787",
          "display": "Ziekenhuis Inkendaal"
        }
      }
    },
    {
      "fullUrl": "urn:uuid:70905a7a-4a1a-4cc4-bf1c-4705d832ec47",
      "resource": {
        "resourceType": "Condition",
        "id": "70905a7a-4a1a-4cc4-bf1c-4705d832ec47",
        "meta": {
          "profile": [
            "http://hl7.org/fhir/uv/ips/StructureDefinition/Condition-uv-ips"
          ]
        },
        "category": [
          {
            "coding": [
              {
                "code": "problem-list-item",
                "system": "http://terminology.hl7.org/CodeSystem/condition-category",
                "display": "Problem List Item"
              }
            ]
          }
        ],
        "code": {
          "coding": [
            {
              "code": "66383009",
              "system": "http://snomed.info/sct",
              "display": "Gingivitis (disorder)"
            }
          ],
          "text": "Gingivitis"
        },
        "onsetDateTime": "2021-10-25",
        "clinicalStatus": {
          "coding": [
            {
              "code": "inactive",
              "system": "http://terminology.hl7.org/CodeSystem/condition-clinical"
            }
          ]
        },
        "subject": {
          "reference": "Patient/e5926f58-4410-43a7-9ef3-e161ceb49dc6",
          "display": "Eliane Rijneveld"
        },
        "asserter": {
          "reference": "PractitionerRole/d2cb2678-7c2f-4c68-81a4-b403f7306787",
          "display": "Ziekenhuis Inkendaal"
        }
      }
    },
    {
      "fullUrl": "urn:uuid:ffbe884d-3cd8-4baf-8134-a4baf8e15e93",
      "resource": {
        "resourceType": "Condition",
        "id": "ffbe884d-3cd8-4baf-8134-a4baf8e15e93",
        "meta": {
          "profile": [
            "http://hl7.org/fhir/uv/ips/StructureDefinition/Condition-uv-ips"
          ]
        },
        "category": [
          {
            "coding": [
              {
                "code": "problem-list-item",
                "system": "http://terminology.hl7.org/CodeSystem/condition-category",
                "display": "Problem List Item"
              }
            ]
          }
        ],
        "code": {
          "coding": [
            {
              "code": "66383009",
              "system": "http://snomed.info/sct",
              "display": "Gingivitis (disorder)"
            }
          ],
          "text": "Gingivitis"
        },
        "onsetDateTime": "2019-10-14",
        "clinicalStatus": {
          "coding": [
            {
              "code": "inactive",
              "system": "http://terminology.hl7.org/CodeSystem/condition-clinical"
            }
          ]
        },
        "subject": {
          "reference": "Patient/e5926f58-4410-43a7-9ef3-e161ceb49dc6",
          "display": "Eliane Rijneveld"
        },
        "asserter": {
          "reference": "PractitionerRole/d2cb2678-7c2f-4c68-81a4-b403f7306787",
          "display": "Ziekenhuis Inkendaal"
        }
      }
    },
    {
      "fullUrl": "urn:uuid:bc230235-0eff-47af-a8bd-56e90d25f58b",
      "resource": {
        "resourceType": "Condition",
        "id": "bc230235-0eff-47af-a8bd-56e90d25f58b",
        "meta": {
          "profile": [
            "http://hl7.org/fhir/uv/ips/StructureDefinition/Condition-uv-ips"
          ]
        },
        "category": [
          {
            "coding": [
              {
                "code": "problem-list-item",
                "system": "http://terminology.hl7.org/CodeSystem/condition-category",
                "display": "Problem List Item"
              }
            ]
          }
        ],
        "code": {
          "coding": [
            {
              "code": "444814009",
              "system": "http://snomed.info/sct",
              "display": "Viral sinusitis (disorder)"
            }
          ],
          "text": "Viral sinusitis"
        },
        "onsetDateTime": "2018-11-22",
        "clinicalStatus": {
          "coding": [
            {
              "code": "inactive",
              "system": "http://terminology.hl7.org/CodeSystem/condition-clinical"
            }
          ]
        },
        "subject": {
          "reference": "Patient/e5926f58-4410-43a7-9ef3-e161ceb49dc6",
          "display": "Eliane Rijneveld"
        },
        "asserter": {
          "reference": "PractitionerRole/d2cb2678-7c2f-4c68-81a4-b403f7306787",
          "display": "Ziekenhuis Inkendaal"
        }
      }
    },
    {
      "fullUrl": "urn:uuid:d90085ea-9bbb-4124-a7e7-cc852149aa14",
      "resource": {
        "resourceType": "Condition",
        "id": "d90085ea-9bbb-4124-a7e7-cc852149aa14",
        "meta": {
          "profile": [
            "http://hl7.org/fhir/uv/ips/StructureDefinition/Condition-uv-ips"
          ]
        },
        "category": [
          {
            "coding": [
              {
                "code": "problem-list-item",
                "system": "http://terminology.hl7.org/CodeSystem/condition-category",
                "display": "Problem List Item"
              }
            ]
          }
        ],
        "code": {
          "coding": [
            {
              "code": "18718003",
              "system": "http://snomed.info/sct",
              "display": "Gingival disease (disorder)"
            }
          ],
          "text": "Gingival disease"
        },
        "onsetDateTime": "2018-10-22",
        "clinicalStatus": {
          "coding": [
            {
              "code": "inactive",
              "system": "http://terminology.hl7.org/CodeSystem/condition-clinical"
            }
          ]
        },
        "subject": {
          "reference": "Patient/e5926f58-4410-43a7-9ef3-e161ceb49dc6",
          "display": "Eliane Rijneveld"
        },
        "asserter": {
          "reference": "PractitionerRole/d2cb2678-7c2f-4c68-81a4-b403f7306787",
          "display": "Ziekenhuis Inkendaal"
        }
      }
    },
    {
      "fullUrl": "urn:uuid:570f2219-9784-43b4-9fdd-22426fa3e078",
      "resource": {
        "resourceType": "Condition",
        "id": "570f2219-9784-43b4-9fdd-22426fa3e078",
        "meta": {
          "profile": [
            "http://hl7.org/fhir/uv/ips/StructureDefinition/Condition-uv-ips"
          ]
        },
        "category": [
          {
            "coding": [
              {
                "code": "problem-list-item",
                "system": "http://terminology.hl7.org/CodeSystem/condition-category",
                "display": "Problem List Item"
              }
            ]
          }
        ],
        "code": {
          "coding": [
            {
              "code": "58150001",
              "system": "http://snomed.info/sct",
              "display": "Fracture of clavicle (disorder)"
            }
          ],
          "text": "Fracture of clavicle"
        },
        "onsetDateTime": "2017-02-27",
        "clinicalStatus": {
          "coding": [
            {
              "code": "inactive",
              "system": "http://terminology.hl7.org/CodeSystem/condition-clinical"
            }
          ]
        },
        "subject": {
          "reference": "Patient/e5926f58-4410-43a7-9ef3-e161ceb49dc6",
          "display": "Eliane Rijneveld"
        },
        "asserter": {
          "reference": "PractitionerRole/d2cb2678-7c2f-4c68-81a4-b403f7306787",
          "display": "Ziekenhuis Inkendaal"
        }
      }
    },
    {
      "fullUrl": "urn:uuid:ab9ab372-ee69-4394-a524-63477d8caf95",
      "resource": {
        "resourceType": "Condition",
        "id": "ab9ab372-ee69-4394-a524-63477d8caf95",
        "meta": {
          "profile": [
            "http://hl7.org/fhir/uv/ips/StructureDefinition/Condition-uv-ips"
          ]
        },
        "category": [
          {
            "coding": [
              {
                "code": "problem-list-item",
                "system": "http://terminology.hl7.org/CodeSystem/condition-category",
                "display": "Problem List Item"
              }
            ]
          }
        ],
        "code": {
          "coding": [
            {
              "code": "125605004",
              "system": "http://snomed.info/sct",
              "display": "Fracture of bone (disorder)"
            }
          ],
          "text": "Fracture of bone"
        },
        "onsetDateTime": "2017-02-27",
        "clinicalStatus": {
          "coding": [
            {
              "code": "inactive",
              "system": "http://terminology.hl7.org/CodeSystem/condition-clinical"
            }
          ]
        },
        "subject": {
          "reference": "Patient/e5926f58-4410-43a7-9ef3-e161ceb49dc6",
          "display": "Eliane Rijneveld"
        },
        "asserter": {
          "reference": "PractitionerRole/d2cb2678-7c2f-4c68-81a4-b403f7306787",
          "display": "Ziekenhuis Inkendaal"
        }
      }
    },
    {
      "fullUrl": "urn:uuid:92d603db-5093-4b51-8845-b370526e9c26",
      "resource": {
        "resourceType": "Medication",
        "id": "92d603db-5093-4b51-8845-b370526e9c26",
        "meta": {
          "profile": [
            "http://hl7.org/fhir/uv/ips/StructureDefinition/Medication-uv-ips"
          ]
        },
        "code": {
          "coding": [
            {
              "code": "860975",
              "system": "http://www.nlm.nih.gov/research/umls/rxnorm",
              "display": "24 HR metformin hydrochloride 500 MG Extended Release Oral Tablet"
            },
            {
              "code": "765507008",
              "system": "http://snomed.info/sct",
              "display": "Product containing precisely metformin hydrochloride 500 milligram/1 each prolonged-release oral tablet (clinical drug)"
            }
          ],
          "text": "Metformin hydrochloride 500 mg prolonged-release oral tablet"
        },
        "form": {
          "coding": [
            {
              "code": "385060002",
              "system": "http://snomed.info/sct",
              "display": "Prolonged-release oral tablet"
            }
          ]
        },
        "ingredient": [
          {
            "itemCodeableConcept": {
              "coding": [
                {
                  "code": "109083009",
                  "system": "http://snomed.info/sct",
                  "display": "Metformin hydrochloride"
                }
              ]
            },
            "isActive": true
          }
        ]
      }
    },
    {
      "fullUrl": "urn:uuid:aa7a200f-cfcb-46c6-a5c0-6c528562f283",
      "resource": {
        "resourceType": "MedicationStatement",
        "id": "aa7a200f-cfcb-46c6-a5c0-6c528562f283",
        "effectivePeriod": {
          "start": "2024-11-11"
        },
        "dosage": [
          {
            "doseAndRate": [
              {
                "doseQuantity": {
                  "value": 1,
                  "unit": "{tbl}",
                  "code": "{tbl}"
                }
              }
            ],
            "timing": {
              "repeat": {
                "frequency": 1,
                "period": 1,
                "periodUnit": "d"
              }
            },
            "text": "1 tablet (500 mg) once daily",
            "asNeededBoolean": false
          }
        ],
        "reasonCode": [
          {
            "coding": [
              {
                "code": "44054006",
                "system": "http://snomed.info/sct",
                "display": "Diabetes mellitus type 2 (disorder)"
              }
            ]
          }
        ],
        "status": "active",
        "medicationReference": {
          "reference": "Medication/92d603db-5093-4b51-8845-b370526e9c26",
          "display": "Metformin hydrochloride 500 mg prolonged-release oral tablet"
        },
        "subject": {
          "reference": "Patient/e5926f58-4410-43a7-9ef3-e161ceb49dc6",
          "display": "Eliane Rijneveld"
        }
      }
    },
    {
      "fullUrl": "urn:uuid:31c167a4-5a69-4cfc-ae10-69cdfd5acdc7",
      "resource": {
        "resourceType": "Medication",
        "id": "31c167a4-5a69-4cfc-ae10-69cdfd5acdc7",
        "meta": {
          "profile": [
            "http://hl7.org/fhir/uv/ips/StructureDefinition/Medication-uv-ips"
          ]
        },
        "code": {
          "coding": [
            {
              "code": "849574",
              "system": "http://www.nlm.nih.gov/research/umls/rxnorm",
              "display": "Naproxen sodium 220 MG Oral Tablet"
            }
          ],
          "text": "Naproxen sodium 220 MG Oral Tablet"
        }
      }
    },
    {
      "fullUrl": "urn:uuid:6d0eceb0-e19e-45df-83a1-b626d5089c8a",
      "resource": {
        "resourceType": "MedicationStatement",
        "id": "6d0eceb0-e19e-45df-83a1-b626d5089c8a",
        "effectivePeriod": {
          "start": "2009-12-01"
        },
        "dosage": [
          {
            "doseAndRate": [
              {
                "doseQuantity": {
                  "value": 1,
                  "unit": "{tbl}",
                  "code": "{tbl}"
                }
              }
            ],
            "timing": {
              "repeat": {
                "frequency": 3,
                "period": 1,
                "periodUnit": "d"
              }
            },
            "text": "1 tablet (220 mg) every 8 to 12 hours as needed",
            "asNeededBoolean": true
          }
        ],
        "reasonCode": [
          {
            "coding": [
              {
                "code": "239873007",
                "system": "http://snomed.info/sct",
                "display": "Osteoarthritis of knee (disorder)"
              }
            ]
          }
        ],
        "status": "active",
        "medicationReference": {
          "reference": "Medication/31c167a4-5a69-4cfc-ae10-69cdfd5acdc7",
          "display": "Naproxen sodium 220 MG Oral Tablet"
        },
        "subject": {
          "reference": "Patient/e5926f58-4410-43a7-9ef3-e161ceb49dc6",
          "display": "Eliane Rijneveld"
        }
      }
    },
    {
      "fullUrl": "urn:uuid:3669f823-5e0a-4ea9-8782-af3692f715d3",
      "resource": {
        "resourceType": "Medication",
        "id": "3669f823-5e0a-4ea9-8782-af3692f715d3",
        "meta": {
          "profile": [
            "http://hl7.org/fhir/uv/ips/StructureDefinition/Medication-uv-ips"
          ]
        },
        "code": {
          "coding": [
            {
              "code": "310325",
              "system": "http://www.nlm.nih.gov/research/umls/rxnorm",
              "display": "ferrous sulfate 325 MG Oral Tablet"
            }
          ],
          "text": "ferrous sulfate 325 MG Oral Tablet"
        }
      }
    },
    {
      "fullUrl": "urn:uuid:eb295794-7077-4eb8-a2cb-583c133cfa02",
      "resource": {
        "resourceType": "MedicationStatement",
        "id": "eb295794-7077-4eb8-a2cb-583c133cfa02",
        "effectivePeriod": {
          "start": "2001-02-05"
        },
        "dosage": [
          {
            "doseAndRate": [
              {
                "doseQuantity": {
                  "value": 1,
                  "unit": "{tbl}",
                  "code": "{tbl}"
                }
              }
            ],
            "timing": {
              "repeat": {
                "frequency": 1,
                "period": 1,
                "periodUnit": "d"
              }
            },
            "text": "1 tablet (325 mg) by mouth once daily",
            "asNeededBoolean": false
          }
        ],
        "status": "active",
        "medicationReference": {
          "reference": "Medication/3669f823-5e0a-4ea9-8782-af3692f715d3",
          "display": "ferrous sulfate 325 MG Oral Tablet"
        },
        "subject": {
          "reference": "Patient/e5926f58-4410-43a7-9ef3-e161ceb49dc6",
          "display": "Eliane Rijneveld"
        }
      }
    },
    {
      "fullUrl": "urn:uuid:791acee9-7ebd-479d-85ef-71454c4ba80b",
      "resource": {
        "resourceType": "Medication",
        "id": "791acee9-7ebd-479d-85ef-71454c4ba80b",
        "meta": {
          "profile": [
            "http://hl7.org/fhir/uv/ips/StructureDefinition/Medication-uv-ips"
          ]
        },
        "code": {
          "coding": [
            {
              "code": "1049630",
              "system": "http://www.nlm.nih.gov/research/umls/rxnorm",
              "display": "diphenhydramine hydrochloride 25 MG Oral Tablet"
            },
            {
              "code": "320726008",
              "system": "http://snomed.info/sct",
              "display": "Product containing precisely diphenhydramine hydrochloride 25 milligram/1 each conventional release oral tablet (clinical drug)"
            }
          ],
          "text": "Diphenhydramine hydrochloride 25 mg oral tablet"
        },
        "form": {
          "coding": [
            {
              "code": "421026006",
              "system": "http://snomed.info/sct",
              "display": "Oral tablet"
            }
          ]
        },
        "ingredient": [
          {
            "itemCodeableConcept": {
              "coding": [
                {
                  "code": "19510001",
                  "system": "http://snomed.info/sct",
                  "display": "Diphenhydramine hydrochloride"
                }
              ]
            },
            "isActive": true
          }
        ]
      }
    },
    {
      "fullUrl": "urn:uuid:02ff573b-071c-4452-bafe-63e496f92bc7",
      "resource": {
        "resourceType": "MedicationStatement",
        "id": "02ff573b-071c-4452-bafe-63e496f92bc7",
        "effectivePeriod": {
          "start": "1969-03-23"
        },
        "dosage": [
          {
            "doseAndRate": [
              {
                "doseQuantity": {
                  "value": 1,
                  "unit": "{tbl}",
                  "code": "{tbl}"
                }
              }
            ],
            "timing": {
              "repeat": {
                "frequency": 1,
                "period": 4,
                "periodUnit": "h"
              }
            },
            "text": "1 tablet (25 mg) every 4 to 6 hours as needed",
            "asNeededBoolean": true
          }
        ],
        "status": "active",
        "medicationReference": {
          "reference": "Medication/791acee9-7ebd-479d-85ef-71454c4ba80b",
          "display": "Diphenhydramine hydrochloride 25 mg oral tablet"
        },
        "subject": {
          "reference": "Patient/e5926f58-4410-43a7-9ef3-e161ceb49dc6",
          "display": "Eliane Rijneveld"
        }
      }
    },
    {
      "fullUrl": "urn:uuid:1bdfb5a6-1879-466e-9074-9177960d376e",
      "resource": {
        "resourceType": "AllergyIntolerance",
        "id": "1bdfb5a6-1879-466e-9074-9177960d376e",
        "meta": {
          "profile": [
            "http://hl7.eu/fhir/eps/StructureDefinition/allergyIntolerance-eu-eps"
          ]
        },
        "code": {
          "coding": [
            {
              "code": "29046",
              "system": "http://snomed.info/sct",
              "display": "Lisinopril"
            }
          ],
          "text": ""
        },
        "category": [
          "medication"
        ],
        "reaction": [
          {
            "manifestation": [
              {
                "coding": [
                  {
                    "code": "49727002",
                    "system": "http://snomed.info/sct",
                    "display": "Cough (finding)"
                  }
                ]
              }
            ]
          }
        ],
        "verificationStatus": {
          "coding": [
            {
              "code": "confirmed"
            }
          ]
        },
        "type": "intolerance",
        "onsetDateTime": "1969-03-27",
        "clinicalStatus": {
          "coding": [
            {
              "code": "active"
            }
          ]
        },
        "patient": {
          "reference": "Patient/e5926f58-4410-43a7-9ef3-e161ceb49dc6",
          "display": "Eliane Rijneveld"
        }
      }
    },
    {
      "fullUrl": "urn:uuid:47d62316-f61f-4cbc-a6b2-9d8515f33863",
      "resource": {
        "resourceType": "AllergyIntolerance",
        "id": "47d62316-f61f-4cbc-a6b2-9d8515f33863",
        "meta": {
          "profile": [
            "http://hl7.eu/fhir/eps/StructureDefinition/allergyIntolerance-eu-eps"
          ]
        },
        "code": {
          "coding": [
            {
              "code": "609328004",
              "system": "http://snomed.info/sct",
              "display": "Allergic disposition (finding)"
            }
          ],
          "text": "Allergic disposition"
        },
        "category": [
          "environment"
        ],
        "verificationStatus": {
          "coding": [
            {
              "code": "confirmed"
            }
          ]
        },
        "type": "allergy",
        "onsetDateTime": "1969-03-27",
        "clinicalStatus": {
          "coding": [
            {
              "code": "active"
            }
          ]
        },
        "patient": {
          "reference": "Patient/e5926f58-4410-43a7-9ef3-e161ceb49dc6",
          "display": "Eliane Rijneveld"
        }
      }
    },
    {
      "fullUrl": "urn:uuid:1c4bf728-19fc-4c67-9a7b-7fdae849d687",
      "resource": {
        "resourceType": "AllergyIntolerance",
        "id": "1c4bf728-19fc-4c67-9a7b-7fdae849d687",
        "meta": {
          "profile": [
            "http://hl7.eu/fhir/eps/StructureDefinition/allergyIntolerance-eu-eps"
          ]
        },
        "code": {
          "coding": [
            {
              "code": "782576004",
              "system": "http://snomed.info/sct",
              "display": "Tree pollen (substance)"
            }
          ],
          "text": "Tree pollen"
        },
        "category": [
          "environment"
        ],
        "verificationStatus": {
          "coding": [
            {
              "code": "confirmed"
            }
          ]
        },
        "type": "allergy",
        "onsetDateTime": "1969-03-27",
        "clinicalStatus": {
          "coding": [
            {
              "code": "active"
            }
          ]
        },
        "patient": {
          "reference": "Patient/e5926f58-4410-43a7-9ef3-e161ceb49dc6",
          "display": "Eliane Rijneveld"
        }
      }
    },
    {
      "fullUrl": "urn:uuid:3f578d1a-79b7-44c4-9959-5b3cd3bd67b8",
      "resource": {
        "resourceType": "Procedure",
        "id": "3f578d1a-79b7-44c4-9959-5b3cd3bd67b8",
        "meta": {
          "profile": [
            "http://hl7.org/fhir/uv/ips/StructureDefinition/Procedure-uv-ips"
          ]
        },
        "code": {
          "coding": [
            {
              "code": "168594001",
              "system": "http://snomed.info/sct",
              "display": "Plain X-ray of clavicle (procedure)"
            }
          ],
          "text": "Plain X-ray of clavicle"
        },
        "status": "completed",
        "subject": {
          "reference": "Patient/e5926f58-4410-43a7-9ef3-e161ceb49dc6",
          "display": "Eliane Rijneveld"
        },
        "performedDateTime": "2017-02-27"
      }
    },
    {
      "fullUrl": "urn:uuid:056119ee-40c2-41e8-b941-59ae012f7821",
      "resource": {
        "resourceType": "Procedure",
        "id": "056119ee-40c2-41e8-b941-59ae012f7821",
        "meta": {
          "profile": [
            "http://hl7.org/fhir/uv/ips/StructureDefinition/Procedure-uv-ips"
          ]
        },
        "code": {
          "coding": [
            {
              "code": "305428000",
              "system": "http://snomed.info/sct",
              "display": "Admission to orthopedic department (procedure)"
            }
          ],
          "text": "Admission to orthopedic department"
        },
        "reasonCode": [
          {
            "coding": [
              {
                "code": "58150001",
                "system": "http://snomed.info/sct",
                "display": "Fracture of clavicle (disorder)"
              }
            ]
          }
        ],
        "status": "completed",
        "subject": {
          "reference": "Patient/e5926f58-4410-43a7-9ef3-e161ceb49dc6",
          "display": "Eliane Rijneveld"
        },
        "performedDateTime": "2017-02-27"
      }
    },
    {
      "fullUrl": "urn:uuid:8e0741f7-774d-48cb-8935-3151391c06d9",
      "resource": {
        "resourceType": "Immunization",
        "id": "8e0741f7-774d-48cb-8935-3151391c06d9",
        "meta": {
          "profile": [
            "http://hl7.org/fhir/uv/ips/StructureDefinition/Immunization-uv-ips"
          ]
        },
        "vaccineCode": {
          "coding": [
            {
              "code": "1181000221105",
              "system": "http://snomed.info/sct",
              "display": "Vaccine product containing Influenza virus antigen"
            },
            {
              "code": "J07BB02",
              "system": "http://www.whocc.no/atc",
              "display": "Influenza, inactivated, split virus"
            },
            {
              "code": "140",
              "system": "http://hl7.org/fhir/sid/cvx",
              "display": "Influenza  seasonal  injectable  preservative free"
            }
          ],
          "text": "Influenza virus antigen only vaccine product"
        },
        "site": {
          "coding": [
            {
              "code": "73776007",
              "system": "http://snomed.info/sct",
              "display": "Structure of muscle of upper arm"
            }
          ],
          "text": "Structure of muscle of upper arm"
        },
        "route": {
          "coding": [
            {
              "code": "78421000",
              "system": "http://snomed.info/sct",
              "display": "Intramuscular route"
            }
          ],
          "text": "Intramuscular route"
        },
        "status": "completed",
        "patient": {
          "reference": "Patient/e5926f58-4410-43a7-9ef3-e161ceb49dc6",
          "display": "Eliane Rijneveld"
        },
        "occurrenceDateTime": "2024-11-11",
        "lotNumber": "DM-smyBdA",
        "expirationDate": "2025-11-14"
      }
    },
    {
      "fullUrl": "urn:uuid:f4a2fd25-aef8-4d9c-8d60-2f77aaaf12ef",
      "resource": {
        "resourceType": "Immunization",
        "id": "f4a2fd25-aef8-4d9c-8d60-2f77aaaf12ef",
        "meta": {
          "profile": [
            "http://hl7.org/fhir/uv/ips/StructureDefinition/Immunization-uv-ips"
          ]
        },
        "vaccineCode": {
          "coding": [
            {
              "code": "29061000087103",
              "system": "http://snomed.info/sct",
              "display": "Vaccine product containing recombinant viral vector encoding SARS-CoV-2 spike protein"
            },
            {
              "code": "J07BX03",
              "system": "http://www.whocc.no/atc",
              "display": "COVID-19 vector vaccines (non-replicating)"
            },
            {
              "code": "212",
              "system": "http://hl7.org/fhir/sid/cvx",
              "display": "COVID-19 vaccine  vector-nr  rS-Ad26  PF  0.5 mL"
            }
          ],
          "text": "COVID-19 non-replicating viral vector vaccine"
        },
        "site": {
          "coding": [
            {
              "code": "73776007",
              "system": "http://snomed.info/sct",
              "display": "Structure of muscle of upper arm"
            }
          ],
          "text": "Structure of muscle of upper arm"
        },
        "route": {
          "coding": [
            {
              "code": "78421000",
              "system": "http://snomed.info/sct",
              "display": "Intramuscular route"
            }
          ],
          "text": "Intramuscular route"
        },
        "status": "completed",
        "patient": {
          "reference": "Patient/e5926f58-4410-43a7-9ef3-e161ceb49dc6",
          "display": "Eliane Rijneveld"
        },
        "occurrenceDateTime": "2021-04-26",
        "lotNumber": "CY-QiinDg",
        "expirationDate": "2022-02-23"
      }
    },
    {
      "fullUrl": "urn:uuid:02ae31f2-aa80-4979-9841-820c32837021",
      "resource": {
        "resourceType": "Immunization",
        "id": "02ae31f2-aa80-4979-9841-820c32837021",
        "meta": {
          "profile": [
            "http://hl7.org/fhir/uv/ips/StructureDefinition/Immunization-uv-ips"
          ]
        },
        "vaccineCode": {
          "coding": [
            {
              "code": "777725002",
              "system": "http://snomed.info/sct",
              "display": "Vaccine product containing only Clostridium tetani toxoid antigen adsorbed"
            },
            {
              "code": "J07AM51",
              "system": "http://www.whocc.no/atc",
              "display": "Diphtheria-tetanus vaccines, adult type"
            },
            {
              "code": "113",
              "system": "http://hl7.org/fhir/sid/cvx",
              "display": "Td (adult)  5 Lf tetanus toxoid  preservative free  adsorbed"
            }
          ],
          "text": "Clostridium tetani toxoid antigen adsorbed only vaccine product"
        },
        "site": {
          "coding": [
            {
              "code": "73776007",
              "system": "http://snomed.info/sct",
              "display": "Structure of muscle of upper arm"
            }
          ],
          "text": "Structure of muscle of upper arm"
        },
        "route": {
          "coding": [
            {
              "code": "78421000",
              "system": "http://snomed.info/sct",
              "display": "Intramuscular route"
            }
          ],
          "text": "Intramuscular route"
        },
        "status": "completed",
        "patient": {
          "reference": "Patient/e5926f58-4410-43a7-9ef3-e161ceb49dc6",
          "display": "Eliane Rijneveld"
        },
        "occurrenceDateTime": "2017-10-02",
        "lotNumber": "OX-fEe0X",
        "expirationDate": "2018-05-27"
      }
    },
    {
      "fullUrl": "urn:uuid:1a9a9ada-3d0e-40e3-8564-16bafbeba1b0",
      "resource": {
        "resourceType": "Immunization",
        "id": "1a9a9ada-3d0e-40e3-8564-16bafbeba1b0",
        "meta": {
          "profile": [
            "http://hl7.org/fhir/uv/ips/StructureDefinition/Immunization-uv-ips"
          ]
        },
        "vaccineCode": {
          "coding": [
            {
              "code": "2221000221107",
              "system": "http://snomed.info/sct",
              "display": "Live attenuated Varicella-zoster vaccine"
            },
            {
              "code": "J07BK02",
              "system": "http://www.whocc.no/atc",
              "display": "Varicella-zoster vaccines"
            },
            {
              "code": "121",
              "system": "http://hl7.org/fhir/sid/cvx",
              "display": "zoster vaccine  live"
            }
          ],
          "text": "Live attenuated Human alphaherpesvirus 3 only vaccine product"
        },
        "site": {
          "coding": [
            {
              "code": "368208006",
              "system": "http://snomed.info/sct",
              "display": "Structure of skin of upper arm"
            }
          ],
          "text": "Structure of skin of upper arm"
        },
        "route": {
          "coding": [
            {
              "code": "34206005",
              "system": "http://snomed.info/sct",
              "display": "Subcutaneous route"
            }
          ],
          "text": "Subcutaneous route"
        },
        "status": "completed",
        "patient": {
          "reference": "Patient/e5926f58-4410-43a7-9ef3-e161ceb49dc6",
          "display": "Eliane Rijneveld"
        },
        "occurrenceDateTime": "2017-10-02",
        "lotNumber": "RM-IrxuXmfDO",
        "expirationDate": "2018-02-03"
      }
    }
  ],
  "type": "document",
  "timestamp": "2025-06-06T16:21:09Z"
}
