{
  "resourceType": "Bundle",
  "id": "Instance-Bundle-4d8aac7f-c328-469d-bb10-c7f3586f6aed",
  "meta": {
    "profile": [
      "http://hl7.eu/fhir/eps/StructureDefinition/bundle-eu-eps"
    ]
  },
  "identifier": {
    "assigner": {
      "display": "HL7 Europe"
    },
    "system": "urn:oid:2.16.840.1.113883.2.51.999",
    "value": "b2ae9674-73d1-4502-b3c4-5f3c4c2a93de"
  },
  "entry": [
    {
      "fullUrl": "urn:uuid:f069a59a-5815-44b7-9b2d-a7fa565b7645",
      "resource": {
        "resourceType": "Composition",
        "id": "f069a59a-5815-44b7-9b2d-a7fa565b7645",
        "meta": {
          "profile": [
            "http://hl7.eu/fhir/eps/StructureDefinition/composition-eu-eps"
          ]
        },
        "identifier": {
          "assigner": {
            "display": "HL7 Europe"
          },
          "system": "urn:oid:2.16.840.1.113883.2.51.999",
          "value": "71d73bbb-8852-4ed8-9f39-50a83cbfc8c9"
        },
        "type": {
          "coding": [
            {
              "system": "http://loinc.org",
              "code": "60591-5",
              "display": "European Patient Summary"
            }
          ],
          "text": "European Patient Summary"
        },
        "author": [
          {
            "reference": "urn:uuid:5ad2e073-97a4-4244-a212-7a42359844a6"
          }
        ],
        "section": [
          {
            "text": {
              "status": "generated",
              "div": "<div xmlns=\"http://www.w3.org/1999/xhtml\"><table class=\"hl7__ips\"><tr><td>Acute non-ST segment elevation myocardial infarction</td><td>2017-09-06</td><td>active</td></tr><tr><td>Ischemic heart disease</td><td>2006-06-10</td><td>active</td></tr><tr><td>Neuropathy due to type 2 diabetes mellitus</td><td>2005-06-04</td><td>active</td></tr><tr><td>Osteoarthritis of knee</td><td>2003-06-16</td><td>active</td></tr><tr><td>Hypertriglyceridemia</td><td>1992-03-21</td><td>active</td></tr><tr><td>Type 2 diabetes mellitus</td><td>1991-03-16</td><td>active</td></tr><tr><td>Metabolic syndrome X</td><td>1990-03-10</td><td>active</td></tr><tr><td>Anemia</td><td>1983-01-29</td><td>active</td></tr><tr><td>Essential hypertension</td><td>1977-12-31</td><td>active</td></tr><tr><td>Gingivitis</td><td>2022-09-10</td><td>inactive</td></tr><tr><td>Primary dental caries</td><td>2021-09-18</td><td>inactive</td></tr><tr><td>Gingivitis</td><td>2021-09-04</td><td>inactive</td></tr><tr><td>Gingival disease</td><td>2021-05-22</td><td>inactive</td></tr><tr><td>Gingivitis</td><td>2021-05-08</td><td>inactive</td></tr><tr><td>Acute bronchitis</td><td>2021-04-30</td><td>inactive</td></tr><tr><td>Gingivitis</td><td>2020-08-29</td><td>inactive</td></tr><tr><td>Gingivitis</td><td>2018-09-29</td><td>inactive</td></tr><tr><td>Acute viral pharyngitis</td><td>2018-09-15</td><td>inactive</td></tr><tr><td>Primary dental caries</td><td>2018-09-08</td><td>inactive</td></tr><tr><td>Gingivitis</td><td>2018-08-04</td><td>inactive</td></tr><tr><td>Acute bronchitis</td><td>2018-07-27</td><td>inactive</td></tr><tr><td>Myocardial infarction</td><td>2017-09-06</td><td>inactive</td></tr><tr><td>Gingivitis</td><td>2016-08-06</td><td>inactive</td></tr><tr><td>Laceration of forearm</td><td>2016-06-09</td><td>inactive</td></tr><tr><td>Laceration - injury</td><td>2016-06-09</td><td>inactive</td></tr><tr><td>Viral sinusitis</td><td>2016-02-15</td><td>inactive</td></tr></table></div>"
            },
            "entry": [
              {
                "reference": "urn:uuid:8578ba2a-bb09-4408-8191-3a0910058576"
              },
              {
                "reference": "urn:uuid:eb39a1d5-a8f9-48e9-a3b1-6a10cf131fc3"
              },
              {
                "reference": "urn:uuid:002ce7a6-d4ed-4ce4-946b-c993694c5932"
              },
              {
                "reference": "urn:uuid:24655eb9-b649-4527-91ca-66fb3d6c1e8e"
              },
              {
                "reference": "urn:uuid:02d08294-b27e-40fd-96f2-7b562c010e0b"
              },
              {
                "reference": "urn:uuid:f58f66e4-a72c-4c90-a380-89bb52ae3f85"
              },
              {
                "reference": "urn:uuid:6d5a8111-650d-43b3-b404-5ce9be204ed8"
              },
              {
                "reference": "urn:uuid:9e618f79-1f63-4815-8acd-4eb1358f4a98"
              },
              {
                "reference": "urn:uuid:78907ef6-addb-46e0-8c73-59a0637b8e1c"
              },
              {
                "reference": "urn:uuid:d313e2da-076d-434a-bf1c-1dabfae168fb"
              },
              {
                "reference": "urn:uuid:6f098e9f-b7ae-4864-a88c-e493772e89bd"
              },
              {
                "reference": "urn:uuid:634b23eb-0b20-44de-b8a9-4b4919dcc278"
              },
              {
                "reference": "urn:uuid:d86640c0-e00e-4f1a-8413-ac37a72f48fa"
              },
              {
                "reference": "urn:uuid:a7a25b05-a272-4c24-b9f1-b963362ffd5a"
              },
              {
                "reference": "urn:uuid:ec45c32b-52a3-46ab-8cd4-c7228820ae8a"
              },
              {
                "reference": "urn:uuid:14043828-3a61-4628-b4f9-a75eb23b9580"
              },
              {
                "reference": "urn:uuid:de7a410e-53ba-4515-b6e5-37ec27cf2eda"
              },
              {
                "reference": "urn:uuid:f5a761c7-c914-4f32-b2d4-1e3ed4a406fb"
              },
              {
                "reference": "urn:uuid:4941d630-1f09-4b00-8f8f-4c79631e5cbc"
              },
              {
                "reference": "urn:uuid:97171c00-3a80-4df3-93f9-1ddc80336319"
              },
              {
                "reference": "urn:uuid:d4bab947-c098-426c-ba52-79b7b64f41fa"
              },
              {
                "reference": "urn:uuid:80f9ed16-d952-4eac-8330-284d13ff2c0b"
              },
              {
                "reference": "urn:uuid:e3c11ece-ab00-492a-90e6-84cc16c3e3d8"
              },
              {
                "reference": "urn:uuid:88d59159-7be4-43a5-a725-59c103a2f35a"
              },
              {
                "reference": "urn:uuid:6dc63245-c284-4be4-88dd-cba31a6eb965"
              },
              {
                "reference": "urn:uuid:8ed75c87-f172-4e0c-bae4-9cca0d950a66"
              }
            ],
            "code": {
              "coding": [
                {
                  "system": "http://loinc.org",
                  "code": "11450-4",
                  "display": "Problem list - Reported"
                }
              ]
            },
            "title": "Problem list"
          },
          {
            "text": {
              "status": "generated",
              "div": "<div xmlns=\"http://www.w3.org/1999/xhtml\"><table class=\"hl7__ips\"><tr><td>Hydrochlorothiazide 25 mg oral tablet</td><td>2024-09-21</td><td>Oral tablet</td><td>1 tablet (25 mg) by mouth once daily\"</td><td>Reason: Essential hypertension (disorder)</td></tr><tr><td>aspirin 81 MG Oral Tablet</td><td>2017-09-07</td><td></td><td>1 tablet (81 mg) by mouth once daily\"</td><td></td></tr><tr><td>Prasugrel (as prasugrel hydrochloride) 10 mg oral tablet</td><td>2017-09-07</td><td>Oral tablet</td><td>1 tablet (10 mg) once daily\"</td><td></td></tr><tr><td>Labetalol hydrochloride 200 mg oral tablet</td><td>2017-09-07</td><td>Oral tablet</td><td>1 tablet (200 mg) by mouth twice daily\"</td><td></td></tr><tr><td>Pravastatin sodium 40 mg oral tablet</td><td>2017-09-07</td><td>Oral tablet</td><td>1 tablet (40 mg) by mouth once daily\"</td><td></td></tr><tr><td>Losartan potassium 100 mg oral tablet</td><td>2017-09-07</td><td>Oral tablet</td><td>1 tablet (100 mg) by mouth once daily\"</td><td></td></tr><tr><td>Clopidogrel (as clopidogrel bisulfate) 75 mg oral tablet</td><td>2006-06-17</td><td>Oral tablet</td><td>1 tablet (75 mg) once daily\"</td><td></td></tr><tr><td>Simvastatin 20 mg oral tablet</td><td>2006-06-17</td><td>Oral tablet</td><td>1 tablet (20 mg) by mouth once daily\"</td><td></td></tr><tr><td>Nitroglycerin 400 microgram/actuation sublingual spray</td><td>2006-06-17</td><td>Sublingual spray</td><td>400 micrograms (1 spray) sublingually as needed for chest pain, may repeat every 5 minutes as needed, up to 3 sprays in 15 minutes\"</td><td></td></tr><tr><td>Metoprolol tartrate (as metoprolol succinate) 100 mg prolonged-release oral tablet</td><td>2006-06-17</td><td>Prolonged-release oral tablet</td><td>1 tablet (100 mg) once daily\"</td><td></td></tr><tr><td>Naproxen sodium 220 MG Oral Tablet</td><td>2003-06-16</td><td></td><td>1 tablet (220 mg) by mouth every 12 hours as needed\"</td><td>Reason: Osteoarthritis of knee (disorder)</td></tr></table></div>"
            },
            "entry": [
              {
                "reference": "urn:uuid:eff1f108-4c1d-4408-81ac-9c1fe6bb0e9a"
              },
              {
                "reference": "urn:uuid:e4034ec3-a597-4fa4-8b62-57d7d70a4cb2"
              },
              {
                "reference": "urn:uuid:134e976a-e154-435b-9105-c3325bcb8bb0"
              },
              {
                "reference": "urn:uuid:b96d6053-38a7-4978-a088-afd3a2e001c0"
              },
              {
                "reference": "urn:uuid:ad116d89-e050-465a-b804-f6586ef02516"
              },
              {
                "reference": "urn:uuid:8e1ab116-c8bf-4ed5-bbd9-37d87a344f3c"
              },
              {
                "reference": "urn:uuid:1208a5a3-3444-44c5-872a-692e67f2d440"
              },
              {
                "reference": "urn:uuid:9b199b7d-ead2-439c-a10a-9a68d9cfa099"
              },
              {
                "reference": "urn:uuid:e3906f6b-6193-47a3-9ef8-8e96af77d302"
              },
              {
                "reference": "urn:uuid:a07cbbc2-b5df-4075-b371-38c981c8a903"
              },
              {
                "reference": "urn:uuid:df39b7ce-5a26-4766-ba03-28db661d195a"
              }
            ],
            "code": {
              "coding": [
                {
                  "system": "http://loinc.org",
                  "code": "10160-0",
                  "display": "History of Medication use Narrative"
                }
              ]
            },
            "title": "Medication list"
          },
          {
            "text": {
              "status": "generated",
              "div": "<div xmlns=\"http://www.w3.org/1999/xhtml\"><table class=\"hl7__ips\"><tr><td>No known allergies or intolerances</td></tr></table></div>"
            },
            "entry": [
              {
                "reference": "urn:uuid:413f3c64-4650-4a42-8939-1d67fb1e072f"
              }
            ],
            "code": {
              "coding": [
                {
                  "system": "http://loinc.org",
                  "code": "48765-2",
                  "display": "Allergies and adverse reactions Document"
                }
              ]
            },
            "title": "Allergies and Intolerances"
          },
          {
            "text": {
              "status": "generated",
              "div": "<div xmlns=\"http://www.w3.org/1999/xhtml\"><table class=\"hl7__ips\"><tr><td>Patient referral for dental care</td><td>2018-08-04</td><td>Gingivitis (disorder)</td></tr><tr><td>Depression screening</td><td>2018-08-04</td><td>-</td></tr><tr><td>Medication reconciliation</td><td>2018-08-04</td><td>-</td></tr><tr><td>Assessment of health and social care needs</td><td>2018-08-04</td><td>-</td></tr><tr><td>Assessment of anxiety</td><td>2018-08-04</td><td>-</td></tr><tr><td>Screening for drug abuse</td><td>2018-08-04</td><td>-</td></tr><tr><td>Depression screening using PHQ-9 (Patient Health Questionnaire 9) score</td><td>2018-08-04</td><td>-</td></tr><tr><td>Screening for domestic abuse</td><td>2018-08-04</td><td>-</td></tr><tr><td>Assessment of substance use</td><td>2018-08-04</td><td>-</td></tr><tr><td>Angiography of coronary artery</td><td>2017-09-07</td><td>-</td></tr><tr><td>Percutaneous coronary intervention</td><td>2017-09-07</td><td>Acute non-ST segment elevation myocardial infarction (disorder)</td></tr><tr><td>Transthoracic echocardiography</td><td>2017-09-07</td><td>-</td></tr><tr><td>Laboratory test</td><td>2017-09-06</td><td>-</td></tr><tr><td>Electrocardiographic procedure</td><td>2017-09-06</td><td>-</td></tr><tr><td>Diagnostic assessment</td><td>2017-09-06</td><td>-</td></tr><tr><td>Risk assessment</td><td>2017-09-06</td><td>Acute non-ST segment elevation myocardial infarction (disorder)</td></tr><tr><td>Oxygen administration by mask</td><td>2017-09-06</td><td>-</td></tr><tr><td>Plain X-ray of chest</td><td>2017-09-06</td><td>-</td></tr><tr><td>Assessment of cardiac status using monitoring device</td><td>2017-09-06</td><td>-</td></tr><tr><td>Suture open wound</td><td>2016-06-09</td><td>Laceration of forearm (disorder)</td></tr></table></div>"
            },
            "entry": [
              {
                "reference": "urn:uuid:b9ef2c31-cde2-434d-bbad-dae27734b9ec"
              },
              {
                "reference": "urn:uuid:61cbe376-705b-4da8-abcd-97305cc2f4df"
              },
              {
                "reference": "urn:uuid:d50e582f-f11f-419f-8d7c-28bc44dabec9"
              },
              {
                "reference": "urn:uuid:56a1973f-9f9b-430e-b023-218b6a79f1ed"
              },
              {
                "reference": "urn:uuid:4dd44e73-be25-44e7-92d6-c8429c6ec08e"
              },
              {
                "reference": "urn:uuid:1a7f9f08-c4af-4022-8009-64c61ef45beb"
              },
              {
                "reference": "urn:uuid:e5f491b7-418a-461a-905b-5f392521d825"
              },
              {
                "reference": "urn:uuid:b474e2af-78a0-459c-b16a-1d0d15b0f56e"
              },
              {
                "reference": "urn:uuid:d1a8c247-9365-494f-9f6e-bd48a36fdd6d"
              },
              {
                "reference": "urn:uuid:32bc363d-d25e-4b69-abfd-ee6ba8b03dbf"
              },
              {
                "reference": "urn:uuid:a6455bb2-aef1-408c-b8d7-476d80497252"
              },
              {
                "reference": "urn:uuid:18226ae6-8d50-4d2b-82b3-392832b598c9"
              },
              {
                "reference": "urn:uuid:e4fad123-7f84-4956-855b-88d3301419d6"
              },
              {
                "reference": "urn:uuid:c59f39a8-1123-4fdd-9c99-52e22abd878e"
              },
              {
                "reference": "urn:uuid:34a4ff3c-1859-4a34-aa17-28189331d429"
              },
              {
                "reference": "urn:uuid:c5da30f2-f14f-4a4a-b301-c6afe30a0468"
              },
              {
                "reference": "urn:uuid:7d0034d4-71d7-43fa-b9da-408fb1e97aa9"
              },
              {
                "reference": "urn:uuid:d90a52ee-f32c-4377-82e3-e0c72e1aacfb"
              },
              {
                "reference": "urn:uuid:ad93689f-24f5-432a-9e3a-4ca1745d5099"
              },
              {
                "reference": "urn:uuid:bffb5a9e-18ac-485c-b47f-f2b2402cc11b"
              }
            ],
            "code": {
              "coding": [
                {
                  "system": "http://loinc.org",
                  "code": "47519-4",
                  "display": "History of Procedures Document"
                }
              ]
            },
            "title": "Procedure History list"
          },
          {
            "text": {
              "status": "generated",
              "div": "<div xmlns=\"http://www.w3.org/1999/xhtml\"><table class=\"hl7__ips\"><tr><td>Influenza virus antigen only vaccine product</td><td>2024-09-21</td></tr><tr><td>SARS-CoV-2 mRNA vaccine</td><td>2021-04-17</td></tr><tr><td>Clostridium tetani toxoid antigen adsorbed only vaccine product</td><td>2018-08-04</td></tr></table></div>"
            },
            "entry": [
              {
                "reference": "urn:uuid:8e5d3468-0d2b-474a-b66b-c0c6f08ee74f"
              },
              {
                "reference": "urn:uuid:087c8db9-a73e-4d03-a63f-31531828a69e"
              },
              {
                "reference": "urn:uuid:2443b79e-49bc-4091-b3c4-1f08579d51c9"
              }
            ],
            "code": {
              "coding": [
                {
                  "system": "http://loinc.org",
                  "code": "11369-6",
                  "display": "History of Immunization Narrative"
                }
              ]
            },
            "title": "Immunizations list"
          }
        ],
        "title": "European Patient Summary",
        "status": "final",
        "subject": {
          "reference": "urn:uuid:3f8ca81c-f440-4c31-9987-2016bae6bb7a"
        },
        "custodian": {
          "reference": "urn:uuid:7e9ebdad-7f40-464b-94be-702fa4c69172"
        },
        "date": "2025-06-16T17:28:57Z",
        "confidentiality": "N"
      }
    },
    {
      "fullUrl": "urn:uuid:3f8ca81c-f440-4c31-9987-2016bae6bb7a",
      "resource": {
        "resourceType": "Patient",
        "id": "3f8ca81c-f440-4c31-9987-2016bae6bb7a",
        "meta": {
          "profile": [
            "http://hl7.eu/fhir/eps/StructureDefinition/patient-eu-eps"
          ]
        },
        "identifier": [
          {
            "type": {
              "coding": [
                {
                  "code": "NI",
                  "system": "http://terminology.hl7.org/CodeSystem/v2-0203"
                }
              ]
            },
            "system": "http://ec.europa.eu/identifier/eci",
            "value": "9943-935126-5"
          },
          {
            "type": {
              "coding": [
                {
                  "code": "MR",
                  "system": "http://terminology.hl7.org/CodeSystem/v2-0203"
                }
              ]
            },
            "system": "http://local.setting.eu/identifier",
            "value": "5c45c341-55de-b6b0-c6f6-48d615a61194"
          }
        ],
        "name": [
          {
            "given": [
              "Bent"
            ],
            "family": "Bertelsen",
            "text": "Bent Bertelsen"
          }
        ],
        "address": [
          {
            "line": [
              "Bygget 41"
            ],
            "use": "home",
            "type": "physical",
            "city": "Lagan",
            "postalCode": "340 14",
            "country": "Sweden"
          }
        ],
        "telecom": [
          {
            "system": "phone",
            "value": "+46 0372-4163087"
          }
        ],
        "gender": "male",
        "birthDate": "1942-09-12"
      }
    },
    {
      "fullUrl": "urn:uuid:5ad2e073-97a4-4244-a212-7a42359844a6",
      "resource": {
        "resourceType": "PractitionerRole",
        "id": "5ad2e073-97a4-4244-a212-7a42359844a6",
        "meta": {
          "profile": [
            "http://hl7.eu/fhir/base/StructureDefinition/practitionerRole-eu"
          ]
        },
        "practitioner": {
          "reference": "urn:uuid:7dcd1b41-c1fb-4724-a334-b19b0a07a9a5"
        },
        "organization": {
          "reference": "urn:uuid:7e9ebdad-7f40-464b-94be-702fa4c69172"
        }
      }
    },
    {
      "fullUrl": "urn:uuid:7dcd1b41-c1fb-4724-a334-b19b0a07a9a5",
      "resource": {
        "resourceType": "Practitioner",
        "id": "7dcd1b41-c1fb-4724-a334-b19b0a07a9a5",
        "meta": {
          "profile": [
            "http://hl7.eu/fhir/base/StructureDefinition/practitioner-eu"
          ]
        },
        "name": [
          {
            "prefix": [
              "Dr."
            ],
            "given": [
              "Hel"
            ],
            "family": "Ping"
          }
        ]
      }
    },
    {
      "fullUrl": "urn:uuid:8578ba2a-bb09-4408-8191-3a0910058576",
      "resource": {
        "resourceType": "Condition",
        "id": "8578ba2a-bb09-4408-8191-3a0910058576",
        "meta": {
          "profile": [
            "http://hl7.org/fhir/uv/ips/StructureDefinition/Condition-uv-ips"
          ]
        },
        "category": [
          {
            "coding": [
              {
                "code": "problem-list-item",
                "system": "http://terminology.hl7.org/CodeSystem/condition-category",
                "display": "Problem List Item"
              }
            ]
          }
        ],
        "code": {
          "coding": [
            {
              "code": "401314000",
              "system": "http://snomed.info/sct",
              "display": "Acute non-ST segment elevation myocardial infarction (disorder)"
            }
          ],
          "text": "Acute non-ST segment elevation myocardial infarction"
        },
        "onsetDateTime": "2017-09-06",
        "clinicalStatus": {
          "coding": [
            {
              "code": "active",
              "system": "http://terminology.hl7.org/CodeSystem/condition-clinical"
            }
          ]
        },
        "subject": {
          "reference": "Patient/3f8ca81c-f440-4c31-9987-2016bae6bb7a",
          "display": "Bent Bertelsen"
        },
        "asserter": {
          "reference": "Practitioner/7dcd1b41-c1fb-4724-a334-b19b0a07a9a5",
          "display": "Dr. Hel Ping"
        }
      }
    },
    {
      "fullUrl": "urn:uuid:eb39a1d5-a8f9-48e9-a3b1-6a10cf131fc3",
      "resource": {
        "resourceType": "Condition",
        "id": "eb39a1d5-a8f9-48e9-a3b1-6a10cf131fc3",
        "meta": {
          "profile": [
            "http://hl7.org/fhir/uv/ips/StructureDefinition/Condition-uv-ips"
          ]
        },
        "category": [
          {
            "coding": [
              {
                "code": "problem-list-item",
                "system": "http://terminology.hl7.org/CodeSystem/condition-category",
                "display": "Problem List Item"
              }
            ]
          }
        ],
        "code": {
          "coding": [
            {
              "code": "414545008",
              "system": "http://snomed.info/sct",
              "display": "Ischemic heart disease (disorder)"
            }
          ],
          "text": "Ischemic heart disease"
        },
        "onsetDateTime": "2006-06-10",
        "clinicalStatus": {
          "coding": [
            {
              "code": "active",
              "system": "http://terminology.hl7.org/CodeSystem/condition-clinical"
            }
          ]
        },
        "subject": {
          "reference": "Patient/3f8ca81c-f440-4c31-9987-2016bae6bb7a",
          "display": "Bent Bertelsen"
        },
        "asserter": {
          "reference": "Practitioner/7dcd1b41-c1fb-4724-a334-b19b0a07a9a5",
          "display": "Dr. Hel Ping"
        }
      }
    },
    {
      "fullUrl": "urn:uuid:002ce7a6-d4ed-4ce4-946b-c993694c5932",
      "resource": {
        "resourceType": "Condition",
        "id": "002ce7a6-d4ed-4ce4-946b-c993694c5932",
        "meta": {
          "profile": [
            "http://hl7.org/fhir/uv/ips/StructureDefinition/Condition-uv-ips"
          ]
        },
        "category": [
          {
            "coding": [
              {
                "code": "problem-list-item",
                "system": "http://terminology.hl7.org/CodeSystem/condition-category",
                "display": "Problem List Item"
              }
            ]
          }
        ],
        "code": {
          "coding": [
            {
              "code": "368581000119106",
              "system": "http://snomed.info/sct",
              "display": "Neuropathy due to type 2 diabetes mellitus (disorder)"
            }
          ],
          "text": "Neuropathy due to type 2 diabetes mellitus"
        },
        "onsetDateTime": "2005-06-04",
        "clinicalStatus": {
          "coding": [
            {
              "code": "active",
              "system": "http://terminology.hl7.org/CodeSystem/condition-clinical"
            }
          ]
        },
        "subject": {
          "reference": "Patient/3f8ca81c-f440-4c31-9987-2016bae6bb7a",
          "display": "Bent Bertelsen"
        },
        "asserter": {
          "reference": "Practitioner/7dcd1b41-c1fb-4724-a334-b19b0a07a9a5",
          "display": "Dr. Hel Ping"
        }
      }
    },
    {
      "fullUrl": "urn:uuid:24655eb9-b649-4527-91ca-66fb3d6c1e8e",
      "resource": {
        "resourceType": "Condition",
        "id": "24655eb9-b649-4527-91ca-66fb3d6c1e8e",
        "meta": {
          "profile": [
            "http://hl7.org/fhir/uv/ips/StructureDefinition/Condition-uv-ips"
          ]
        },
        "category": [
          {
            "coding": [
              {
                "code": "problem-list-item",
                "system": "http://terminology.hl7.org/CodeSystem/condition-category",
                "display": "Problem List Item"
              }
            ]
          }
        ],
        "code": {
          "coding": [
            {
              "code": "239873007",
              "system": "http://snomed.info/sct",
              "display": "Osteoarthritis of knee (disorder)"
            }
          ],
          "text": "Osteoarthritis of knee"
        },
        "onsetDateTime": "2003-06-16",
        "clinicalStatus": {
          "coding": [
            {
              "code": "active",
              "system": "http://terminology.hl7.org/CodeSystem/condition-clinical"
            }
          ]
        },
        "subject": {
          "reference": "Patient/3f8ca81c-f440-4c31-9987-2016bae6bb7a",
          "display": "Bent Bertelsen"
        },
        "asserter": {
          "reference": "Practitioner/7dcd1b41-c1fb-4724-a334-b19b0a07a9a5",
          "display": "Dr. Hel Ping"
        }
      }
    },
    {
      "fullUrl": "urn:uuid:02d08294-b27e-40fd-96f2-7b562c010e0b",
      "resource": {
        "resourceType": "Condition",
        "id": "02d08294-b27e-40fd-96f2-7b562c010e0b",
        "meta": {
          "profile": [
            "http://hl7.org/fhir/uv/ips/StructureDefinition/Condition-uv-ips"
          ]
        },
        "category": [
          {
            "coding": [
              {
                "code": "problem-list-item",
                "system": "http://terminology.hl7.org/CodeSystem/condition-category",
                "display": "Problem List Item"
              }
            ]
          }
        ],
        "code": {
          "coding": [
            {
              "code": "302870006",
              "system": "http://snomed.info/sct",
              "display": "Hypertriglyceridemia (disorder)"
            }
          ],
          "text": "Hypertriglyceridemia"
        },
        "onsetDateTime": "1992-03-21",
        "clinicalStatus": {
          "coding": [
            {
              "code": "active",
              "system": "http://terminology.hl7.org/CodeSystem/condition-clinical"
            }
          ]
        },
        "subject": {
          "reference": "Patient/3f8ca81c-f440-4c31-9987-2016bae6bb7a",
          "display": "Bent Bertelsen"
        },
        "asserter": {
          "reference": "Practitioner/7dcd1b41-c1fb-4724-a334-b19b0a07a9a5",
          "display": "Dr. Hel Ping"
        }
      }
    },
    {
      "fullUrl": "urn:uuid:f58f66e4-a72c-4c90-a380-89bb52ae3f85",
      "resource": {
        "resourceType": "Condition",
        "id": "f58f66e4-a72c-4c90-a380-89bb52ae3f85",
        "meta": {
          "profile": [
            "http://hl7.org/fhir/uv/ips/StructureDefinition/Condition-uv-ips"
          ]
        },
        "category": [
          {
            "coding": [
              {
                "code": "problem-list-item",
                "system": "http://terminology.hl7.org/CodeSystem/condition-category",
                "display": "Problem List Item"
              }
            ]
          }
        ],
        "code": {
          "coding": [
            {
              "code": "44054006",
              "system": "http://snomed.info/sct",
              "display": "Diabetes mellitus type 2 (disorder)"
            }
          ],
          "text": "Type 2 diabetes mellitus"
        },
        "onsetDateTime": "1991-03-16",
        "clinicalStatus": {
          "coding": [
            {
              "code": "active",
              "system": "http://terminology.hl7.org/CodeSystem/condition-clinical"
            }
          ]
        },
        "subject": {
          "reference": "Patient/3f8ca81c-f440-4c31-9987-2016bae6bb7a",
          "display": "Bent Bertelsen"
        },
        "asserter": {
          "reference": "Practitioner/7dcd1b41-c1fb-4724-a334-b19b0a07a9a5",
          "display": "Dr. Hel Ping"
        }
      }
    },
    {
      "fullUrl": "urn:uuid:6d5a8111-650d-43b3-b404-5ce9be204ed8",
      "resource": {
        "resourceType": "Condition",
        "id": "6d5a8111-650d-43b3-b404-5ce9be204ed8",
        "meta": {
          "profile": [
            "http://hl7.org/fhir/uv/ips/StructureDefinition/Condition-uv-ips"
          ]
        },
        "category": [
          {
            "coding": [
              {
                "code": "problem-list-item",
                "system": "http://terminology.hl7.org/CodeSystem/condition-category",
                "display": "Problem List Item"
              }
            ]
          }
        ],
        "code": {
          "coding": [
            {
              "code": "237602007",
              "system": "http://snomed.info/sct",
              "display": "Metabolic syndrome X (disorder)"
            }
          ],
          "text": "Metabolic syndrome X"
        },
        "onsetDateTime": "1990-03-10",
        "clinicalStatus": {
          "coding": [
            {
              "code": "active",
              "system": "http://terminology.hl7.org/CodeSystem/condition-clinical"
            }
          ]
        },
        "subject": {
          "reference": "Patient/3f8ca81c-f440-4c31-9987-2016bae6bb7a",
          "display": "Bent Bertelsen"
        },
        "asserter": {
          "reference": "Practitioner/7dcd1b41-c1fb-4724-a334-b19b0a07a9a5",
          "display": "Dr. Hel Ping"
        }
      }
    },
    {
      "fullUrl": "urn:uuid:9e618f79-1f63-4815-8acd-4eb1358f4a98",
      "resource": {
        "resourceType": "Condition",
        "id": "9e618f79-1f63-4815-8acd-4eb1358f4a98",
        "meta": {
          "profile": [
            "http://hl7.org/fhir/uv/ips/StructureDefinition/Condition-uv-ips"
          ]
        },
        "category": [
          {
            "coding": [
              {
                "code": "problem-list-item",
                "system": "http://terminology.hl7.org/CodeSystem/condition-category",
                "display": "Problem List Item"
              }
            ]
          }
        ],
        "code": {
          "coding": [
            {
              "code": "271737000",
              "system": "http://snomed.info/sct",
              "display": "Anemia (disorder)"
            }
          ],
          "text": "Anemia"
        },
        "onsetDateTime": "1983-01-29",
        "clinicalStatus": {
          "coding": [
            {
              "code": "active",
              "system": "http://terminology.hl7.org/CodeSystem/condition-clinical"
            }
          ]
        },
        "subject": {
          "reference": "Patient/3f8ca81c-f440-4c31-9987-2016bae6bb7a",
          "display": "Bent Bertelsen"
        },
        "asserter": {
          "reference": "Practitioner/7dcd1b41-c1fb-4724-a334-b19b0a07a9a5",
          "display": "Dr. Hel Ping"
        }
      }
    },
    {
      "fullUrl": "urn:uuid:78907ef6-addb-46e0-8c73-59a0637b8e1c",
      "resource": {
        "resourceType": "Condition",
        "id": "78907ef6-addb-46e0-8c73-59a0637b8e1c",
        "meta": {
          "profile": [
            "http://hl7.org/fhir/uv/ips/StructureDefinition/Condition-uv-ips"
          ]
        },
        "category": [
          {
            "coding": [
              {
                "code": "problem-list-item",
                "system": "http://terminology.hl7.org/CodeSystem/condition-category",
                "display": "Problem List Item"
              }
            ]
          }
        ],
        "code": {
          "coding": [
            {
              "code": "59621000",
              "system": "http://snomed.info/sct",
              "display": "Essential hypertension (disorder)"
            }
          ],
          "text": "Essential hypertension"
        },
        "onsetDateTime": "1977-12-31",
        "clinicalStatus": {
          "coding": [
            {
              "code": "active",
              "system": "http://terminology.hl7.org/CodeSystem/condition-clinical"
            }
          ]
        },
        "subject": {
          "reference": "Patient/3f8ca81c-f440-4c31-9987-2016bae6bb7a",
          "display": "Bent Bertelsen"
        },
        "asserter": {
          "reference": "Practitioner/7dcd1b41-c1fb-4724-a334-b19b0a07a9a5",
          "display": "Dr. Hel Ping"
        }
      }
    },
    {
      "fullUrl": "urn:uuid:d313e2da-076d-434a-bf1c-1dabfae168fb",
      "resource": {
        "resourceType": "Condition",
        "id": "d313e2da-076d-434a-bf1c-1dabfae168fb",
        "meta": {
          "profile": [
            "http://hl7.org/fhir/uv/ips/StructureDefinition/Condition-uv-ips"
          ]
        },
        "category": [
          {
            "coding": [
              {
                "code": "problem-list-item",
                "system": "http://terminology.hl7.org/CodeSystem/condition-category",
                "display": "Problem List Item"
              }
            ]
          }
        ],
        "code": {
          "coding": [
            {
              "code": "66383009",
              "system": "http://snomed.info/sct",
              "display": "Gingivitis (disorder)"
            }
          ],
          "text": "Gingivitis"
        },
        "onsetDateTime": "2022-09-10",
        "clinicalStatus": {
          "coding": [
            {
              "code": "inactive",
              "system": "http://terminology.hl7.org/CodeSystem/condition-clinical"
            }
          ]
        },
        "subject": {
          "reference": "Patient/3f8ca81c-f440-4c31-9987-2016bae6bb7a",
          "display": "Bent Bertelsen"
        },
        "asserter": {
          "reference": "Practitioner/7dcd1b41-c1fb-4724-a334-b19b0a07a9a5",
          "display": "Dr. Hel Ping"
        }
      }
    },
    {
      "fullUrl": "urn:uuid:6f098e9f-b7ae-4864-a88c-e493772e89bd",
      "resource": {
        "resourceType": "Condition",
        "id": "6f098e9f-b7ae-4864-a88c-e493772e89bd",
        "meta": {
          "profile": [
            "http://hl7.org/fhir/uv/ips/StructureDefinition/Condition-uv-ips"
          ]
        },
        "category": [
          {
            "coding": [
              {
                "code": "problem-list-item",
                "system": "http://terminology.hl7.org/CodeSystem/condition-category",
                "display": "Problem List Item"
              }
            ]
          }
        ],
        "code": {
          "coding": [
            {
              "code": "109570002",
              "system": "http://snomed.info/sct",
              "display": "Primary dental caries (disorder)"
            }
          ],
          "text": "Primary dental caries"
        },
        "onsetDateTime": "2021-09-18",
        "clinicalStatus": {
          "coding": [
            {
              "code": "inactive",
              "system": "http://terminology.hl7.org/CodeSystem/condition-clinical"
            }
          ]
        },
        "subject": {
          "reference": "Patient/3f8ca81c-f440-4c31-9987-2016bae6bb7a",
          "display": "Bent Bertelsen"
        },
        "asserter": {
          "reference": "Practitioner/7dcd1b41-c1fb-4724-a334-b19b0a07a9a5",
          "display": "Dr. Hel Ping"
        }
      }
    },
    {
      "fullUrl": "urn:uuid:634b23eb-0b20-44de-b8a9-4b4919dcc278",
      "resource": {
        "resourceType": "Condition",
        "id": "634b23eb-0b20-44de-b8a9-4b4919dcc278",
        "meta": {
          "profile": [
            "http://hl7.org/fhir/uv/ips/StructureDefinition/Condition-uv-ips"
          ]
        },
        "category": [
          {
            "coding": [
              {
                "code": "problem-list-item",
                "system": "http://terminology.hl7.org/CodeSystem/condition-category",
                "display": "Problem List Item"
              }
            ]
          }
        ],
        "code": {
          "coding": [
            {
              "code": "66383009",
              "system": "http://snomed.info/sct",
              "display": "Gingivitis (disorder)"
            }
          ],
          "text": "Gingivitis"
        },
        "onsetDateTime": "2021-09-04",
        "clinicalStatus": {
          "coding": [
            {
              "code": "inactive",
              "system": "http://terminology.hl7.org/CodeSystem/condition-clinical"
            }
          ]
        },
        "subject": {
          "reference": "Patient/3f8ca81c-f440-4c31-9987-2016bae6bb7a",
          "display": "Bent Bertelsen"
        },
        "asserter": {
          "reference": "Practitioner/7dcd1b41-c1fb-4724-a334-b19b0a07a9a5",
          "display": "Dr. Hel Ping"
        }
      }
    },
    {
      "fullUrl": "urn:uuid:d86640c0-e00e-4f1a-8413-ac37a72f48fa",
      "resource": {
        "resourceType": "Condition",
        "id": "d86640c0-e00e-4f1a-8413-ac37a72f48fa",
        "meta": {
          "profile": [
            "http://hl7.org/fhir/uv/ips/StructureDefinition/Condition-uv-ips"
          ]
        },
        "category": [
          {
            "coding": [
              {
                "code": "problem-list-item",
                "system": "http://terminology.hl7.org/CodeSystem/condition-category",
                "display": "Problem List Item"
              }
            ]
          }
        ],
        "code": {
          "coding": [
            {
              "code": "18718003",
              "system": "http://snomed.info/sct",
              "display": "Gingival disease (disorder)"
            }
          ],
          "text": "Gingival disease"
        },
        "onsetDateTime": "2021-05-22",
        "clinicalStatus": {
          "coding": [
            {
              "code": "inactive",
              "system": "http://terminology.hl7.org/CodeSystem/condition-clinical"
            }
          ]
        },
        "subject": {
          "reference": "Patient/3f8ca81c-f440-4c31-9987-2016bae6bb7a",
          "display": "Bent Bertelsen"
        },
        "asserter": {
          "reference": "Practitioner/7dcd1b41-c1fb-4724-a334-b19b0a07a9a5",
          "display": "Dr. Hel Ping"
        }
      }
    },
    {
      "fullUrl": "urn:uuid:a7a25b05-a272-4c24-b9f1-b963362ffd5a",
      "resource": {
        "resourceType": "Condition",
        "id": "a7a25b05-a272-4c24-b9f1-b963362ffd5a",
        "meta": {
          "profile": [
            "http://hl7.org/fhir/uv/ips/StructureDefinition/Condition-uv-ips"
          ]
        },
        "category": [
          {
            "coding": [
              {
                "code": "problem-list-item",
                "system": "http://terminology.hl7.org/CodeSystem/condition-category",
                "display": "Problem List Item"
              }
            ]
          }
        ],
        "code": {
          "coding": [
            {
              "code": "66383009",
              "system": "http://snomed.info/sct",
              "display": "Gingivitis (disorder)"
            }
          ],
          "text": "Gingivitis"
        },
        "onsetDateTime": "2021-05-08",
        "clinicalStatus": {
          "coding": [
            {
              "code": "inactive",
              "system": "http://terminology.hl7.org/CodeSystem/condition-clinical"
            }
          ]
        },
        "subject": {
          "reference": "Patient/3f8ca81c-f440-4c31-9987-2016bae6bb7a",
          "display": "Bent Bertelsen"
        },
        "asserter": {
          "reference": "Practitioner/7dcd1b41-c1fb-4724-a334-b19b0a07a9a5",
          "display": "Dr. Hel Ping"
        }
      }
    },
    {
      "fullUrl": "urn:uuid:ec45c32b-52a3-46ab-8cd4-c7228820ae8a",
      "resource": {
        "resourceType": "Condition",
        "id": "ec45c32b-52a3-46ab-8cd4-c7228820ae8a",
        "meta": {
          "profile": [
            "http://hl7.org/fhir/uv/ips/StructureDefinition/Condition-uv-ips"
          ]
        },
        "category": [
          {
            "coding": [
              {
                "code": "problem-list-item",
                "system": "http://terminology.hl7.org/CodeSystem/condition-category",
                "display": "Problem List Item"
              }
            ]
          }
        ],
        "code": {
          "coding": [
            {
              "code": "10509002",
              "system": "http://snomed.info/sct",
              "display": "Acute bronchitis (disorder)"
            }
          ],
          "text": "Acute bronchitis"
        },
        "onsetDateTime": "2021-04-30",
        "clinicalStatus": {
          "coding": [
            {
              "code": "inactive",
              "system": "http://terminology.hl7.org/CodeSystem/condition-clinical"
            }
          ]
        },
        "subject": {
          "reference": "Patient/3f8ca81c-f440-4c31-9987-2016bae6bb7a",
          "display": "Bent Bertelsen"
        },
        "asserter": {
          "reference": "Practitioner/7dcd1b41-c1fb-4724-a334-b19b0a07a9a5",
          "display": "Dr. Hel Ping"
        }
      }
    },
    {
      "fullUrl": "urn:uuid:14043828-3a61-4628-b4f9-a75eb23b9580",
      "resource": {
        "resourceType": "Condition",
        "id": "14043828-3a61-4628-b4f9-a75eb23b9580",
        "meta": {
          "profile": [
            "http://hl7.org/fhir/uv/ips/StructureDefinition/Condition-uv-ips"
          ]
        },
        "category": [
          {
            "coding": [
              {
                "code": "problem-list-item",
                "system": "http://terminology.hl7.org/CodeSystem/condition-category",
                "display": "Problem List Item"
              }
            ]
          }
        ],
        "code": {
          "coding": [
            {
              "code": "66383009",
              "system": "http://snomed.info/sct",
              "display": "Gingivitis (disorder)"
            }
          ],
          "text": "Gingivitis"
        },
        "onsetDateTime": "2020-08-29",
        "clinicalStatus": {
          "coding": [
            {
              "code": "inactive",
              "system": "http://terminology.hl7.org/CodeSystem/condition-clinical"
            }
          ]
        },
        "subject": {
          "reference": "Patient/3f8ca81c-f440-4c31-9987-2016bae6bb7a",
          "display": "Bent Bertelsen"
        },
        "asserter": {
          "reference": "Practitioner/7dcd1b41-c1fb-4724-a334-b19b0a07a9a5",
          "display": "Dr. Hel Ping"
        }
      }
    },
    {
      "fullUrl": "urn:uuid:de7a410e-53ba-4515-b6e5-37ec27cf2eda",
      "resource": {
        "resourceType": "Condition",
        "id": "de7a410e-53ba-4515-b6e5-37ec27cf2eda",
        "meta": {
          "profile": [
            "http://hl7.org/fhir/uv/ips/StructureDefinition/Condition-uv-ips"
          ]
        },
        "category": [
          {
            "coding": [
              {
                "code": "problem-list-item",
                "system": "http://terminology.hl7.org/CodeSystem/condition-category",
                "display": "Problem List Item"
              }
            ]
          }
        ],
        "code": {
          "coding": [
            {
              "code": "66383009",
              "system": "http://snomed.info/sct",
              "display": "Gingivitis (disorder)"
            }
          ],
          "text": "Gingivitis"
        },
        "onsetDateTime": "2018-09-29",
        "clinicalStatus": {
          "coding": [
            {
              "code": "inactive",
              "system": "http://terminology.hl7.org/CodeSystem/condition-clinical"
            }
          ]
        },
        "subject": {
          "reference": "Patient/3f8ca81c-f440-4c31-9987-2016bae6bb7a",
          "display": "Bent Bertelsen"
        },
        "asserter": {
          "reference": "Practitioner/7dcd1b41-c1fb-4724-a334-b19b0a07a9a5",
          "display": "Dr. Hel Ping"
        }
      }
    },
    {
      "fullUrl": "urn:uuid:f5a761c7-c914-4f32-b2d4-1e3ed4a406fb",
      "resource": {
        "resourceType": "Condition",
        "id": "f5a761c7-c914-4f32-b2d4-1e3ed4a406fb",
        "meta": {
          "profile": [
            "http://hl7.org/fhir/uv/ips/StructureDefinition/Condition-uv-ips"
          ]
        },
        "category": [
          {
            "coding": [
              {
                "code": "problem-list-item",
                "system": "http://terminology.hl7.org/CodeSystem/condition-category",
                "display": "Problem List Item"
              }
            ]
          }
        ],
        "code": {
          "coding": [
            {
              "code": "195662009",
              "system": "http://snomed.info/sct",
              "display": "Acute viral pharyngitis (disorder)"
            }
          ],
          "text": "Acute viral pharyngitis"
        },
        "onsetDateTime": "2018-09-15",
        "clinicalStatus": {
          "coding": [
            {
              "code": "inactive",
              "system": "http://terminology.hl7.org/CodeSystem/condition-clinical"
            }
          ]
        },
        "subject": {
          "reference": "Patient/3f8ca81c-f440-4c31-9987-2016bae6bb7a",
          "display": "Bent Bertelsen"
        },
        "asserter": {
          "reference": "Practitioner/7dcd1b41-c1fb-4724-a334-b19b0a07a9a5",
          "display": "Dr. Hel Ping"
        }
      }
    },
    {
      "fullUrl": "urn:uuid:4941d630-1f09-4b00-8f8f-4c79631e5cbc",
      "resource": {
        "resourceType": "Condition",
        "id": "4941d630-1f09-4b00-8f8f-4c79631e5cbc",
        "meta": {
          "profile": [
            "http://hl7.org/fhir/uv/ips/StructureDefinition/Condition-uv-ips"
          ]
        },
        "category": [
          {
            "coding": [
              {
                "code": "problem-list-item",
                "system": "http://terminology.hl7.org/CodeSystem/condition-category",
                "display": "Problem List Item"
              }
            ]
          }
        ],
        "code": {
          "coding": [
            {
              "code": "109570002",
              "system": "http://snomed.info/sct",
              "display": "Primary dental caries (disorder)"
            }
          ],
          "text": "Primary dental caries"
        },
        "onsetDateTime": "2018-09-08",
        "clinicalStatus": {
          "coding": [
            {
              "code": "inactive",
              "system": "http://terminology.hl7.org/CodeSystem/condition-clinical"
            }
          ]
        },
        "subject": {
          "reference": "Patient/3f8ca81c-f440-4c31-9987-2016bae6bb7a",
          "display": "Bent Bertelsen"
        },
        "asserter": {
          "reference": "Practitioner/7dcd1b41-c1fb-4724-a334-b19b0a07a9a5",
          "display": "Dr. Hel Ping"
        }
      }
    },
    {
      "fullUrl": "urn:uuid:97171c00-3a80-4df3-93f9-1ddc80336319",
      "resource": {
        "resourceType": "Condition",
        "id": "97171c00-3a80-4df3-93f9-1ddc80336319",
        "meta": {
          "profile": [
            "http://hl7.org/fhir/uv/ips/StructureDefinition/Condition-uv-ips"
          ]
        },
        "category": [
          {
            "coding": [
              {
                "code": "problem-list-item",
                "system": "http://terminology.hl7.org/CodeSystem/condition-category",
                "display": "Problem List Item"
              }
            ]
          }
        ],
        "code": {
          "coding": [
            {
              "code": "66383009",
              "system": "http://snomed.info/sct",
              "display": "Gingivitis (disorder)"
            }
          ],
          "text": "Gingivitis"
        },
        "onsetDateTime": "2018-08-04",
        "clinicalStatus": {
          "coding": [
            {
              "code": "inactive",
              "system": "http://terminology.hl7.org/CodeSystem/condition-clinical"
            }
          ]
        },
        "subject": {
          "reference": "Patient/3f8ca81c-f440-4c31-9987-2016bae6bb7a",
          "display": "Bent Bertelsen"
        },
        "asserter": {
          "reference": "Practitioner/7dcd1b41-c1fb-4724-a334-b19b0a07a9a5",
          "display": "Dr. Hel Ping"
        }
      }
    },
    {
      "fullUrl": "urn:uuid:d4bab947-c098-426c-ba52-79b7b64f41fa",
      "resource": {
        "resourceType": "Condition",
        "id": "d4bab947-c098-426c-ba52-79b7b64f41fa",
        "meta": {
          "profile": [
            "http://hl7.org/fhir/uv/ips/StructureDefinition/Condition-uv-ips"
          ]
        },
        "category": [
          {
            "coding": [
              {
                "code": "problem-list-item",
                "system": "http://terminology.hl7.org/CodeSystem/condition-category",
                "display": "Problem List Item"
              }
            ]
          }
        ],
        "code": {
          "coding": [
            {
              "code": "10509002",
              "system": "http://snomed.info/sct",
              "display": "Acute bronchitis (disorder)"
            }
          ],
          "text": "Acute bronchitis"
        },
        "onsetDateTime": "2018-07-27",
        "clinicalStatus": {
          "coding": [
            {
              "code": "inactive",
              "system": "http://terminology.hl7.org/CodeSystem/condition-clinical"
            }
          ]
        },
        "subject": {
          "reference": "Patient/3f8ca81c-f440-4c31-9987-2016bae6bb7a",
          "display": "Bent Bertelsen"
        },
        "asserter": {
          "reference": "Practitioner/7dcd1b41-c1fb-4724-a334-b19b0a07a9a5",
          "display": "Dr. Hel Ping"
        }
      }
    },
    {
      "fullUrl": "urn:uuid:80f9ed16-d952-4eac-8330-284d13ff2c0b",
      "resource": {
        "resourceType": "Condition",
        "id": "80f9ed16-d952-4eac-8330-284d13ff2c0b",
        "meta": {
          "profile": [
            "http://hl7.org/fhir/uv/ips/StructureDefinition/Condition-uv-ips"
          ]
        },
        "category": [
          {
            "coding": [
              {
                "code": "problem-list-item",
                "system": "http://terminology.hl7.org/CodeSystem/condition-category",
                "display": "Problem List Item"
              }
            ]
          }
        ],
        "code": {
          "coding": [
            {
              "code": "22298006",
              "system": "http://snomed.info/sct",
              "display": "Myocardial infarction (disorder)"
            }
          ],
          "text": "Myocardial infarction"
        },
        "onsetDateTime": "2017-09-06",
        "clinicalStatus": {
          "coding": [
            {
              "code": "inactive",
              "system": "http://terminology.hl7.org/CodeSystem/condition-clinical"
            }
          ]
        },
        "subject": {
          "reference": "Patient/3f8ca81c-f440-4c31-9987-2016bae6bb7a",
          "display": "Bent Bertelsen"
        },
        "asserter": {
          "reference": "Practitioner/7dcd1b41-c1fb-4724-a334-b19b0a07a9a5",
          "display": "Dr. Hel Ping"
        }
      }
    },
    {
      "fullUrl": "urn:uuid:e3c11ece-ab00-492a-90e6-84cc16c3e3d8",
      "resource": {
        "resourceType": "Condition",
        "id": "e3c11ece-ab00-492a-90e6-84cc16c3e3d8",
        "meta": {
          "profile": [
            "http://hl7.org/fhir/uv/ips/StructureDefinition/Condition-uv-ips"
          ]
        },
        "category": [
          {
            "coding": [
              {
                "code": "problem-list-item",
                "system": "http://terminology.hl7.org/CodeSystem/condition-category",
                "display": "Problem List Item"
              }
            ]
          }
        ],
        "code": {
          "coding": [
            {
              "code": "66383009",
              "system": "http://snomed.info/sct",
              "display": "Gingivitis (disorder)"
            }
          ],
          "text": "Gingivitis"
        },
        "onsetDateTime": "2016-08-06",
        "clinicalStatus": {
          "coding": [
            {
              "code": "inactive",
              "system": "http://terminology.hl7.org/CodeSystem/condition-clinical"
            }
          ]
        },
        "subject": {
          "reference": "Patient/3f8ca81c-f440-4c31-9987-2016bae6bb7a",
          "display": "Bent Bertelsen"
        },
        "asserter": {
          "reference": "Practitioner/7dcd1b41-c1fb-4724-a334-b19b0a07a9a5",
          "display": "Dr. Hel Ping"
        }
      }
    },
    {
      "fullUrl": "urn:uuid:88d59159-7be4-43a5-a725-59c103a2f35a",
      "resource": {
        "resourceType": "Condition",
        "id": "88d59159-7be4-43a5-a725-59c103a2f35a",
        "meta": {
          "profile": [
            "http://hl7.org/fhir/uv/ips/StructureDefinition/Condition-uv-ips"
          ]
        },
        "category": [
          {
            "coding": [
              {
                "code": "problem-list-item",
                "system": "http://terminology.hl7.org/CodeSystem/condition-category",
                "display": "Problem List Item"
              }
            ]
          }
        ],
        "code": {
          "coding": [
            {
              "code": "283371005",
              "system": "http://snomed.info/sct",
              "display": "Laceration of forearm (disorder)"
            }
          ],
          "text": "Laceration of forearm"
        },
        "onsetDateTime": "2016-06-09",
        "clinicalStatus": {
          "coding": [
            {
              "code": "inactive",
              "system": "http://terminology.hl7.org/CodeSystem/condition-clinical"
            }
          ]
        },
        "subject": {
          "reference": "Patient/3f8ca81c-f440-4c31-9987-2016bae6bb7a",
          "display": "Bent Bertelsen"
        },
        "asserter": {
          "reference": "Practitioner/7dcd1b41-c1fb-4724-a334-b19b0a07a9a5",
          "display": "Dr. Hel Ping"
        }
      }
    },
    {
      "fullUrl": "urn:uuid:6dc63245-c284-4be4-88dd-cba31a6eb965",
      "resource": {
        "resourceType": "Condition",
        "id": "6dc63245-c284-4be4-88dd-cba31a6eb965",
        "meta": {
          "profile": [
            "http://hl7.org/fhir/uv/ips/StructureDefinition/Condition-uv-ips"
          ]
        },
        "category": [
          {
            "coding": [
              {
                "code": "problem-list-item",
                "system": "http://terminology.hl7.org/CodeSystem/condition-category",
                "display": "Problem List Item"
              }
            ]
          }
        ],
        "code": {
          "coding": [
            {
              "code": "312608009",
              "system": "http://snomed.info/sct",
              "display": "Laceration - injury (disorder)"
            }
          ],
          "text": "Laceration - injury"
        },
        "onsetDateTime": "2016-06-09",
        "clinicalStatus": {
          "coding": [
            {
              "code": "inactive",
              "system": "http://terminology.hl7.org/CodeSystem/condition-clinical"
            }
          ]
        },
        "subject": {
          "reference": "Patient/3f8ca81c-f440-4c31-9987-2016bae6bb7a",
          "display": "Bent Bertelsen"
        },
        "asserter": {
          "reference": "Practitioner/7dcd1b41-c1fb-4724-a334-b19b0a07a9a5",
          "display": "Dr. Hel Ping"
        }
      }
    },
    {
      "fullUrl": "urn:uuid:8ed75c87-f172-4e0c-bae4-9cca0d950a66",
      "resource": {
        "resourceType": "Condition",
        "id": "8ed75c87-f172-4e0c-bae4-9cca0d950a66",
        "meta": {
          "profile": [
            "http://hl7.org/fhir/uv/ips/StructureDefinition/Condition-uv-ips"
          ]
        },
        "category": [
          {
            "coding": [
              {
                "code": "problem-list-item",
                "system": "http://terminology.hl7.org/CodeSystem/condition-category",
                "display": "Problem List Item"
              }
            ]
          }
        ],
        "code": {
          "coding": [
            {
              "code": "444814009",
              "system": "http://snomed.info/sct",
              "display": "Viral sinusitis (disorder)"
            }
          ],
          "text": "Viral sinusitis"
        },
        "onsetDateTime": "2016-02-15",
        "clinicalStatus": {
          "coding": [
            {
              "code": "inactive",
              "system": "http://terminology.hl7.org/CodeSystem/condition-clinical"
            }
          ]
        },
        "subject": {
          "reference": "Patient/3f8ca81c-f440-4c31-9987-2016bae6bb7a",
          "display": "Bent Bertelsen"
        },
        "asserter": {
          "reference": "Practitioner/7dcd1b41-c1fb-4724-a334-b19b0a07a9a5",
          "display": "Dr. Hel Ping"
        }
      }
    },
    {
      "fullUrl": "urn:uuid:70fd4a09-7d21-4da0-bda2-e136397f067b",
      "resource": {
        "resourceType": "Medication",
        "id": "70fd4a09-7d21-4da0-bda2-e136397f067b",
        "meta": {
          "profile": [
            "http://hl7.org/fhir/uv/ips/StructureDefinition/Medication-uv-ips"
          ]
        },
        "code": {
          "coding": [
            {
              "code": "310798",
              "system": "http://www.nlm.nih.gov/research/umls/rxnorm",
              "display": "hydrochlorothiazide 25 MG Oral Tablet"
            },
            {
              "code": "376209006",
              "system": "http://snomed.info/sct",
              "display": "Product containing precisely hydrochlorothiazide 25 milligram/1 each conventional release oral tablet (clinical drug)"
            }
          ],
          "text": "Hydrochlorothiazide 25 mg oral tablet"
        },
        "form": {
          "coding": [
            {
              "code": "421026006",
              "system": "http://snomed.info/sct",
              "display": "Oral tablet"
            }
          ]
        },
        "ingredient": [
          {
            "itemCodeableConcept": {
              "coding": [
                {
                  "code": "387525002",
                  "system": "http://snomed.info/sct",
                  "display": "Hydrochlorothiazide"
                }
              ]
            },
            "isActive": true
          }
        ]
      }
    },
    {
      "fullUrl": "urn:uuid:eff1f108-4c1d-4408-81ac-9c1fe6bb0e9a",
      "resource": {
        "resourceType": "MedicationStatement",
        "id": "eff1f108-4c1d-4408-81ac-9c1fe6bb0e9a",
        "effectivePeriod": {
          "start": "2024-09-21"
        },
        "dosage": [
          {
            "doseAndRate": [
              {
                "doseQuantity": {
                  "value": 1,
                  "unit": "{tbl}",
                  "code": "{tbl}"
                }
              }
            ],
            "timing": {
              "repeat": {
                "frequency": 1,
                "period": 1,
                "periodUnit": "d"
              }
            },
            "text": "1 tablet (25 mg) by mouth once daily",
            "asNeededBoolean": false
          }
        ],
        "reasonCode": [
          {
            "coding": [
              {
                "code": "59621000",
                "system": "http://snomed.info/sct",
                "display": "Essential hypertension (disorder)"
              }
            ]
          }
        ],
        "status": "active",
        "medicationReference": {
          "reference": "Medication/70fd4a09-7d21-4da0-bda2-e136397f067b",
          "display": "Hydrochlorothiazide 25 mg oral tablet"
        },
        "subject": {
          "reference": "Patient/3f8ca81c-f440-4c31-9987-2016bae6bb7a",
          "display": "Bent Bertelsen"
        }
      }
    },
    {
      "fullUrl": "urn:uuid:c5bd7d60-09e8-4ad3-9ab0-07200066609f",
      "resource": {
        "resourceType": "Medication",
        "id": "c5bd7d60-09e8-4ad3-9ab0-07200066609f",
        "meta": {
          "profile": [
            "http://hl7.org/fhir/uv/ips/StructureDefinition/Medication-uv-ips"
          ]
        },
        "code": {
          "coding": [
            {
              "code": "243670",
              "system": "http://www.nlm.nih.gov/research/umls/rxnorm",
              "display": "aspirin 81 MG Oral Tablet"
            }
          ],
          "text": "aspirin 81 MG Oral Tablet"
        }
      }
    },
    {
      "fullUrl": "urn:uuid:e4034ec3-a597-4fa4-8b62-57d7d70a4cb2",
      "resource": {
        "resourceType": "MedicationStatement",
        "id": "e4034ec3-a597-4fa4-8b62-57d7d70a4cb2",
        "effectivePeriod": {
          "start": "2017-09-07"
        },
        "dosage": [
          {
            "doseAndRate": [
              {
                "doseQuantity": {
                  "value": 1,
                  "unit": "{tbl}",
                  "code": "{tbl}"
                }
              }
            ],
            "timing": {
              "repeat": {
                "frequency": 1,
                "period": 1,
                "periodUnit": "d"
              }
            },
            "text": "1 tablet (81 mg) by mouth once daily",
            "asNeededBoolean": false
          }
        ],
        "status": "active",
        "medicationReference": {
          "reference": "Medication/c5bd7d60-09e8-4ad3-9ab0-07200066609f",
          "display": "aspirin 81 MG Oral Tablet"
        },
        "subject": {
          "reference": "Patient/3f8ca81c-f440-4c31-9987-2016bae6bb7a",
          "display": "Bent Bertelsen"
        }
      }
    },
    {
      "fullUrl": "urn:uuid:34b0fc6a-b2ff-481b-9754-0efe908b382e",
      "resource": {
        "resourceType": "Medication",
        "id": "34b0fc6a-b2ff-481b-9754-0efe908b382e",
        "meta": {
          "profile": [
            "http://hl7.org/fhir/uv/ips/StructureDefinition/Medication-uv-ips"
          ]
        },
        "code": {
          "coding": [
            {
              "code": "855812",
              "system": "http://www.nlm.nih.gov/research/umls/rxnorm",
              "display": "prasugrel 10 MG Oral Tablet"
            },
            {
              "code": "783368008",
              "system": "http://snomed.info/sct",
              "display": "Product containing precisely prasugrel (as prasugrel hydrochloride) 10 milligram/1 each conventional release oral tablet (clinical drug)"
            }
          ],
          "text": "Prasugrel (as prasugrel hydrochloride) 10 mg oral tablet"
        },
        "form": {
          "coding": [
            {
              "code": "421026006",
              "system": "http://snomed.info/sct",
              "display": "Oral tablet"
            }
          ]
        },
        "ingredient": [
          {
            "itemCodeableConcept": {
              "coding": [
                {
                  "code": "735166002",
                  "system": "http://snomed.info/sct",
                  "display": "Prasugrel hydrochloride"
                }
              ]
            },
            "isActive": true
          }
        ]
      }
    },
    {
      "fullUrl": "urn:uuid:134e976a-e154-435b-9105-c3325bcb8bb0",
      "resource": {
        "resourceType": "MedicationStatement",
        "id": "134e976a-e154-435b-9105-c3325bcb8bb0",
        "effectivePeriod": {
          "start": "2017-09-07"
        },
        "dosage": [
          {
            "doseAndRate": [
              {
                "doseQuantity": {
                  "value": 1,
                  "unit": "{tbl}",
                  "code": "{tbl}"
                }
              }
            ],
            "timing": {
              "repeat": {
                "frequency": 1,
                "period": 1,
                "periodUnit": "d"
              }
            },
            "text": "1 tablet (10 mg) once daily",
            "asNeededBoolean": false
          }
        ],
        "status": "active",
        "medicationReference": {
          "reference": "Medication/34b0fc6a-b2ff-481b-9754-0efe908b382e",
          "display": "Prasugrel (as prasugrel hydrochloride) 10 mg oral tablet"
        },
        "subject": {
          "reference": "Patient/3f8ca81c-f440-4c31-9987-2016bae6bb7a",
          "display": "Bent Bertelsen"
        }
      }
    },
    {
      "fullUrl": "urn:uuid:c7a0bd47-3ac8-417c-8ffc-b6af550a4911",
      "resource": {
        "resourceType": "Medication",
        "id": "c7a0bd47-3ac8-417c-8ffc-b6af550a4911",
        "meta": {
          "profile": [
            "http://hl7.org/fhir/uv/ips/StructureDefinition/Medication-uv-ips"
          ]
        },
        "code": {
          "coding": [
            {
              "code": "896762",
              "system": "http://www.nlm.nih.gov/research/umls/rxnorm",
              "display": "labetalol hydrochloride 200 MG Oral Tablet"
            },
            {
              "code": "318446004",
              "system": "http://snomed.info/sct",
              "display": "Product containing precisely labetalol hydrochloride 200 milligram/1 each conventional release oral tablet (clinical drug)"
            }
          ],
          "text": "Labetalol hydrochloride 200 mg oral tablet"
        },
        "form": {
          "coding": [
            {
              "code": "421026006",
              "system": "http://snomed.info/sct",
              "display": "Oral tablet"
            }
          ]
        },
        "ingredient": [
          {
            "itemCodeableConcept": {
              "coding": [
                {
                  "code": "50627005",
                  "system": "http://snomed.info/sct",
                  "display": "Labetalol hydrochloride"
                }
              ]
            },
            "isActive": true
          }
        ]
      }
    },
    {
      "fullUrl": "urn:uuid:b96d6053-38a7-4978-a088-afd3a2e001c0",
      "resource": {
        "resourceType": "MedicationStatement",
        "id": "b96d6053-38a7-4978-a088-afd3a2e001c0",
        "effectivePeriod": {
          "start": "2017-09-07"
        },
        "dosage": [
          {
            "doseAndRate": [
              {
                "doseQuantity": {
                  "value": 1,
                  "unit": "{tbl}",
                  "code": "{tbl}"
                }
              }
            ],
            "timing": {
              "repeat": {
                "frequency": 2,
                "period": 1,
                "periodUnit": "d"
              }
            },
            "text": "1 tablet (200 mg) by mouth twice daily",
            "asNeededBoolean": false
          }
        ],
        "status": "active",
        "medicationReference": {
          "reference": "Medication/c7a0bd47-3ac8-417c-8ffc-b6af550a4911",
          "display": "Labetalol hydrochloride 200 mg oral tablet"
        },
        "subject": {
          "reference": "Patient/3f8ca81c-f440-4c31-9987-2016bae6bb7a",
          "display": "Bent Bertelsen"
        }
      }
    },
    {
      "fullUrl": "urn:uuid:279395ee-7a0a-4568-915b-6076c3e8c14a",
      "resource": {
        "resourceType": "Medication",
        "id": "279395ee-7a0a-4568-915b-6076c3e8c14a",
        "meta": {
          "profile": [
            "http://hl7.org/fhir/uv/ips/StructureDefinition/Medication-uv-ips"
          ]
        },
        "code": {
          "coding": [
            {
              "code": "904475",
              "system": "http://www.nlm.nih.gov/research/umls/rxnorm",
              "display": "pravastatin sodium 40 MG Oral Tablet"
            },
            {
              "code": "320014009",
              "system": "http://snomed.info/sct",
              "display": "Product containing precisely pravastatin sodium 40 milligram/1 each conventional release oral tablet (clinical drug)"
            }
          ],
          "text": "Pravastatin sodium 40 mg oral tablet"
        },
        "form": {
          "coding": [
            {
              "code": "421026006",
              "system": "http://snomed.info/sct",
              "display": "Oral tablet"
            }
          ]
        },
        "ingredient": [
          {
            "itemCodeableConcept": {
              "coding": [
                {
                  "code": "96306007",
                  "system": "http://snomed.info/sct",
                  "display": "Pravastatin sodium"
                }
              ]
            },
            "isActive": true
          }
        ]
      }
    },
    {
      "fullUrl": "urn:uuid:ad116d89-e050-465a-b804-f6586ef02516",
      "resource": {
        "resourceType": "MedicationStatement",
        "id": "ad116d89-e050-465a-b804-f6586ef02516",
        "effectivePeriod": {
          "start": "2017-09-07"
        },
        "dosage": [
          {
            "doseAndRate": [
              {
                "doseQuantity": {
                  "value": 1,
                  "unit": "{tbl}",
                  "code": "{tbl}"
                }
              }
            ],
            "timing": {
              "repeat": {
                "frequency": 1,
                "period": 1,
                "periodUnit": "d"
              }
            },
            "text": "1 tablet (40 mg) by mouth once daily",
            "asNeededBoolean": false
          }
        ],
        "status": "active",
        "medicationReference": {
          "reference": "Medication/279395ee-7a0a-4568-915b-6076c3e8c14a",
          "display": "Pravastatin sodium 40 mg oral tablet"
        },
        "subject": {
          "reference": "Patient/3f8ca81c-f440-4c31-9987-2016bae6bb7a",
          "display": "Bent Bertelsen"
        }
      }
    },
    {
      "fullUrl": "urn:uuid:752d9ff1-0d2d-49dd-8fb0-237163ee5622",
      "resource": {
        "resourceType": "Medication",
        "id": "752d9ff1-0d2d-49dd-8fb0-237163ee5622",
        "meta": {
          "profile": [
            "http://hl7.org/fhir/uv/ips/StructureDefinition/Medication-uv-ips"
          ]
        },
        "code": {
          "coding": [
            {
              "code": "979480",
              "system": "http://www.nlm.nih.gov/research/umls/rxnorm",
              "display": "losartan potassium 100 MG Oral Tablet"
            },
            {
              "code": "407784004",
              "system": "http://snomed.info/sct",
              "display": "Product containing precisely losartan potassium 100 milligram/1 each conventional release oral tablet (clinical drug)"
            }
          ],
          "text": "Losartan potassium 100 mg oral tablet"
        },
        "form": {
          "coding": [
            {
              "code": "421026006",
              "system": "http://snomed.info/sct",
              "display": "Oral tablet"
            }
          ]
        },
        "ingredient": [
          {
            "itemCodeableConcept": {
              "coding": [
                {
                  "code": "108582002",
                  "system": "http://snomed.info/sct",
                  "display": "Losartan potassium"
                }
              ]
            },
            "isActive": true
          }
        ]
      }
    },
    {
      "fullUrl": "urn:uuid:8e1ab116-c8bf-4ed5-bbd9-37d87a344f3c",
      "resource": {
        "resourceType": "MedicationStatement",
        "id": "8e1ab116-c8bf-4ed5-bbd9-37d87a344f3c",
        "effectivePeriod": {
          "start": "2017-09-07"
        },
        "dosage": [
          {
            "doseAndRate": [
              {
                "doseQuantity": {
                  "value": 1,
                  "unit": "{tbl}",
                  "code": "{tbl}"
                }
              }
            ],
            "timing": {
              "repeat": {
                "frequency": 1,
                "period": 1,
                "periodUnit": "d"
              }
            },
            "text": "1 tablet (100 mg) by mouth once daily",
            "asNeededBoolean": false
          }
        ],
        "status": "active",
        "medicationReference": {
          "reference": "Medication/752d9ff1-0d2d-49dd-8fb0-237163ee5622",
          "display": "Losartan potassium 100 mg oral tablet"
        },
        "subject": {
          "reference": "Patient/3f8ca81c-f440-4c31-9987-2016bae6bb7a",
          "display": "Bent Bertelsen"
        }
      }
    },
    {
      "fullUrl": "urn:uuid:e5dbf37d-cd22-4d86-872b-30043bb60041",
      "resource": {
        "resourceType": "Medication",
        "id": "e5dbf37d-cd22-4d86-872b-30043bb60041",
        "meta": {
          "profile": [
            "http://hl7.org/fhir/uv/ips/StructureDefinition/Medication-uv-ips"
          ]
        },
        "code": {
          "coding": [
            {
              "code": "309362",
              "system": "http://www.nlm.nih.gov/research/umls/rxnorm",
              "display": "clopidogrel 75 MG Oral Tablet"
            },
            {
              "code": "783586007",
              "system": "http://snomed.info/sct",
              "display": "Product containing precisely clopidogrel (as clopidogrel bisulfate) 75 milligram/1 each conventional release oral tablet (clinical drug)"
            }
          ],
          "text": "Clopidogrel (as clopidogrel bisulfate) 75 mg oral tablet"
        },
        "form": {
          "coding": [
            {
              "code": "421026006",
              "system": "http://snomed.info/sct",
              "display": "Oral tablet"
            }
          ]
        },
        "ingredient": [
          {
            "itemCodeableConcept": {
              "coding": [
                {
                  "code": "412354008",
                  "system": "http://snomed.info/sct",
                  "display": "Clopidogrel bisulfate"
                }
              ]
            },
            "isActive": true
          }
        ]
      }
    },
    {
      "fullUrl": "urn:uuid:1208a5a3-3444-44c5-872a-692e67f2d440",
      "resource": {
        "resourceType": "MedicationStatement",
        "id": "1208a5a3-3444-44c5-872a-692e67f2d440",
        "effectivePeriod": {
          "start": "2006-06-17"
        },
        "dosage": [
          {
            "doseAndRate": [
              {
                "doseQuantity": {
                  "value": 1,
                  "unit": "{tbl}",
                  "code": "{tbl}"
                }
              }
            ],
            "timing": {
              "repeat": {
                "frequency": 1,
                "period": 1,
                "periodUnit": "d"
              }
            },
            "text": "1 tablet (75 mg) once daily",
            "asNeededBoolean": false
          }
        ],
        "status": "active",
        "medicationReference": {
          "reference": "Medication/e5dbf37d-cd22-4d86-872b-30043bb60041",
          "display": "Clopidogrel (as clopidogrel bisulfate) 75 mg oral tablet"
        },
        "subject": {
          "reference": "Patient/3f8ca81c-f440-4c31-9987-2016bae6bb7a",
          "display": "Bent Bertelsen"
        }
      }
    },
    {
      "fullUrl": "urn:uuid:6bcd2721-b6a3-4130-a5cf-5e437af79e86",
      "resource": {
        "resourceType": "Medication",
        "id": "6bcd2721-b6a3-4130-a5cf-5e437af79e86",
        "meta": {
          "profile": [
            "http://hl7.org/fhir/uv/ips/StructureDefinition/Medication-uv-ips"
          ]
        },
        "code": {
          "coding": [
            {
              "code": "312961",
              "system": "http://www.nlm.nih.gov/research/umls/rxnorm",
              "display": "simvastatin 20 MG Oral Tablet"
            },
            {
              "code": "319997009",
              "system": "http://snomed.info/sct",
              "display": "Product containing precisely simvastatin 20 milligram/1 each conventional release oral tablet (clinical drug)"
            }
          ],
          "text": "Simvastatin 20 mg oral tablet"
        },
        "form": {
          "coding": [
            {
              "code": "421026006",
              "system": "http://snomed.info/sct",
              "display": "Oral tablet"
            }
          ]
        },
        "ingredient": [
          {
            "itemCodeableConcept": {
              "coding": [
                {
                  "code": "387584000",
                  "system": "http://snomed.info/sct",
                  "display": "Simvastatin"
                }
              ]
            },
            "isActive": true
          }
        ]
      }
    },
    {
      "fullUrl": "urn:uuid:9b199b7d-ead2-439c-a10a-9a68d9cfa099",
      "resource": {
        "resourceType": "MedicationStatement",
        "id": "9b199b7d-ead2-439c-a10a-9a68d9cfa099",
        "effectivePeriod": {
          "start": "2006-06-17"
        },
        "dosage": [
          {
            "doseAndRate": [
              {
                "doseQuantity": {
                  "value": 1,
                  "unit": "{tbl}",
                  "code": "{tbl}"
                }
              }
            ],
            "timing": {
              "repeat": {
                "frequency": 1,
                "period": 1,
                "periodUnit": "d"
              }
            },
            "text": "1 tablet (20 mg) by mouth once daily",
            "asNeededBoolean": false
          }
        ],
        "status": "active",
        "medicationReference": {
          "reference": "Medication/6bcd2721-b6a3-4130-a5cf-5e437af79e86",
          "display": "Simvastatin 20 mg oral tablet"
        },
        "subject": {
          "reference": "Patient/3f8ca81c-f440-4c31-9987-2016bae6bb7a",
          "display": "Bent Bertelsen"
        }
      }
    },
    {
      "fullUrl": "urn:uuid:f5b4ffa6-b7e5-455e-86fc-81652cce1d9e",
      "resource": {
        "resourceType": "Medication",
        "id": "f5b4ffa6-b7e5-455e-86fc-81652cce1d9e",
        "meta": {
          "profile": [
            "http://hl7.org/fhir/uv/ips/StructureDefinition/Medication-uv-ips"
          ]
        },
        "code": {
          "coding": [
            {
              "code": "705129",
              "system": "http://www.nlm.nih.gov/research/umls/rxnorm",
              "display": "nitroglycerin 0.4 MG/ACTUAT Mucosal Spray"
            },
            {
              "code": "425176000",
              "system": "http://snomed.info/sct",
              "display": "Product containing precisely glyceryl trinitrate 400 microgram/1 actuation conventional release sublingual spray (clinical drug)"
            }
          ],
          "text": "Nitroglycerin 400 microgram/actuation sublingual spray"
        },
        "form": {
          "coding": [
            {
              "code": "385074009",
              "system": "http://snomed.info/sct",
              "display": "Sublingual spray"
            }
          ]
        },
        "ingredient": [
          {
            "itemCodeableConcept": {
              "coding": [
                {
                  "code": "387404004",
                  "system": "http://snomed.info/sct",
                  "display": "Glyceryl trinitrate"
                }
              ]
            },
            "isActive": true
          }
        ]
      }
    },
    {
      "fullUrl": "urn:uuid:e3906f6b-6193-47a3-9ef8-8e96af77d302",
      "resource": {
        "resourceType": "MedicationStatement",
        "id": "e3906f6b-6193-47a3-9ef8-8e96af77d302",
        "effectivePeriod": {
          "start": "2006-06-17"
        },
        "dosage": [
          {
            "doseAndRate": [
              {
                "doseQuantity": {
                  "value": 400,
                  "unit": "microgram",
                  "code": "ug"
                }
              }
            ],
            "timing": {
              "repeat": {
                "frequency": 1,
                "period": 5,
                "periodUnit": "min"
              }
            },
            "text": "400 micrograms (1 spray) sublingually as needed for chest pain, may repeat every 5 minutes as needed, up to 3 sprays in 15 minutes",
            "asNeededBoolean": true
          }
        ],
        "status": "active",
        "medicationReference": {
          "reference": "Medication/f5b4ffa6-b7e5-455e-86fc-81652cce1d9e",
          "display": "Nitroglycerin 400 microgram/actuation sublingual spray"
        },
        "subject": {
          "reference": "Patient/3f8ca81c-f440-4c31-9987-2016bae6bb7a",
          "display": "Bent Bertelsen"
        }
      }
    },
    {
      "fullUrl": "urn:uuid:3953fcb4-3bfc-4dad-a6db-122d4be3ceae",
      "resource": {
        "resourceType": "Medication",
        "id": "3953fcb4-3bfc-4dad-a6db-122d4be3ceae",
        "meta": {
          "profile": [
            "http://hl7.org/fhir/uv/ips/StructureDefinition/Medication-uv-ips"
          ]
        },
        "code": {
          "coding": [
            {
              "code": "866412",
              "system": "http://www.nlm.nih.gov/research/umls/rxnorm",
              "display": "24 HR metoprolol succinate 100 MG Extended Release Oral Tablet"
            },
            {
              "code": "879980009",
              "system": "http://snomed.info/sct",
              "display": "Product containing precisely metoprolol tartrate (as metoprolol succinate) 100 milligram/1 each prolonged-release oral tablet (clinical drug)"
            }
          ],
          "text": "Metoprolol tartrate (as metoprolol succinate) 100 mg prolonged-release oral tablet"
        },
        "form": {
          "coding": [
            {
              "code": "385060002",
              "system": "http://snomed.info/sct",
              "display": "Prolonged-release oral tablet"
            }
          ]
        },
        "ingredient": [
          {
            "itemCodeableConcept": {
              "coding": [
                {
                  "code": "412432007",
                  "system": "http://snomed.info/sct",
                  "display": "Metoprolol succinate"
                }
              ]
            },
            "isActive": true
          }
        ]
      }
    },
    {
      "fullUrl": "urn:uuid:a07cbbc2-b5df-4075-b371-38c981c8a903",
      "resource": {
        "resourceType": "MedicationStatement",
        "id": "a07cbbc2-b5df-4075-b371-38c981c8a903",
        "effectivePeriod": {
          "start": "2006-06-17"
        },
        "dosage": [
          {
            "doseAndRate": [
              {
                "doseQuantity": {
                  "value": 1,
                  "unit": "{tbl}",
                  "code": "{tbl}"
                }
              }
            ],
            "timing": {
              "repeat": {
                "frequency": 1,
                "period": 1,
                "periodUnit": "d"
              }
            },
            "text": "1 tablet (100 mg) once daily",
            "asNeededBoolean": false
          }
        ],
        "status": "active",
        "medicationReference": {
          "reference": "Medication/3953fcb4-3bfc-4dad-a6db-122d4be3ceae",
          "display": "Metoprolol tartrate (as metoprolol succinate) 100 mg prolonged-release oral tablet"
        },
        "subject": {
          "reference": "Patient/3f8ca81c-f440-4c31-9987-2016bae6bb7a",
          "display": "Bent Bertelsen"
        }
      }
    },
    {
      "fullUrl": "urn:uuid:3dc4dee2-8f63-465c-9261-070718dd490b",
      "resource": {
        "resourceType": "Medication",
        "id": "3dc4dee2-8f63-465c-9261-070718dd490b",
        "meta": {
          "profile": [
            "http://hl7.org/fhir/uv/ips/StructureDefinition/Medication-uv-ips"
          ]
        },
        "code": {
          "coding": [
            {
              "code": "849574",
              "system": "http://www.nlm.nih.gov/research/umls/rxnorm",
              "display": "Naproxen sodium 220 MG Oral Tablet"
            }
          ],
          "text": "Naproxen sodium 220 MG Oral Tablet"
        }
      }
    },
    {
      "fullUrl": "urn:uuid:df39b7ce-5a26-4766-ba03-28db661d195a",
      "resource": {
        "resourceType": "MedicationStatement",
        "id": "df39b7ce-5a26-4766-ba03-28db661d195a",
        "effectivePeriod": {
          "start": "2003-06-16"
        },
        "dosage": [
          {
            "doseAndRate": [
              {
                "doseQuantity": {
                  "value": 1,
                  "unit": "{tbl}",
                  "code": "{tbl}"
                }
              }
            ],
            "timing": {
              "repeat": {
                "frequency": 2,
                "period": 1,
                "periodUnit": "d"
              }
            },
            "text": "1 tablet (220 mg) by mouth every 12 hours as needed",
            "asNeededBoolean": true
          }
        ],
        "reasonCode": [
          {
            "coding": [
              {
                "code": "239873007",
                "system": "http://snomed.info/sct",
                "display": "Osteoarthritis of knee (disorder)"
              }
            ]
          }
        ],
        "status": "active",
        "medicationReference": {
          "reference": "Medication/3dc4dee2-8f63-465c-9261-070718dd490b",
          "display": "Naproxen sodium 220 MG Oral Tablet"
        },
        "subject": {
          "reference": "Patient/3f8ca81c-f440-4c31-9987-2016bae6bb7a",
          "display": "Bent Bertelsen"
        }
      }
    },
    {
      "fullUrl": "urn:uuid:413f3c64-4650-4a42-8939-1d67fb1e072f",
      "resource": {
        "resourceType": "AllergyIntolerance",
        "id": "413f3c64-4650-4a42-8939-1d67fb1e072f",
        "meta": {
          "profile": [
            "http://hl7.eu/fhir/eps/StructureDefinition/allergyIntolerance-eu-eps"
          ]
        },
        "code": {
          "coding": [
            {
              "code": "716186003",
              "system": "http://snomed.info/sct",
              "display": "No known allergy (situation)"
            }
          ]
        },
        "patient": {
          "reference": "Patient/3f8ca81c-f440-4c31-9987-2016bae6bb7a",
          "display": "Bent Bertelsen"
        },
        "_onsetDateTime": {
          "extension": [
            {
              "url": "http://hl7.org/fhir/StructureDefinition/data-absent-reason",
              "valueCode": "unknown"
            }
          ]
        }
      }
    },
    {
      "fullUrl": "urn:uuid:b9ef2c31-cde2-434d-bbad-dae27734b9ec",
      "resource": {
        "resourceType": "Procedure",
        "id": "b9ef2c31-cde2-434d-bbad-dae27734b9ec",
        "meta": {
          "profile": [
            "http://hl7.org/fhir/uv/ips/StructureDefinition/Procedure-uv-ips"
          ]
        },
        "code": {
          "coding": [
            {
              "code": "103697008",
              "system": "http://snomed.info/sct",
              "display": "Patient referral for dental care (procedure)"
            }
          ],
          "text": "Patient referral for dental care"
        },
        "reasonCode": [
          {
            "coding": [
              {
                "code": "66383009",
                "system": "http://snomed.info/sct",
                "display": "Gingivitis (disorder)"
              }
            ]
          }
        ],
        "status": "completed",
        "subject": {
          "reference": "Patient/3f8ca81c-f440-4c31-9987-2016bae6bb7a",
          "display": "Bent Bertelsen"
        },
        "performedDateTime": "2018-08-04"
      }
    },
    {
      "fullUrl": "urn:uuid:61cbe376-705b-4da8-abcd-97305cc2f4df",
      "resource": {
        "resourceType": "Procedure",
        "id": "61cbe376-705b-4da8-abcd-97305cc2f4df",
        "meta": {
          "profile": [
            "http://hl7.org/fhir/uv/ips/StructureDefinition/Procedure-uv-ips"
          ]
        },
        "code": {
          "coding": [
            {
              "code": "171207006",
              "system": "http://snomed.info/sct",
              "display": "Depression screening (procedure)"
            }
          ],
          "text": "Depression screening"
        },
        "status": "completed",
        "subject": {
          "reference": "Patient/3f8ca81c-f440-4c31-9987-2016bae6bb7a",
          "display": "Bent Bertelsen"
        },
        "performedDateTime": "2018-08-04"
      }
    },
    {
      "fullUrl": "urn:uuid:d50e582f-f11f-419f-8d7c-28bc44dabec9",
      "resource": {
        "resourceType": "Procedure",
        "id": "d50e582f-f11f-419f-8d7c-28bc44dabec9",
        "meta": {
          "profile": [
            "http://hl7.org/fhir/uv/ips/StructureDefinition/Procedure-uv-ips"
          ]
        },
        "code": {
          "coding": [
            {
              "code": "430193006",
              "system": "http://snomed.info/sct",
              "display": "Medication reconciliation (procedure)"
            }
          ],
          "text": "Medication reconciliation"
        },
        "status": "completed",
        "subject": {
          "reference": "Patient/3f8ca81c-f440-4c31-9987-2016bae6bb7a",
          "display": "Bent Bertelsen"
        },
        "performedDateTime": "2018-08-04"
      }
    },
    {
      "fullUrl": "urn:uuid:56a1973f-9f9b-430e-b023-218b6a79f1ed",
      "resource": {
        "resourceType": "Procedure",
        "id": "56a1973f-9f9b-430e-b023-218b6a79f1ed",
        "meta": {
          "profile": [
            "http://hl7.org/fhir/uv/ips/StructureDefinition/Procedure-uv-ips"
          ]
        },
        "code": {
          "coding": [
            {
              "code": "710824005",
              "system": "http://snomed.info/sct",
              "display": "Assessment of health and social care needs (procedure)"
            }
          ],
          "text": "Assessment of health and social care needs"
        },
        "status": "completed",
        "subject": {
          "reference": "Patient/3f8ca81c-f440-4c31-9987-2016bae6bb7a",
          "display": "Bent Bertelsen"
        },
        "performedDateTime": "2018-08-04"
      }
    },
    {
      "fullUrl": "urn:uuid:4dd44e73-be25-44e7-92d6-c8429c6ec08e",
      "resource": {
        "resourceType": "Procedure",
        "id": "4dd44e73-be25-44e7-92d6-c8429c6ec08e",
        "meta": {
          "profile": [
            "http://hl7.org/fhir/uv/ips/StructureDefinition/Procedure-uv-ips"
          ]
        },
        "code": {
          "coding": [
            {
              "code": "710841007",
              "system": "http://snomed.info/sct",
              "display": "Assessment of anxiety (procedure)"
            }
          ],
          "text": "Assessment of anxiety"
        },
        "status": "completed",
        "subject": {
          "reference": "Patient/3f8ca81c-f440-4c31-9987-2016bae6bb7a",
          "display": "Bent Bertelsen"
        },
        "performedDateTime": "2018-08-04"
      }
    },
    {
      "fullUrl": "urn:uuid:1a7f9f08-c4af-4022-8009-64c61ef45beb",
      "resource": {
        "resourceType": "Procedure",
        "id": "1a7f9f08-c4af-4022-8009-64c61ef45beb",
        "meta": {
          "profile": [
            "http://hl7.org/fhir/uv/ips/StructureDefinition/Procedure-uv-ips"
          ]
        },
        "code": {
          "coding": [
            {
              "code": "713106006",
              "system": "http://snomed.info/sct",
              "display": "Screening for drug abuse (procedure)"
            }
          ],
          "text": "Screening for drug abuse"
        },
        "status": "completed",
        "subject": {
          "reference": "Patient/3f8ca81c-f440-4c31-9987-2016bae6bb7a",
          "display": "Bent Bertelsen"
        },
        "performedDateTime": "2018-08-04"
      }
    },
    {
      "fullUrl": "urn:uuid:e5f491b7-418a-461a-905b-5f392521d825",
      "resource": {
        "resourceType": "Procedure",
        "id": "e5f491b7-418a-461a-905b-5f392521d825",
        "meta": {
          "profile": [
            "http://hl7.org/fhir/uv/ips/StructureDefinition/Procedure-uv-ips"
          ]
        },
        "code": {
          "coding": [
            {
              "code": "715252007",
              "system": "http://snomed.info/sct",
              "display": "Depression screening using Patient Health Questionnaire Nine Item score (procedure)"
            }
          ],
          "text": "Depression screening using PHQ-9 (Patient Health Questionnaire 9) score"
        },
        "status": "completed",
        "subject": {
          "reference": "Patient/3f8ca81c-f440-4c31-9987-2016bae6bb7a",
          "display": "Bent Bertelsen"
        },
        "performedDateTime": "2018-08-04"
      }
    },
    {
      "fullUrl": "urn:uuid:b474e2af-78a0-459c-b16a-1d0d15b0f56e",
      "resource": {
        "resourceType": "Procedure",
        "id": "b474e2af-78a0-459c-b16a-1d0d15b0f56e",
        "meta": {
          "profile": [
            "http://hl7.org/fhir/uv/ips/StructureDefinition/Procedure-uv-ips"
          ]
        },
        "code": {
          "coding": [
            {
              "code": "866148006",
              "system": "http://snomed.info/sct",
              "display": "Screening for domestic abuse (procedure)"
            }
          ],
          "text": "Screening for domestic abuse"
        },
        "status": "completed",
        "subject": {
          "reference": "Patient/3f8ca81c-f440-4c31-9987-2016bae6bb7a",
          "display": "Bent Bertelsen"
        },
        "performedDateTime": "2018-08-04"
      }
    },
    {
      "fullUrl": "urn:uuid:d1a8c247-9365-494f-9f6e-bd48a36fdd6d",
      "resource": {
        "resourceType": "Procedure",
        "id": "d1a8c247-9365-494f-9f6e-bd48a36fdd6d",
        "meta": {
          "profile": [
            "http://hl7.org/fhir/uv/ips/StructureDefinition/Procedure-uv-ips"
          ]
        },
        "code": {
          "coding": [
            {
              "code": "428211000124100",
              "system": "http://snomed.info/sct",
              "display": "Assessment of substance use (procedure)"
            }
          ],
          "text": "Assessment of substance use"
        },
        "status": "completed",
        "subject": {
          "reference": "Patient/3f8ca81c-f440-4c31-9987-2016bae6bb7a",
          "display": "Bent Bertelsen"
        },
        "performedDateTime": "2018-08-04"
      }
    },
    {
      "fullUrl": "urn:uuid:32bc363d-d25e-4b69-abfd-ee6ba8b03dbf",
      "resource": {
        "resourceType": "Procedure",
        "id": "32bc363d-d25e-4b69-abfd-ee6ba8b03dbf",
        "meta": {
          "profile": [
            "http://hl7.org/fhir/uv/ips/StructureDefinition/Procedure-uv-ips"
          ]
        },
        "code": {
          "coding": [
            {
              "code": "33367005",
              "system": "http://snomed.info/sct",
              "display": "Angiography of coronary artery (procedure)"
            }
          ],
          "text": "Angiography of coronary artery"
        },
        "status": "completed",
        "subject": {
          "reference": "Patient/3f8ca81c-f440-4c31-9987-2016bae6bb7a",
          "display": "Bent Bertelsen"
        },
        "performedDateTime": "2017-09-07"
      }
    },
    {
      "fullUrl": "urn:uuid:a6455bb2-aef1-408c-b8d7-476d80497252",
      "resource": {
        "resourceType": "Procedure",
        "id": "a6455bb2-aef1-408c-b8d7-476d80497252",
        "meta": {
          "profile": [
            "http://hl7.org/fhir/uv/ips/StructureDefinition/Procedure-uv-ips"
          ]
        },
        "code": {
          "coding": [
            {
              "code": "415070008",
              "system": "http://snomed.info/sct",
              "display": "Percutaneous coronary intervention (procedure)"
            }
          ],
          "text": "Percutaneous coronary intervention"
        },
        "reasonCode": [
          {
            "coding": [
              {
                "code": "401314000",
                "system": "http://snomed.info/sct",
                "display": "Acute non-ST segment elevation myocardial infarction (disorder)"
              }
            ]
          }
        ],
        "status": "completed",
        "subject": {
          "reference": "Patient/3f8ca81c-f440-4c31-9987-2016bae6bb7a",
          "display": "Bent Bertelsen"
        },
        "performedDateTime": "2017-09-07"
      }
    },
    {
      "fullUrl": "urn:uuid:18226ae6-8d50-4d2b-82b3-392832b598c9",
      "resource": {
        "resourceType": "Procedure",
        "id": "18226ae6-8d50-4d2b-82b3-392832b598c9",
        "meta": {
          "profile": [
            "http://hl7.org/fhir/uv/ips/StructureDefinition/Procedure-uv-ips"
          ]
        },
        "code": {
          "coding": [
            {
              "code": "433236007",
              "system": "http://snomed.info/sct",
              "display": "Transthoracic echocardiography (procedure)"
            }
          ],
          "text": "Transthoracic echocardiography"
        },
        "status": "completed",
        "subject": {
          "reference": "Patient/3f8ca81c-f440-4c31-9987-2016bae6bb7a",
          "display": "Bent Bertelsen"
        },
        "performedDateTime": "2017-09-07"
      }
    },
    {
      "fullUrl": "urn:uuid:e4fad123-7f84-4956-855b-88d3301419d6",
      "resource": {
        "resourceType": "Procedure",
        "id": "e4fad123-7f84-4956-855b-88d3301419d6",
        "meta": {
          "profile": [
            "http://hl7.org/fhir/uv/ips/StructureDefinition/Procedure-uv-ips"
          ]
        },
        "code": {
          "coding": [
            {
              "code": "15220000",
              "system": "http://snomed.info/sct",
              "display": "Laboratory test (procedure)"
            }
          ],
          "text": "Laboratory test"
        },
        "status": "completed",
        "subject": {
          "reference": "Patient/3f8ca81c-f440-4c31-9987-2016bae6bb7a",
          "display": "Bent Bertelsen"
        },
        "performedDateTime": "2017-09-06"
      }
    },
    {
      "fullUrl": "urn:uuid:c59f39a8-1123-4fdd-9c99-52e22abd878e",
      "resource": {
        "resourceType": "Procedure",
        "id": "c59f39a8-1123-4fdd-9c99-52e22abd878e",
        "meta": {
          "profile": [
            "http://hl7.org/fhir/uv/ips/StructureDefinition/Procedure-uv-ips"
          ]
        },
        "code": {
          "coding": [
            {
              "code": "29303009",
              "system": "http://snomed.info/sct",
              "display": "Electrocardiographic procedure (procedure)"
            }
          ],
          "text": "Electrocardiographic procedure"
        },
        "status": "completed",
        "subject": {
          "reference": "Patient/3f8ca81c-f440-4c31-9987-2016bae6bb7a",
          "display": "Bent Bertelsen"
        },
        "performedDateTime": "2017-09-06"
      }
    },
    {
      "fullUrl": "urn:uuid:34a4ff3c-1859-4a34-aa17-28189331d429",
      "resource": {
        "resourceType": "Procedure",
        "id": "34a4ff3c-1859-4a34-aa17-28189331d429",
        "meta": {
          "profile": [
            "http://hl7.org/fhir/uv/ips/StructureDefinition/Procedure-uv-ips"
          ]
        },
        "code": {
          "coding": [
            {
              "code": "165197003",
              "system": "http://snomed.info/sct",
              "display": "Diagnostic assessment (procedure)"
            }
          ],
          "text": "Diagnostic assessment"
        },
        "status": "completed",
        "subject": {
          "reference": "Patient/3f8ca81c-f440-4c31-9987-2016bae6bb7a",
          "display": "Bent Bertelsen"
        },
        "performedDateTime": "2017-09-06"
      }
    },
    {
      "fullUrl": "urn:uuid:c5da30f2-f14f-4a4a-b301-c6afe30a0468",
      "resource": {
        "resourceType": "Procedure",
        "id": "c5da30f2-f14f-4a4a-b301-c6afe30a0468",
        "meta": {
          "profile": [
            "http://hl7.org/fhir/uv/ips/StructureDefinition/Procedure-uv-ips"
          ]
        },
        "code": {
          "coding": [
            {
              "code": "225338004",
              "system": "http://snomed.info/sct",
              "display": "Risk assessment (procedure)"
            }
          ],
          "text": "Risk assessment"
        },
        "reasonCode": [
          {
            "coding": [
              {
                "code": "401314000",
                "system": "http://snomed.info/sct",
                "display": "Acute non-ST segment elevation myocardial infarction (disorder)"
              }
            ]
          }
        ],
        "status": "completed",
        "subject": {
          "reference": "Patient/3f8ca81c-f440-4c31-9987-2016bae6bb7a",
          "display": "Bent Bertelsen"
        },
        "performedDateTime": "2017-09-06"
      }
    },
    {
      "fullUrl": "urn:uuid:7d0034d4-71d7-43fa-b9da-408fb1e97aa9",
      "resource": {
        "resourceType": "Procedure",
        "id": "7d0034d4-71d7-43fa-b9da-408fb1e97aa9",
        "meta": {
          "profile": [
            "http://hl7.org/fhir/uv/ips/StructureDefinition/Procedure-uv-ips"
          ]
        },
        "code": {
          "coding": [
            {
              "code": "371908008",
              "system": "http://snomed.info/sct",
              "display": "Oxygen administration by mask (procedure)"
            }
          ],
          "text": "Oxygen administration by mask"
        },
        "status": "completed",
        "subject": {
          "reference": "Patient/3f8ca81c-f440-4c31-9987-2016bae6bb7a",
          "display": "Bent Bertelsen"
        },
        "performedDateTime": "2017-09-06"
      }
    },
    {
      "fullUrl": "urn:uuid:d90a52ee-f32c-4377-82e3-e0c72e1aacfb",
      "resource": {
        "resourceType": "Procedure",
        "id": "d90a52ee-f32c-4377-82e3-e0c72e1aacfb",
        "meta": {
          "profile": [
            "http://hl7.org/fhir/uv/ips/StructureDefinition/Procedure-uv-ips"
          ]
        },
        "code": {
          "coding": [
            {
              "code": "399208008",
              "system": "http://snomed.info/sct",
              "display": "Plain X-ray of chest (procedure)"
            }
          ],
          "text": "Plain X-ray of chest"
        },
        "status": "completed",
        "subject": {
          "reference": "Patient/3f8ca81c-f440-4c31-9987-2016bae6bb7a",
          "display": "Bent Bertelsen"
        },
        "performedDateTime": "2017-09-06"
      }
    },
    {
      "fullUrl": "urn:uuid:ad93689f-24f5-432a-9e3a-4ca1745d5099",
      "resource": {
        "resourceType": "Procedure",
        "id": "ad93689f-24f5-432a-9e3a-4ca1745d5099",
        "meta": {
          "profile": [
            "http://hl7.org/fhir/uv/ips/StructureDefinition/Procedure-uv-ips"
          ]
        },
        "code": {
          "coding": [
            {
              "code": "710839006",
              "system": "http://snomed.info/sct",
              "display": "Assessment of cardiac status using monitoring device (procedure)"
            }
          ],
          "text": "Assessment of cardiac status using monitoring device"
        },
        "status": "completed",
        "subject": {
          "reference": "Patient/3f8ca81c-f440-4c31-9987-2016bae6bb7a",
          "display": "Bent Bertelsen"
        },
        "performedDateTime": "2017-09-06"
      }
    },
    {
      "fullUrl": "urn:uuid:bffb5a9e-18ac-485c-b47f-f2b2402cc11b",
      "resource": {
        "resourceType": "Procedure",
        "id": "bffb5a9e-18ac-485c-b47f-f2b2402cc11b",
        "meta": {
          "profile": [
            "http://hl7.org/fhir/uv/ips/StructureDefinition/Procedure-uv-ips"
          ]
        },
        "code": {
          "coding": [
            {
              "code": "288086009",
              "system": "http://snomed.info/sct",
              "display": "Suture open wound (procedure)"
            }
          ],
          "text": "Suture open wound"
        },
        "reasonCode": [
          {
            "coding": [
              {
                "code": "283371005",
                "system": "http://snomed.info/sct",
                "display": "Laceration of forearm (disorder)"
              }
            ]
          }
        ],
        "status": "completed",
        "subject": {
          "reference": "Patient/3f8ca81c-f440-4c31-9987-2016bae6bb7a",
          "display": "Bent Bertelsen"
        },
        "performedDateTime": "2016-06-09"
      }
    },
    {
      "fullUrl": "urn:uuid:8e5d3468-0d2b-474a-b66b-c0c6f08ee74f",
      "resource": {
        "resourceType": "Immunization",
        "id": "8e5d3468-0d2b-474a-b66b-c0c6f08ee74f",
        "meta": {
          "profile": [
            "http://hl7.org/fhir/uv/ips/StructureDefinition/Immunization-uv-ips"
          ]
        },
        "vaccineCode": {
          "coding": [
            {
              "code": "1181000221105",
              "system": "http://snomed.info/sct",
              "display": "Vaccine product containing Influenza virus antigen"
            },
            {
              "code": "J07BB02",
              "system": "http://www.whocc.no/atc",
              "display": "Influenza, inactivated, split virus"
            },
            {
              "code": "140",
              "system": "http://hl7.org/fhir/sid/cvx",
              "display": "Influenza  seasonal  injectable  preservative free"
            }
          ],
          "text": "Influenza virus antigen only vaccine product"
        },
        "site": {
          "coding": [
            {
              "code": "73776007",
              "system": "http://snomed.info/sct",
              "display": "Structure of muscle of upper arm"
            }
          ],
          "text": "Structure of muscle of upper arm"
        },
        "route": {
          "coding": [
            {
              "code": "78421000",
              "system": "http://snomed.info/sct",
              "display": "Intramuscular route"
            }
          ],
          "text": "Intramuscular route"
        },
        "status": "completed",
        "patient": {
          "reference": "Patient/3f8ca81c-f440-4c31-9987-2016bae6bb7a",
          "display": "Bent Bertelsen"
        },
        "occurrenceDateTime": "2024-09-21",
        "lotNumber": "EY-c50xz06l",
        "expirationDate": "2025-07-27"
      }
    },
    {
      "fullUrl": "urn:uuid:087c8db9-a73e-4d03-a63f-31531828a69e",
      "resource": {
        "resourceType": "Immunization",
        "id": "087c8db9-a73e-4d03-a63f-31531828a69e",
        "meta": {
          "profile": [
            "http://hl7.org/fhir/uv/ips/StructureDefinition/Immunization-uv-ips"
          ]
        },
        "vaccineCode": {
          "coding": [
            {
              "code": "1119349007",
              "system": "http://snomed.info/sct",
              "display": "Vaccine product containing SARS-CoV-2 mRNA"
            },
            {
              "code": "J07BX03",
              "system": "http://www.whocc.no/atc",
              "display": "COVID-19 mRNA vaccines"
            },
            {
              "code": "208",
              "system": "http://hl7.org/fhir/sid/cvx",
              "display": "COVID-19  mRNA  LNP-S  PF  30 mcg/0.3 mL dose"
            }
          ],
          "text": "SARS-CoV-2 mRNA vaccine"
        },
        "site": {
          "coding": [
            {
              "code": "73776007",
              "system": "http://snomed.info/sct",
              "display": "Structure of muscle of upper arm"
            }
          ],
          "text": "Structure of muscle of upper arm"
        },
        "route": {
          "coding": [
            {
              "code": "78421000",
              "system": "http://snomed.info/sct",
              "display": "Intramuscular route"
            }
          ],
          "text": "Intramuscular route"
        },
        "status": "completed",
        "patient": {
          "reference": "Patient/3f8ca81c-f440-4c31-9987-2016bae6bb7a",
          "display": "Bent Bertelsen"
        },
        "occurrenceDateTime": "2021-04-17",
        "lotNumber": "OZ-814tLKfpt",
        "expirationDate": "2021-12-19"
      }
    },
    {
      "fullUrl": "urn:uuid:2443b79e-49bc-4091-b3c4-1f08579d51c9",
      "resource": {
        "resourceType": "Immunization",
        "id": "2443b79e-49bc-4091-b3c4-1f08579d51c9",
        "meta": {
          "profile": [
            "http://hl7.org/fhir/uv/ips/StructureDefinition/Immunization-uv-ips"
          ]
        },
        "vaccineCode": {
          "coding": [
            {
              "code": "777725002",
              "system": "http://snomed.info/sct",
              "display": "Vaccine product containing only Clostridium tetani toxoid antigen adsorbed"
            },
            {
              "code": "J07AM51",
              "system": "http://www.whocc.no/atc",
              "display": "Diphtheria-tetanus vaccines, adult type"
            },
            {
              "code": "113",
              "system": "http://hl7.org/fhir/sid/cvx",
              "display": "Td (adult)  5 Lf tetanus toxoid  preservative free  adsorbed"
            }
          ],
          "text": "Clostridium tetani toxoid antigen adsorbed only vaccine product"
        },
        "site": {
          "coding": [
            {
              "code": "73776007",
              "system": "http://snomed.info/sct",
              "display": "Structure of muscle of upper arm"
            }
          ],
          "text": "Structure of muscle of upper arm"
        },
        "route": {
          "coding": [
            {
              "code": "78421000",
              "system": "http://snomed.info/sct",
              "display": "Intramuscular route"
            }
          ],
          "text": "Intramuscular route"
        },
        "status": "completed",
        "patient": {
          "reference": "Patient/3f8ca81c-f440-4c31-9987-2016bae6bb7a",
          "display": "Bent Bertelsen"
        },
        "occurrenceDateTime": "2018-08-04",
        "lotNumber": "RA-Qr6h",
        "expirationDate": "2018-11-01"
      }
    }
  ],
  "type": "document",
  "timestamp": "2025-06-16T17:28:57Z"
}
