{
  "resourceType": "Bundle",
  "id": "Instance-Bundle-ba66b4a7-a91c-48e5-8f1a-8e3b4450e969",
  "meta": {
    "profile": [
      "http://hl7.eu/fhir/eps/StructureDefinition/bundle-eu-eps"
    ]
  },
  "identifier": {
    "assigner": {
      "display": "HL7 Europe"
    },
    "system": "urn:oid:2.16.840.1.113883.2.51.999",
    "value": "c614d2d2-6f6c-4581-8845-e4d81fc0f05b"
  },
  "entry": [
    {
      "fullUrl": "urn:uuid:27d10aff-b35f-4b17-b3a6-878e4bc2436d",
      "resource": {
        "resourceType": "Composition",
        "id": "27d10aff-b35f-4b17-b3a6-878e4bc2436d",
        "meta": {
          "profile": [
            "http://hl7.eu/fhir/eps/StructureDefinition/composition-eu-eps"
          ]
        },
        "identifier": {
          "assigner": {
            "display": "HL7 Europe"
          },
          "system": "urn:oid:2.16.840.1.113883.2.51.999",
          "value": "41a7d737-9a45-4568-843f-f95db34c3159"
        },
        "type": {
          "coding": [
            {
              "system": "http://loinc.org",
              "code": "60591-5",
              "display": "European Patient Summary"
            }
          ],
          "text": "European Patient Summary"
        },
        "author": [
          {
            "reference": "urn:uuid:db2aab5a-96ff-402b-b5b6-01204ad50574"
          }
        ],
        "section": [
          {
            "text": {
              "status": "generated",
              "div": "<div xmlns=\"http://www.w3.org/1999/xhtml\"><table class=\"hl7__ips\"><tr><td>Acute ST segment elevation myocardial infarction</td><td>2015-02-21</td><td>active</td></tr><tr><td>Ischemic heart disease</td><td>2014-07-18</td><td>active</td></tr><tr><td>Metabolic syndrome X</td><td>2005-05-27</td><td>active</td></tr><tr><td>Hypertriglyceridemia</td><td>2005-05-27</td><td>active</td></tr><tr><td>Neuropathy due to type 2 diabetes mellitus</td><td>2005-05-27</td><td>active</td></tr><tr><td>Type 2 diabetes mellitus</td><td>2004-05-21</td><td>active</td></tr><tr><td>Essential hypertension</td><td>2001-05-04</td><td>active</td></tr><tr><td>Hyperlipidemia</td><td>1991-04-19</td><td>active</td></tr><tr><td>Chronic sinusitis</td><td>1990-05-12</td><td>active</td></tr><tr><td>Anemia</td><td>1976-06-11</td><td>active</td></tr><tr><td>Primary dental caries</td><td>2024-09-27</td><td>inactive</td></tr><tr><td>Gingivitis</td><td>2022-09-02</td><td>inactive</td></tr><tr><td>COVID-19</td><td>2020-08-31</td><td>inactive</td></tr><tr><td>Gingivitis</td><td>2020-08-21</td><td>inactive</td></tr><tr><td>Viral sinusitis</td><td>2015-07-07</td><td>inactive</td></tr></table></div>"
            },
            "entry": [
              {
                "reference": "urn:uuid:853dba7c-850d-4a52-b5f6-aa69387005a3"
              },
              {
                "reference": "urn:uuid:68a4f1f9-890f-4355-bd1c-f77778015455"
              },
              {
                "reference": "urn:uuid:a01bc82c-496a-4a65-99fd-2dad01e736d3"
              },
              {
                "reference": "urn:uuid:e8f5bf2b-4091-4214-9fea-d12fa5ce8e02"
              },
              {
                "reference": "urn:uuid:8901b8a6-43be-461f-8c2f-b4aa8d40704c"
              },
              {
                "reference": "urn:uuid:e051e6d8-7468-4611-a2f4-3451666fef5e"
              },
              {
                "reference": "urn:uuid:1a18c31e-d726-4273-8816-d9e6745cac36"
              },
              {
                "reference": "urn:uuid:12ed1768-f710-455e-81cd-34caa7e5c696"
              },
              {
                "reference": "urn:uuid:5f3f6960-49ae-4ae0-8821-ac6f11d92eb6"
              },
              {
                "reference": "urn:uuid:f9142b33-bb96-4ae0-96b5-ea8e4fb0ee27"
              },
              {
                "reference": "urn:uuid:ed28cf6c-5e49-4bdb-ad32-1595fa0727e6"
              },
              {
                "reference": "urn:uuid:55abec2f-4d9d-497f-8354-b186bb3db06f"
              },
              {
                "reference": "urn:uuid:1c384e5e-3293-4923-aa83-e8f7a3125daf"
              },
              {
                "reference": "urn:uuid:34742e6a-e0cc-45a1-8ed1-29f7f7807b9a"
              },
              {
                "reference": "urn:uuid:4fd5d8e3-bda6-4b67-b1bc-93c5d0736874"
              }
            ],
            "code": {
              "coding": [
                {
                  "system": "http://loinc.org",
                  "code": "11450-4",
                  "display": "Problem list - Reported"
                }
              ]
            },
            "title": "Problem list"
          },
          {
            "text": {
              "status": "generated",
              "div": "<div xmlns=\"http://www.w3.org/1999/xhtml\"><table class=\"hl7__ips\"><tr><td>Simvastatin 10 mg oral tablet</td><td>2024-09-14</td><td>Oral tablet</td><td>1 tablet (10 mg) by mouth once daily\"</td><td>Reason: Hyperlipidemia (disorder)</td></tr><tr><td>Amlodipine (as amlodipine besylate) 2.5 mg oral tablet</td><td>2024-09-13</td><td>Oral tablet</td><td>1 tablet (2.5 mg) by mouth once daily\"</td><td>Reason: Essential hypertension (disorder)</td></tr><tr><td>Hydrochlorothiazide 25 mg oral tablet</td><td>2024-09-13</td><td>Oral tablet</td><td>1 tablet (25 mg) by mouth once daily\"</td><td>Reason: Essential hypertension (disorder)</td></tr><tr><td>Carvedilol 6.25 mg oral tablet</td><td>2015-02-21</td><td>Oral tablet</td><td>1 tablet (6.25 mg) by mouth twice daily\"</td><td></td></tr><tr><td>aspirin 81 MG Oral Tablet</td><td>2015-02-21</td><td></td><td>1 tablet (81 mg) by mouth once daily\"</td><td></td></tr><tr><td>Atorvastatin (as atorvastatin calcium) 40 mg oral tablet</td><td>2015-02-21</td><td>Oral tablet</td><td>1 tablet (40 mg) by mouth once daily\"</td><td></td></tr><tr><td>Enalapril maleate 10 mg oral tablet</td><td>2015-02-21</td><td>Oral tablet</td><td>1 tablet (10 mg) by mouth once daily\"</td><td></td></tr><tr><td>Vitamin B12 5 MG/ML Injectable Solution</td><td>1976-06-18</td><td></td><td>5 mg (1 mL) intramuscularly once weekly\"</td><td></td></tr><tr><td>Hydrocortisone 10 mg/g and urea 100 mg/g cutaneous cream</td><td>1965-06-20</td><td>Cutaneous cream</td><td>Apply a thin layer (containing 10 mg/g hydrocortisone and 100 mg/g urea) to the affected area twice daily\"</td><td>Reason: Contact dermatitis (disorder)</td></tr></table></div>"
            },
            "entry": [
              {
                "reference": "urn:uuid:aed58bc1-0573-42c7-af2a-4107d81c2e5e"
              },
              {
                "reference": "urn:uuid:de57902c-797e-416b-844c-5e5f8c8a04ce"
              },
              {
                "reference": "urn:uuid:ec04ddb2-a587-4b7f-8a05-38dd4880555d"
              },
              {
                "reference": "urn:uuid:91f4feb3-4ada-4ea3-afda-7a1289e89df7"
              },
              {
                "reference": "urn:uuid:a54fa6f9-540c-406c-b21b-10542b223ccd"
              },
              {
                "reference": "urn:uuid:593d731a-5fde-4744-bdc4-cabf76c5736b"
              },
              {
                "reference": "urn:uuid:77fa8e43-da09-423a-a054-fd377b611a31"
              },
              {
                "reference": "urn:uuid:eefa4e85-9044-46a4-9693-f517a6565b2d"
              },
              {
                "reference": "urn:uuid:3bce1076-810d-4920-93c9-ea133b753868"
              }
            ],
            "code": {
              "coding": [
                {
                  "system": "http://loinc.org",
                  "code": "10160-0",
                  "display": "History of Medication use Narrative"
                }
              ]
            },
            "title": "Medication list"
          },
          {
            "text": {
              "status": "generated",
              "div": "<div xmlns=\"http://www.w3.org/1999/xhtml\"><table class=\"hl7__ips\"><tr><td>Allergic disposition</td><td>1965-07-03</td><td>active</td><td>environment</td></tr></table></div>"
            },
            "entry": [
              {
                "reference": "urn:uuid:d0da9b01-040d-409d-b415-60600742df8c"
              }
            ],
            "code": {
              "coding": [
                {
                  "system": "http://loinc.org",
                  "code": "48765-2",
                  "display": "Allergies and adverse reactions Document"
                }
              ]
            },
            "title": "Allergies and Intolerances"
          },
          {
            "text": {
              "status": "generated",
              "div": "<div xmlns=\"http://www.w3.org/1999/xhtml\"><table class=\"hl7__ips\"><tr><td>Referral to home health care service</td><td>2018-04-06</td><td>-</td></tr></table></div>"
            },
            "entry": [
              {
                "reference": "urn:uuid:87c41078-9393-46ea-85ee-e2062043bfec"
              }
            ],
            "code": {
              "coding": [
                {
                  "system": "http://loinc.org",
                  "code": "47519-4",
                  "display": "History of Procedures Document"
                }
              ]
            },
            "title": "Procedure History list"
          },
          {
            "text": {
              "status": "generated",
              "div": "<div xmlns=\"http://www.w3.org/1999/xhtml\"><table class=\"hl7__ips\"><tr><td>Influenza virus antigen only vaccine product</td><td>2024-09-13</td></tr><tr><td>SARS-CoV-2 mRNA vaccine</td><td>2021-04-23</td></tr><tr><td>Clostridium tetani toxoid antigen adsorbed only vaccine product</td><td>2016-07-29</td></tr></table></div>"
            },
            "entry": [
              {
                "reference": "urn:uuid:38421c66-8dfa-41ef-90a3-fe5a0094bf3a"
              },
              {
                "reference": "urn:uuid:12280ae7-60c4-4a25-9c81-858fd2ac3cb9"
              },
              {
                "reference": "urn:uuid:b8d5cc63-5a77-42eb-b109-3ae7778ac811"
              }
            ],
            "code": {
              "coding": [
                {
                  "system": "http://loinc.org",
                  "code": "11369-6",
                  "display": "History of Immunization Narrative"
                }
              ]
            },
            "title": "Immunizations list"
          }
        ],
        "title": "European Patient Summary",
        "status": "final",
        "subject": {
          "reference": "urn:uuid:698ec669-4737-491b-b52e-6a89a0e6de38"
        },
        "custodian": {
          "reference": "urn:uuid:e350570a-b995-4a36-a546-498dea94a3f8"
        },
        "date": "2025-06-16T17:28:57Z",
        "confidentiality": "N"
      }
    },
    {
      "fullUrl": "urn:uuid:698ec669-4737-491b-b52e-6a89a0e6de38",
      "resource": {
        "resourceType": "Patient",
        "id": "698ec669-4737-491b-b52e-6a89a0e6de38",
        "meta": {
          "profile": [
            "http://hl7.eu/fhir/eps/StructureDefinition/patient-eu-eps"
          ]
        },
        "identifier": [
          {
            "type": {
              "coding": [
                {
                  "code": "NI",
                  "system": "http://terminology.hl7.org/CodeSystem/v2-0203"
                }
              ]
            },
            "system": "http://ec.europa.eu/identifier/eci",
            "value": "3133-085052-5"
          },
          {
            "type": {
              "coding": [
                {
                  "code": "MR",
                  "system": "http://terminology.hl7.org/CodeSystem/v2-0203"
                }
              ]
            },
            "system": "http://local.setting.eu/identifier",
            "value": "8b3c98b0-2c6a-fcd2-b8a8-e4d1966d72ae"
          }
        ],
        "name": [
          {
            "given": [
              "Obrad"
            ],
            "family": "Roršek",
            "text": "Obrad Roršek"
          }
        ],
        "address": [
          {
            "line": [
              "Kolodvorska 77"
            ],
            "use": "home",
            "type": "physical",
            "city": "Lesično",
            "postalCode": "3261",
            "country": "Slovenia"
          }
        ],
        "telecom": [
          {
            "system": "phone",
            "value": "+386 040-942-440"
          }
        ],
        "gender": "male",
        "birthDate": "1940-08-25"
      }
    },
    {
      "fullUrl": "urn:uuid:db2aab5a-96ff-402b-b5b6-01204ad50574",
      "resource": {
        "resourceType": "PractitionerRole",
        "id": "db2aab5a-96ff-402b-b5b6-01204ad50574",
        "meta": {
          "profile": [
            "http://hl7.eu/fhir/base/StructureDefinition/practitionerRole-eu"
          ]
        },
        "practitioner": {
          "reference": "urn:uuid:025e2290-2268-496a-b46d-6cbba0890120"
        },
        "organization": {
          "reference": "urn:uuid:e350570a-b995-4a36-a546-498dea94a3f8"
        }
      }
    },
    {
      "fullUrl": "urn:uuid:025e2290-2268-496a-b46d-6cbba0890120",
      "resource": {
        "resourceType": "Practitioner",
        "id": "025e2290-2268-496a-b46d-6cbba0890120",
        "meta": {
          "profile": [
            "http://hl7.eu/fhir/base/StructureDefinition/practitioner-eu"
          ]
        },
        "name": [
          {
            "prefix": [
              "Dr."
            ],
            "given": [
              "Hel"
            ],
            "family": "Ping"
          }
        ]
      }
    },
    {
      "fullUrl": "urn:uuid:853dba7c-850d-4a52-b5f6-aa69387005a3",
      "resource": {
        "resourceType": "Condition",
        "id": "853dba7c-850d-4a52-b5f6-aa69387005a3",
        "meta": {
          "profile": [
            "http://hl7.org/fhir/uv/ips/StructureDefinition/Condition-uv-ips"
          ]
        },
        "category": [
          {
            "coding": [
              {
                "code": "problem-list-item",
                "system": "http://terminology.hl7.org/CodeSystem/condition-category",
                "display": "Problem List Item"
              }
            ]
          }
        ],
        "code": {
          "coding": [
            {
              "code": "401303003",
              "system": "http://snomed.info/sct",
              "display": "Acute ST segment elevation myocardial infarction (disorder)"
            }
          ],
          "text": "Acute ST segment elevation myocardial infarction"
        },
        "onsetDateTime": "2015-02-21",
        "clinicalStatus": {
          "coding": [
            {
              "code": "active",
              "system": "http://terminology.hl7.org/CodeSystem/condition-clinical"
            }
          ]
        },
        "subject": {
          "reference": "Patient/698ec669-4737-491b-b52e-6a89a0e6de38",
          "display": "Obrad Roršek"
        },
        "asserter": {
          "reference": "Practitioner/025e2290-2268-496a-b46d-6cbba0890120",
          "display": "Dr. Hel Ping"
        }
      }
    },
    {
      "fullUrl": "urn:uuid:68a4f1f9-890f-4355-bd1c-f77778015455",
      "resource": {
        "resourceType": "Condition",
        "id": "68a4f1f9-890f-4355-bd1c-f77778015455",
        "meta": {
          "profile": [
            "http://hl7.org/fhir/uv/ips/StructureDefinition/Condition-uv-ips"
          ]
        },
        "category": [
          {
            "coding": [
              {
                "code": "problem-list-item",
                "system": "http://terminology.hl7.org/CodeSystem/condition-category",
                "display": "Problem List Item"
              }
            ]
          }
        ],
        "code": {
          "coding": [
            {
              "code": "414545008",
              "system": "http://snomed.info/sct",
              "display": "Ischemic heart disease (disorder)"
            }
          ],
          "text": "Ischemic heart disease"
        },
        "onsetDateTime": "2014-07-18",
        "clinicalStatus": {
          "coding": [
            {
              "code": "active",
              "system": "http://terminology.hl7.org/CodeSystem/condition-clinical"
            }
          ]
        },
        "subject": {
          "reference": "Patient/698ec669-4737-491b-b52e-6a89a0e6de38",
          "display": "Obrad Roršek"
        },
        "asserter": {
          "reference": "Practitioner/025e2290-2268-496a-b46d-6cbba0890120",
          "display": "Dr. Hel Ping"
        }
      }
    },
    {
      "fullUrl": "urn:uuid:a01bc82c-496a-4a65-99fd-2dad01e736d3",
      "resource": {
        "resourceType": "Condition",
        "id": "a01bc82c-496a-4a65-99fd-2dad01e736d3",
        "meta": {
          "profile": [
            "http://hl7.org/fhir/uv/ips/StructureDefinition/Condition-uv-ips"
          ]
        },
        "category": [
          {
            "coding": [
              {
                "code": "problem-list-item",
                "system": "http://terminology.hl7.org/CodeSystem/condition-category",
                "display": "Problem List Item"
              }
            ]
          }
        ],
        "code": {
          "coding": [
            {
              "code": "237602007",
              "system": "http://snomed.info/sct",
              "display": "Metabolic syndrome X (disorder)"
            }
          ],
          "text": "Metabolic syndrome X"
        },
        "onsetDateTime": "2005-05-27",
        "clinicalStatus": {
          "coding": [
            {
              "code": "active",
              "system": "http://terminology.hl7.org/CodeSystem/condition-clinical"
            }
          ]
        },
        "subject": {
          "reference": "Patient/698ec669-4737-491b-b52e-6a89a0e6de38",
          "display": "Obrad Roršek"
        },
        "asserter": {
          "reference": "Practitioner/025e2290-2268-496a-b46d-6cbba0890120",
          "display": "Dr. Hel Ping"
        }
      }
    },
    {
      "fullUrl": "urn:uuid:e8f5bf2b-4091-4214-9fea-d12fa5ce8e02",
      "resource": {
        "resourceType": "Condition",
        "id": "e8f5bf2b-4091-4214-9fea-d12fa5ce8e02",
        "meta": {
          "profile": [
            "http://hl7.org/fhir/uv/ips/StructureDefinition/Condition-uv-ips"
          ]
        },
        "category": [
          {
            "coding": [
              {
                "code": "problem-list-item",
                "system": "http://terminology.hl7.org/CodeSystem/condition-category",
                "display": "Problem List Item"
              }
            ]
          }
        ],
        "code": {
          "coding": [
            {
              "code": "302870006",
              "system": "http://snomed.info/sct",
              "display": "Hypertriglyceridemia (disorder)"
            }
          ],
          "text": "Hypertriglyceridemia"
        },
        "onsetDateTime": "2005-05-27",
        "clinicalStatus": {
          "coding": [
            {
              "code": "active",
              "system": "http://terminology.hl7.org/CodeSystem/condition-clinical"
            }
          ]
        },
        "subject": {
          "reference": "Patient/698ec669-4737-491b-b52e-6a89a0e6de38",
          "display": "Obrad Roršek"
        },
        "asserter": {
          "reference": "Practitioner/025e2290-2268-496a-b46d-6cbba0890120",
          "display": "Dr. Hel Ping"
        }
      }
    },
    {
      "fullUrl": "urn:uuid:8901b8a6-43be-461f-8c2f-b4aa8d40704c",
      "resource": {
        "resourceType": "Condition",
        "id": "8901b8a6-43be-461f-8c2f-b4aa8d40704c",
        "meta": {
          "profile": [
            "http://hl7.org/fhir/uv/ips/StructureDefinition/Condition-uv-ips"
          ]
        },
        "category": [
          {
            "coding": [
              {
                "code": "problem-list-item",
                "system": "http://terminology.hl7.org/CodeSystem/condition-category",
                "display": "Problem List Item"
              }
            ]
          }
        ],
        "code": {
          "coding": [
            {
              "code": "368581000119106",
              "system": "http://snomed.info/sct",
              "display": "Neuropathy due to type 2 diabetes mellitus (disorder)"
            }
          ],
          "text": "Neuropathy due to type 2 diabetes mellitus"
        },
        "onsetDateTime": "2005-05-27",
        "clinicalStatus": {
          "coding": [
            {
              "code": "active",
              "system": "http://terminology.hl7.org/CodeSystem/condition-clinical"
            }
          ]
        },
        "subject": {
          "reference": "Patient/698ec669-4737-491b-b52e-6a89a0e6de38",
          "display": "Obrad Roršek"
        },
        "asserter": {
          "reference": "Practitioner/025e2290-2268-496a-b46d-6cbba0890120",
          "display": "Dr. Hel Ping"
        }
      }
    },
    {
      "fullUrl": "urn:uuid:e051e6d8-7468-4611-a2f4-3451666fef5e",
      "resource": {
        "resourceType": "Condition",
        "id": "e051e6d8-7468-4611-a2f4-3451666fef5e",
        "meta": {
          "profile": [
            "http://hl7.org/fhir/uv/ips/StructureDefinition/Condition-uv-ips"
          ]
        },
        "category": [
          {
            "coding": [
              {
                "code": "problem-list-item",
                "system": "http://terminology.hl7.org/CodeSystem/condition-category",
                "display": "Problem List Item"
              }
            ]
          }
        ],
        "code": {
          "coding": [
            {
              "code": "44054006",
              "system": "http://snomed.info/sct",
              "display": "Diabetes mellitus type 2 (disorder)"
            }
          ],
          "text": "Type 2 diabetes mellitus"
        },
        "onsetDateTime": "2004-05-21",
        "clinicalStatus": {
          "coding": [
            {
              "code": "active",
              "system": "http://terminology.hl7.org/CodeSystem/condition-clinical"
            }
          ]
        },
        "subject": {
          "reference": "Patient/698ec669-4737-491b-b52e-6a89a0e6de38",
          "display": "Obrad Roršek"
        },
        "asserter": {
          "reference": "Practitioner/025e2290-2268-496a-b46d-6cbba0890120",
          "display": "Dr. Hel Ping"
        }
      }
    },
    {
      "fullUrl": "urn:uuid:1a18c31e-d726-4273-8816-d9e6745cac36",
      "resource": {
        "resourceType": "Condition",
        "id": "1a18c31e-d726-4273-8816-d9e6745cac36",
        "meta": {
          "profile": [
            "http://hl7.org/fhir/uv/ips/StructureDefinition/Condition-uv-ips"
          ]
        },
        "category": [
          {
            "coding": [
              {
                "code": "problem-list-item",
                "system": "http://terminology.hl7.org/CodeSystem/condition-category",
                "display": "Problem List Item"
              }
            ]
          }
        ],
        "code": {
          "coding": [
            {
              "code": "59621000",
              "system": "http://snomed.info/sct",
              "display": "Essential hypertension (disorder)"
            }
          ],
          "text": "Essential hypertension"
        },
        "onsetDateTime": "2001-05-04",
        "clinicalStatus": {
          "coding": [
            {
              "code": "active",
              "system": "http://terminology.hl7.org/CodeSystem/condition-clinical"
            }
          ]
        },
        "subject": {
          "reference": "Patient/698ec669-4737-491b-b52e-6a89a0e6de38",
          "display": "Obrad Roršek"
        },
        "asserter": {
          "reference": "Practitioner/025e2290-2268-496a-b46d-6cbba0890120",
          "display": "Dr. Hel Ping"
        }
      }
    },
    {
      "fullUrl": "urn:uuid:12ed1768-f710-455e-81cd-34caa7e5c696",
      "resource": {
        "resourceType": "Condition",
        "id": "12ed1768-f710-455e-81cd-34caa7e5c696",
        "meta": {
          "profile": [
            "http://hl7.org/fhir/uv/ips/StructureDefinition/Condition-uv-ips"
          ]
        },
        "category": [
          {
            "coding": [
              {
                "code": "problem-list-item",
                "system": "http://terminology.hl7.org/CodeSystem/condition-category",
                "display": "Problem List Item"
              }
            ]
          }
        ],
        "code": {
          "coding": [
            {
              "code": "55822004",
              "system": "http://snomed.info/sct",
              "display": "Hyperlipidemia (disorder)"
            }
          ],
          "text": "Hyperlipidemia"
        },
        "onsetDateTime": "1991-04-19",
        "clinicalStatus": {
          "coding": [
            {
              "code": "active",
              "system": "http://terminology.hl7.org/CodeSystem/condition-clinical"
            }
          ]
        },
        "subject": {
          "reference": "Patient/698ec669-4737-491b-b52e-6a89a0e6de38",
          "display": "Obrad Roršek"
        },
        "asserter": {
          "reference": "Practitioner/025e2290-2268-496a-b46d-6cbba0890120",
          "display": "Dr. Hel Ping"
        }
      }
    },
    {
      "fullUrl": "urn:uuid:5f3f6960-49ae-4ae0-8821-ac6f11d92eb6",
      "resource": {
        "resourceType": "Condition",
        "id": "5f3f6960-49ae-4ae0-8821-ac6f11d92eb6",
        "meta": {
          "profile": [
            "http://hl7.org/fhir/uv/ips/StructureDefinition/Condition-uv-ips"
          ]
        },
        "category": [
          {
            "coding": [
              {
                "code": "problem-list-item",
                "system": "http://terminology.hl7.org/CodeSystem/condition-category",
                "display": "Problem List Item"
              }
            ]
          }
        ],
        "code": {
          "coding": [
            {
              "code": "40055000",
              "system": "http://snomed.info/sct",
              "display": "Chronic sinusitis (disorder)"
            }
          ],
          "text": "Chronic sinusitis"
        },
        "onsetDateTime": "1990-05-12",
        "clinicalStatus": {
          "coding": [
            {
              "code": "active",
              "system": "http://terminology.hl7.org/CodeSystem/condition-clinical"
            }
          ]
        },
        "subject": {
          "reference": "Patient/698ec669-4737-491b-b52e-6a89a0e6de38",
          "display": "Obrad Roršek"
        },
        "asserter": {
          "reference": "Practitioner/025e2290-2268-496a-b46d-6cbba0890120",
          "display": "Dr. Hel Ping"
        }
      }
    },
    {
      "fullUrl": "urn:uuid:f9142b33-bb96-4ae0-96b5-ea8e4fb0ee27",
      "resource": {
        "resourceType": "Condition",
        "id": "f9142b33-bb96-4ae0-96b5-ea8e4fb0ee27",
        "meta": {
          "profile": [
            "http://hl7.org/fhir/uv/ips/StructureDefinition/Condition-uv-ips"
          ]
        },
        "category": [
          {
            "coding": [
              {
                "code": "problem-list-item",
                "system": "http://terminology.hl7.org/CodeSystem/condition-category",
                "display": "Problem List Item"
              }
            ]
          }
        ],
        "code": {
          "coding": [
            {
              "code": "271737000",
              "system": "http://snomed.info/sct",
              "display": "Anemia (disorder)"
            }
          ],
          "text": "Anemia"
        },
        "onsetDateTime": "1976-06-11",
        "clinicalStatus": {
          "coding": [
            {
              "code": "active",
              "system": "http://terminology.hl7.org/CodeSystem/condition-clinical"
            }
          ]
        },
        "subject": {
          "reference": "Patient/698ec669-4737-491b-b52e-6a89a0e6de38",
          "display": "Obrad Roršek"
        },
        "asserter": {
          "reference": "Practitioner/025e2290-2268-496a-b46d-6cbba0890120",
          "display": "Dr. Hel Ping"
        }
      }
    },
    {
      "fullUrl": "urn:uuid:ed28cf6c-5e49-4bdb-ad32-1595fa0727e6",
      "resource": {
        "resourceType": "Condition",
        "id": "ed28cf6c-5e49-4bdb-ad32-1595fa0727e6",
        "meta": {
          "profile": [
            "http://hl7.org/fhir/uv/ips/StructureDefinition/Condition-uv-ips"
          ]
        },
        "category": [
          {
            "coding": [
              {
                "code": "problem-list-item",
                "system": "http://terminology.hl7.org/CodeSystem/condition-category",
                "display": "Problem List Item"
              }
            ]
          }
        ],
        "code": {
          "coding": [
            {
              "code": "109570002",
              "system": "http://snomed.info/sct",
              "display": "Primary dental caries (disorder)"
            }
          ],
          "text": "Primary dental caries"
        },
        "onsetDateTime": "2024-09-27",
        "clinicalStatus": {
          "coding": [
            {
              "code": "inactive",
              "system": "http://terminology.hl7.org/CodeSystem/condition-clinical"
            }
          ]
        },
        "subject": {
          "reference": "Patient/698ec669-4737-491b-b52e-6a89a0e6de38",
          "display": "Obrad Roršek"
        },
        "asserter": {
          "reference": "Practitioner/025e2290-2268-496a-b46d-6cbba0890120",
          "display": "Dr. Hel Ping"
        }
      }
    },
    {
      "fullUrl": "urn:uuid:55abec2f-4d9d-497f-8354-b186bb3db06f",
      "resource": {
        "resourceType": "Condition",
        "id": "55abec2f-4d9d-497f-8354-b186bb3db06f",
        "meta": {
          "profile": [
            "http://hl7.org/fhir/uv/ips/StructureDefinition/Condition-uv-ips"
          ]
        },
        "category": [
          {
            "coding": [
              {
                "code": "problem-list-item",
                "system": "http://terminology.hl7.org/CodeSystem/condition-category",
                "display": "Problem List Item"
              }
            ]
          }
        ],
        "code": {
          "coding": [
            {
              "code": "66383009",
              "system": "http://snomed.info/sct",
              "display": "Gingivitis (disorder)"
            }
          ],
          "text": "Gingivitis"
        },
        "onsetDateTime": "2022-09-02",
        "clinicalStatus": {
          "coding": [
            {
              "code": "inactive",
              "system": "http://terminology.hl7.org/CodeSystem/condition-clinical"
            }
          ]
        },
        "subject": {
          "reference": "Patient/698ec669-4737-491b-b52e-6a89a0e6de38",
          "display": "Obrad Roršek"
        },
        "asserter": {
          "reference": "Practitioner/025e2290-2268-496a-b46d-6cbba0890120",
          "display": "Dr. Hel Ping"
        }
      }
    },
    {
      "fullUrl": "urn:uuid:1c384e5e-3293-4923-aa83-e8f7a3125daf",
      "resource": {
        "resourceType": "Condition",
        "id": "1c384e5e-3293-4923-aa83-e8f7a3125daf",
        "meta": {
          "profile": [
            "http://hl7.org/fhir/uv/ips/StructureDefinition/Condition-uv-ips"
          ]
        },
        "category": [
          {
            "coding": [
              {
                "code": "problem-list-item",
                "system": "http://terminology.hl7.org/CodeSystem/condition-category",
                "display": "Problem List Item"
              }
            ]
          }
        ],
        "code": {
          "coding": [
            {
              "code": "840539006",
              "system": "http://snomed.info/sct",
              "display": "Disease caused by severe acute respiratory syndrome coronavirus 2 (disorder)"
            }
          ],
          "text": "COVID-19"
        },
        "onsetDateTime": "2020-08-31",
        "clinicalStatus": {
          "coding": [
            {
              "code": "inactive",
              "system": "http://terminology.hl7.org/CodeSystem/condition-clinical"
            }
          ]
        },
        "subject": {
          "reference": "Patient/698ec669-4737-491b-b52e-6a89a0e6de38",
          "display": "Obrad Roršek"
        },
        "asserter": {
          "reference": "Practitioner/025e2290-2268-496a-b46d-6cbba0890120",
          "display": "Dr. Hel Ping"
        }
      }
    },
    {
      "fullUrl": "urn:uuid:34742e6a-e0cc-45a1-8ed1-29f7f7807b9a",
      "resource": {
        "resourceType": "Condition",
        "id": "34742e6a-e0cc-45a1-8ed1-29f7f7807b9a",
        "meta": {
          "profile": [
            "http://hl7.org/fhir/uv/ips/StructureDefinition/Condition-uv-ips"
          ]
        },
        "category": [
          {
            "coding": [
              {
                "code": "problem-list-item",
                "system": "http://terminology.hl7.org/CodeSystem/condition-category",
                "display": "Problem List Item"
              }
            ]
          }
        ],
        "code": {
          "coding": [
            {
              "code": "66383009",
              "system": "http://snomed.info/sct",
              "display": "Gingivitis (disorder)"
            }
          ],
          "text": "Gingivitis"
        },
        "onsetDateTime": "2020-08-21",
        "clinicalStatus": {
          "coding": [
            {
              "code": "inactive",
              "system": "http://terminology.hl7.org/CodeSystem/condition-clinical"
            }
          ]
        },
        "subject": {
          "reference": "Patient/698ec669-4737-491b-b52e-6a89a0e6de38",
          "display": "Obrad Roršek"
        },
        "asserter": {
          "reference": "Practitioner/025e2290-2268-496a-b46d-6cbba0890120",
          "display": "Dr. Hel Ping"
        }
      }
    },
    {
      "fullUrl": "urn:uuid:4fd5d8e3-bda6-4b67-b1bc-93c5d0736874",
      "resource": {
        "resourceType": "Condition",
        "id": "4fd5d8e3-bda6-4b67-b1bc-93c5d0736874",
        "meta": {
          "profile": [
            "http://hl7.org/fhir/uv/ips/StructureDefinition/Condition-uv-ips"
          ]
        },
        "category": [
          {
            "coding": [
              {
                "code": "problem-list-item",
                "system": "http://terminology.hl7.org/CodeSystem/condition-category",
                "display": "Problem List Item"
              }
            ]
          }
        ],
        "code": {
          "coding": [
            {
              "code": "444814009",
              "system": "http://snomed.info/sct",
              "display": "Viral sinusitis (disorder)"
            }
          ],
          "text": "Viral sinusitis"
        },
        "onsetDateTime": "2015-07-07",
        "clinicalStatus": {
          "coding": [
            {
              "code": "inactive",
              "system": "http://terminology.hl7.org/CodeSystem/condition-clinical"
            }
          ]
        },
        "subject": {
          "reference": "Patient/698ec669-4737-491b-b52e-6a89a0e6de38",
          "display": "Obrad Roršek"
        },
        "asserter": {
          "reference": "Practitioner/025e2290-2268-496a-b46d-6cbba0890120",
          "display": "Dr. Hel Ping"
        }
      }
    },
    {
      "fullUrl": "urn:uuid:e71c7398-47d9-4652-b2b0-92fcb01b1c63",
      "resource": {
        "resourceType": "Medication",
        "id": "e71c7398-47d9-4652-b2b0-92fcb01b1c63",
        "meta": {
          "profile": [
            "http://hl7.org/fhir/uv/ips/StructureDefinition/Medication-uv-ips"
          ]
        },
        "code": {
          "coding": [
            {
              "code": "314231",
              "system": "http://www.nlm.nih.gov/research/umls/rxnorm",
              "display": "simvastatin 10 MG Oral Tablet"
            },
            {
              "code": "319996000",
              "system": "http://snomed.info/sct",
              "display": "Product containing precisely simvastatin 10 milligram/1 each conventional release oral tablet (clinical drug)"
            }
          ],
          "text": "Simvastatin 10 mg oral tablet"
        },
        "form": {
          "coding": [
            {
              "code": "421026006",
              "system": "http://snomed.info/sct",
              "display": "Oral tablet"
            }
          ]
        },
        "ingredient": [
          {
            "itemCodeableConcept": {
              "coding": [
                {
                  "code": "387584000",
                  "system": "http://snomed.info/sct",
                  "display": "Simvastatin"
                }
              ]
            },
            "isActive": true
          }
        ]
      }
    },
    {
      "fullUrl": "urn:uuid:aed58bc1-0573-42c7-af2a-4107d81c2e5e",
      "resource": {
        "resourceType": "MedicationStatement",
        "id": "aed58bc1-0573-42c7-af2a-4107d81c2e5e",
        "effectivePeriod": {
          "start": "2024-09-14"
        },
        "dosage": [
          {
            "doseAndRate": [
              {
                "doseQuantity": {
                  "value": 1,
                  "unit": "{tbl}",
                  "code": "{tbl}"
                }
              }
            ],
            "timing": {
              "repeat": {
                "frequency": 1,
                "period": 1,
                "periodUnit": "d"
              }
            },
            "text": "1 tablet (10 mg) by mouth once daily",
            "asNeededBoolean": false
          }
        ],
        "reasonCode": [
          {
            "coding": [
              {
                "code": "55822004",
                "system": "http://snomed.info/sct",
                "display": "Hyperlipidemia (disorder)"
              }
            ]
          }
        ],
        "status": "active",
        "medicationReference": {
          "reference": "Medication/e71c7398-47d9-4652-b2b0-92fcb01b1c63",
          "display": "Simvastatin 10 mg oral tablet"
        },
        "subject": {
          "reference": "Patient/698ec669-4737-491b-b52e-6a89a0e6de38",
          "display": "Obrad Roršek"
        }
      }
    },
    {
      "fullUrl": "urn:uuid:b239ab7e-8fda-449e-831f-fb0974b54fdf",
      "resource": {
        "resourceType": "Medication",
        "id": "b239ab7e-8fda-449e-831f-fb0974b54fdf",
        "meta": {
          "profile": [
            "http://hl7.org/fhir/uv/ips/StructureDefinition/Medication-uv-ips"
          ]
        },
        "code": {
          "coding": [
            {
              "code": "308136",
              "system": "http://www.nlm.nih.gov/research/umls/rxnorm",
              "display": "amlodipine 2.5 MG Oral Tablet"
            },
            {
              "code": "1153431000",
              "system": "http://snomed.info/sct",
              "display": "Product containing precisely amlodipine (as amlodipine besilate) 2.5 milligram/1 each conventional release oral tablet (clinical drug)"
            }
          ],
          "text": "Amlodipine (as amlodipine besylate) 2.5 mg oral tablet"
        },
        "form": {
          "coding": [
            {
              "code": "421026006",
              "system": "http://snomed.info/sct",
              "display": "Oral tablet"
            }
          ]
        },
        "ingredient": [
          {
            "itemCodeableConcept": {
              "coding": [
                {
                  "code": "384976003",
                  "system": "http://snomed.info/sct",
                  "display": "Amlodipine besylate"
                }
              ]
            },
            "isActive": true
          }
        ]
      }
    },
    {
      "fullUrl": "urn:uuid:de57902c-797e-416b-844c-5e5f8c8a04ce",
      "resource": {
        "resourceType": "MedicationStatement",
        "id": "de57902c-797e-416b-844c-5e5f8c8a04ce",
        "effectivePeriod": {
          "start": "2024-09-13"
        },
        "dosage": [
          {
            "doseAndRate": [
              {
                "doseQuantity": {
                  "value": 1,
                  "unit": "{tbl}",
                  "code": "{tbl}"
                }
              }
            ],
            "timing": {
              "repeat": {
                "frequency": 1,
                "period": 1,
                "periodUnit": "d"
              }
            },
            "text": "1 tablet (2.5 mg) by mouth once daily",
            "asNeededBoolean": false
          }
        ],
        "reasonCode": [
          {
            "coding": [
              {
                "code": "59621000",
                "system": "http://snomed.info/sct",
                "display": "Essential hypertension (disorder)"
              }
            ]
          }
        ],
        "status": "active",
        "medicationReference": {
          "reference": "Medication/b239ab7e-8fda-449e-831f-fb0974b54fdf",
          "display": "Amlodipine (as amlodipine besylate) 2.5 mg oral tablet"
        },
        "subject": {
          "reference": "Patient/698ec669-4737-491b-b52e-6a89a0e6de38",
          "display": "Obrad Roršek"
        }
      }
    },
    {
      "fullUrl": "urn:uuid:eec924de-0c48-4295-a890-0646b247e568",
      "resource": {
        "resourceType": "Medication",
        "id": "eec924de-0c48-4295-a890-0646b247e568",
        "meta": {
          "profile": [
            "http://hl7.org/fhir/uv/ips/StructureDefinition/Medication-uv-ips"
          ]
        },
        "code": {
          "coding": [
            {
              "code": "310798",
              "system": "http://www.nlm.nih.gov/research/umls/rxnorm",
              "display": "hydrochlorothiazide 25 MG Oral Tablet"
            },
            {
              "code": "376209006",
              "system": "http://snomed.info/sct",
              "display": "Product containing precisely hydrochlorothiazide 25 milligram/1 each conventional release oral tablet (clinical drug)"
            }
          ],
          "text": "Hydrochlorothiazide 25 mg oral tablet"
        },
        "form": {
          "coding": [
            {
              "code": "421026006",
              "system": "http://snomed.info/sct",
              "display": "Oral tablet"
            }
          ]
        },
        "ingredient": [
          {
            "itemCodeableConcept": {
              "coding": [
                {
                  "code": "387525002",
                  "system": "http://snomed.info/sct",
                  "display": "Hydrochlorothiazide"
                }
              ]
            },
            "isActive": true
          }
        ]
      }
    },
    {
      "fullUrl": "urn:uuid:ec04ddb2-a587-4b7f-8a05-38dd4880555d",
      "resource": {
        "resourceType": "MedicationStatement",
        "id": "ec04ddb2-a587-4b7f-8a05-38dd4880555d",
        "effectivePeriod": {
          "start": "2024-09-13"
        },
        "dosage": [
          {
            "doseAndRate": [
              {
                "doseQuantity": {
                  "value": 1,
                  "unit": "{tbl}",
                  "code": "{tbl}"
                }
              }
            ],
            "timing": {
              "repeat": {
                "frequency": 1,
                "period": 1,
                "periodUnit": "d"
              }
            },
            "text": "1 tablet (25 mg) by mouth once daily",
            "asNeededBoolean": false
          }
        ],
        "reasonCode": [
          {
            "coding": [
              {
                "code": "59621000",
                "system": "http://snomed.info/sct",
                "display": "Essential hypertension (disorder)"
              }
            ]
          }
        ],
        "status": "active",
        "medicationReference": {
          "reference": "Medication/eec924de-0c48-4295-a890-0646b247e568",
          "display": "Hydrochlorothiazide 25 mg oral tablet"
        },
        "subject": {
          "reference": "Patient/698ec669-4737-491b-b52e-6a89a0e6de38",
          "display": "Obrad Roršek"
        }
      }
    },
    {
      "fullUrl": "urn:uuid:cb331f07-171d-45b4-908c-f0cf91921d76",
      "resource": {
        "resourceType": "Medication",
        "id": "cb331f07-171d-45b4-908c-f0cf91921d76",
        "meta": {
          "profile": [
            "http://hl7.org/fhir/uv/ips/StructureDefinition/Medication-uv-ips"
          ]
        },
        "code": {
          "coding": [
            {
              "code": "200031",
              "system": "http://www.nlm.nih.gov/research/umls/rxnorm",
              "display": "carvedilol 6.25 MG Oral Tablet"
            },
            {
              "code": "318635007",
              "system": "http://snomed.info/sct",
              "display": "Product containing precisely carvedilol 6.25 milligram/1 each conventional release oral tablet (clinical drug)"
            }
          ],
          "text": "Carvedilol 6.25 mg oral tablet"
        },
        "form": {
          "coding": [
            {
              "code": "421026006",
              "system": "http://snomed.info/sct",
              "display": "Oral tablet"
            }
          ]
        },
        "ingredient": [
          {
            "itemCodeableConcept": {
              "coding": [
                {
                  "code": "386870007",
                  "system": "http://snomed.info/sct",
                  "display": "Carvedilol"
                }
              ]
            },
            "isActive": true
          }
        ]
      }
    },
    {
      "fullUrl": "urn:uuid:91f4feb3-4ada-4ea3-afda-7a1289e89df7",
      "resource": {
        "resourceType": "MedicationStatement",
        "id": "91f4feb3-4ada-4ea3-afda-7a1289e89df7",
        "effectivePeriod": {
          "start": "2015-02-21"
        },
        "dosage": [
          {
            "doseAndRate": [
              {
                "doseQuantity": {
                  "value": 1,
                  "unit": "{tbl}",
                  "code": "{tbl}"
                }
              }
            ],
            "timing": {
              "repeat": {
                "frequency": 2,
                "period": 1,
                "periodUnit": "d"
              }
            },
            "text": "1 tablet (6.25 mg) by mouth twice daily",
            "asNeededBoolean": false
          }
        ],
        "status": "active",
        "medicationReference": {
          "reference": "Medication/cb331f07-171d-45b4-908c-f0cf91921d76",
          "display": "Carvedilol 6.25 mg oral tablet"
        },
        "subject": {
          "reference": "Patient/698ec669-4737-491b-b52e-6a89a0e6de38",
          "display": "Obrad Roršek"
        }
      }
    },
    {
      "fullUrl": "urn:uuid:5c4aa826-4a2e-4c36-9a05-bdeca8cc41ce",
      "resource": {
        "resourceType": "Medication",
        "id": "5c4aa826-4a2e-4c36-9a05-bdeca8cc41ce",
        "meta": {
          "profile": [
            "http://hl7.org/fhir/uv/ips/StructureDefinition/Medication-uv-ips"
          ]
        },
        "code": {
          "coding": [
            {
              "code": "243670",
              "system": "http://www.nlm.nih.gov/research/umls/rxnorm",
              "display": "aspirin 81 MG Oral Tablet"
            }
          ],
          "text": "aspirin 81 MG Oral Tablet"
        }
      }
    },
    {
      "fullUrl": "urn:uuid:a54fa6f9-540c-406c-b21b-10542b223ccd",
      "resource": {
        "resourceType": "MedicationStatement",
        "id": "a54fa6f9-540c-406c-b21b-10542b223ccd",
        "effectivePeriod": {
          "start": "2015-02-21"
        },
        "dosage": [
          {
            "doseAndRate": [
              {
                "doseQuantity": {
                  "value": 1,
                  "unit": "{tbl}",
                  "code": "{tbl}"
                }
              }
            ],
            "timing": {
              "repeat": {
                "frequency": 1,
                "period": 1,
                "periodUnit": "d"
              }
            },
            "text": "1 tablet (81 mg) by mouth once daily",
            "asNeededBoolean": false
          }
        ],
        "status": "active",
        "medicationReference": {
          "reference": "Medication/5c4aa826-4a2e-4c36-9a05-bdeca8cc41ce",
          "display": "aspirin 81 MG Oral Tablet"
        },
        "subject": {
          "reference": "Patient/698ec669-4737-491b-b52e-6a89a0e6de38",
          "display": "Obrad Roršek"
        }
      }
    },
    {
      "fullUrl": "urn:uuid:1fbc61d6-63cc-48df-8cd6-322e020fc0b0",
      "resource": {
        "resourceType": "Medication",
        "id": "1fbc61d6-63cc-48df-8cd6-322e020fc0b0",
        "meta": {
          "profile": [
            "http://hl7.org/fhir/uv/ips/StructureDefinition/Medication-uv-ips"
          ]
        },
        "code": {
          "coding": [
            {
              "code": "617311",
              "system": "http://www.nlm.nih.gov/research/umls/rxnorm",
              "display": "atorvastatin 40 MG Oral Tablet"
            },
            {
              "code": "1145421000",
              "system": "http://snomed.info/sct",
              "display": "Product containing precisely atorvastatin (as atorvastatin calcium) 40 milligram/1 each conventional release oral tablet (clinical drug)"
            }
          ],
          "text": "Atorvastatin (as atorvastatin calcium) 40 mg oral tablet"
        },
        "form": {
          "coding": [
            {
              "code": "421026006",
              "system": "http://snomed.info/sct",
              "display": "Oral tablet"
            }
          ]
        },
        "ingredient": [
          {
            "itemCodeableConcept": {
              "coding": [
                {
                  "code": "108601004",
                  "system": "http://snomed.info/sct",
                  "display": "Atorvastatin calcium"
                }
              ]
            },
            "isActive": true
          }
        ]
      }
    },
    {
      "fullUrl": "urn:uuid:593d731a-5fde-4744-bdc4-cabf76c5736b",
      "resource": {
        "resourceType": "MedicationStatement",
        "id": "593d731a-5fde-4744-bdc4-cabf76c5736b",
        "effectivePeriod": {
          "start": "2015-02-21"
        },
        "dosage": [
          {
            "doseAndRate": [
              {
                "doseQuantity": {
                  "value": 1,
                  "unit": "{tbl}",
                  "code": "{tbl}"
                }
              }
            ],
            "timing": {
              "repeat": {
                "frequency": 1,
                "period": 1,
                "periodUnit": "d"
              }
            },
            "text": "1 tablet (40 mg) by mouth once daily",
            "asNeededBoolean": false
          }
        ],
        "status": "active",
        "medicationReference": {
          "reference": "Medication/1fbc61d6-63cc-48df-8cd6-322e020fc0b0",
          "display": "Atorvastatin (as atorvastatin calcium) 40 mg oral tablet"
        },
        "subject": {
          "reference": "Patient/698ec669-4737-491b-b52e-6a89a0e6de38",
          "display": "Obrad Roršek"
        }
      }
    },
    {
      "fullUrl": "urn:uuid:ce7069b8-7679-4538-9db3-84bef30d1b0a",
      "resource": {
        "resourceType": "Medication",
        "id": "ce7069b8-7679-4538-9db3-84bef30d1b0a",
        "meta": {
          "profile": [
            "http://hl7.org/fhir/uv/ips/StructureDefinition/Medication-uv-ips"
          ]
        },
        "code": {
          "coding": [
            {
              "code": "858817",
              "system": "http://www.nlm.nih.gov/research/umls/rxnorm",
              "display": "enalapril maleate 10 MG Oral Tablet"
            },
            {
              "code": "318853004",
              "system": "http://snomed.info/sct",
              "display": "Product containing precisely enalapril maleate 10 milligram/1 each conventional release oral tablet (clinical drug)"
            }
          ],
          "text": "Enalapril maleate 10 mg oral tablet"
        },
        "form": {
          "coding": [
            {
              "code": "421026006",
              "system": "http://snomed.info/sct",
              "display": "Oral tablet"
            }
          ]
        },
        "ingredient": [
          {
            "itemCodeableConcept": {
              "coding": [
                {
                  "code": "387165009",
                  "system": "http://snomed.info/sct",
                  "display": "Enalapril maleate"
                }
              ]
            },
            "isActive": true
          }
        ]
      }
    },
    {
      "fullUrl": "urn:uuid:77fa8e43-da09-423a-a054-fd377b611a31",
      "resource": {
        "resourceType": "MedicationStatement",
        "id": "77fa8e43-da09-423a-a054-fd377b611a31",
        "effectivePeriod": {
          "start": "2015-02-21"
        },
        "dosage": [
          {
            "doseAndRate": [
              {
                "doseQuantity": {
                  "value": 1,
                  "unit": "{tbl}",
                  "code": "{tbl}"
                }
              }
            ],
            "timing": {
              "repeat": {
                "frequency": 1,
                "period": 1,
                "periodUnit": "d"
              }
            },
            "text": "1 tablet (10 mg) by mouth once daily",
            "asNeededBoolean": false
          }
        ],
        "status": "active",
        "medicationReference": {
          "reference": "Medication/ce7069b8-7679-4538-9db3-84bef30d1b0a",
          "display": "Enalapril maleate 10 mg oral tablet"
        },
        "subject": {
          "reference": "Patient/698ec669-4737-491b-b52e-6a89a0e6de38",
          "display": "Obrad Roršek"
        }
      }
    },
    {
      "fullUrl": "urn:uuid:a54f048e-c798-475d-99da-6432f1711c3c",
      "resource": {
        "resourceType": "Medication",
        "id": "a54f048e-c798-475d-99da-6432f1711c3c",
        "meta": {
          "profile": [
            "http://hl7.org/fhir/uv/ips/StructureDefinition/Medication-uv-ips"
          ]
        },
        "code": {
          "coding": [
            {
              "code": "2001499",
              "system": "http://www.nlm.nih.gov/research/umls/rxnorm",
              "display": "Vitamin B12 5 MG/ML Injectable Solution"
            }
          ],
          "text": "Vitamin B12 5 MG/ML Injectable Solution"
        }
      }
    },
    {
      "fullUrl": "urn:uuid:eefa4e85-9044-46a4-9693-f517a6565b2d",
      "resource": {
        "resourceType": "MedicationStatement",
        "id": "eefa4e85-9044-46a4-9693-f517a6565b2d",
        "effectivePeriod": {
          "start": "1976-06-18"
        },
        "dosage": [
          {
            "doseAndRate": [
              {
                "doseQuantity": {
                  "value": 1,
                  "unit": "mL",
                  "code": "mL"
                }
              }
            ],
            "timing": {
              "repeat": {
                "frequency": 1,
                "period": 1,
                "periodUnit": "wk"
              }
            },
            "text": "5 mg (1 mL) intramuscularly once weekly",
            "asNeededBoolean": false
          }
        ],
        "status": "active",
        "medicationReference": {
          "reference": "Medication/a54f048e-c798-475d-99da-6432f1711c3c",
          "display": "Vitamin B12 5 MG/ML Injectable Solution"
        },
        "subject": {
          "reference": "Patient/698ec669-4737-491b-b52e-6a89a0e6de38",
          "display": "Obrad Roršek"
        }
      }
    },
    {
      "fullUrl": "urn:uuid:df86982b-b923-45b6-9601-e2d138a60347",
      "resource": {
        "resourceType": "Medication",
        "id": "df86982b-b923-45b6-9601-e2d138a60347",
        "meta": {
          "profile": [
            "http://hl7.org/fhir/uv/ips/StructureDefinition/Medication-uv-ips"
          ]
        },
        "code": {
          "coding": [
            {
              "code": "106258",
              "system": "http://www.nlm.nih.gov/research/umls/rxnorm",
              "display": "hydrocortisone 10 MG/ML Topical Cream"
            },
            {
              "code": "331722005",
              "system": "http://snomed.info/sct",
              "display": "Product containing precisely hydrocortisone 10 milligram/1 gram and urea 100 milligram/1 gram conventional release cutaneous cream (clinical drug)"
            }
          ],
          "text": "Hydrocortisone 10 mg/g and urea 100 mg/g cutaneous cream"
        },
        "form": {
          "coding": [
            {
              "code": "421628006",
              "system": "http://snomed.info/sct",
              "display": "Cutaneous cream"
            }
          ]
        },
        "ingredient": [
          {
            "itemCodeableConcept": {
              "coding": [
                {
                  "code": "387092000",
                  "system": "http://snomed.info/sct",
                  "display": "Urea"
                }
              ]
            },
            "isActive": true
          }
        ]
      }
    },
    {
      "fullUrl": "urn:uuid:3bce1076-810d-4920-93c9-ea133b753868",
      "resource": {
        "resourceType": "MedicationStatement",
        "id": "3bce1076-810d-4920-93c9-ea133b753868",
        "effectivePeriod": {
          "start": "1965-06-20"
        },
        "dosage": [
          {
            "doseAndRate": [
              {
                "doseQuantity": {
                  "value": 1,
                  "unit": "application",
                  "code": "{application}"
                }
              }
            ],
            "timing": {
              "repeat": {
                "frequency": 2,
                "period": 1,
                "periodUnit": "d"
              }
            },
            "text": "Apply a thin layer (containing 10 mg/g hydrocortisone and 100 mg/g urea) to the affected area twice daily",
            "asNeededBoolean": false
          }
        ],
        "reasonCode": [
          {
            "coding": [
              {
                "code": "40275004",
                "system": "http://snomed.info/sct",
                "display": "Contact dermatitis (disorder)"
              }
            ]
          }
        ],
        "status": "active",
        "medicationReference": {
          "reference": "Medication/df86982b-b923-45b6-9601-e2d138a60347",
          "display": "Hydrocortisone 10 mg/g and urea 100 mg/g cutaneous cream"
        },
        "subject": {
          "reference": "Patient/698ec669-4737-491b-b52e-6a89a0e6de38",
          "display": "Obrad Roršek"
        }
      }
    },
    {
      "fullUrl": "urn:uuid:d0da9b01-040d-409d-b415-60600742df8c",
      "resource": {
        "resourceType": "AllergyIntolerance",
        "id": "d0da9b01-040d-409d-b415-60600742df8c",
        "meta": {
          "profile": [
            "http://hl7.eu/fhir/eps/StructureDefinition/allergyIntolerance-eu-eps"
          ]
        },
        "code": {
          "coding": [
            {
              "code": "609328004",
              "system": "http://snomed.info/sct",
              "display": "Allergic disposition (finding)"
            }
          ],
          "text": "Allergic disposition"
        },
        "category": [
          "environment"
        ],
        "verificationStatus": {
          "coding": [
            {
              "code": "confirmed"
            }
          ]
        },
        "type": "allergy",
        "onsetDateTime": "1965-07-03",
        "clinicalStatus": {
          "coding": [
            {
              "code": "active"
            }
          ]
        },
        "patient": {
          "reference": "Patient/698ec669-4737-491b-b52e-6a89a0e6de38",
          "display": "Obrad Roršek"
        }
      }
    },
    {
      "fullUrl": "urn:uuid:87c41078-9393-46ea-85ee-e2062043bfec",
      "resource": {
        "resourceType": "Procedure",
        "id": "87c41078-9393-46ea-85ee-e2062043bfec",
        "meta": {
          "profile": [
            "http://hl7.org/fhir/uv/ips/StructureDefinition/Procedure-uv-ips"
          ]
        },
        "code": {
          "coding": [
            {
              "code": "417511005",
              "system": "http://snomed.info/sct",
              "display": "Referral to home health care service (procedure)"
            }
          ],
          "text": "Referral to home health care service"
        },
        "status": "completed",
        "subject": {
          "reference": "Patient/698ec669-4737-491b-b52e-6a89a0e6de38",
          "display": "Obrad Roršek"
        },
        "performedDateTime": "2018-04-06"
      }
    },
    {
      "fullUrl": "urn:uuid:38421c66-8dfa-41ef-90a3-fe5a0094bf3a",
      "resource": {
        "resourceType": "Immunization",
        "id": "38421c66-8dfa-41ef-90a3-fe5a0094bf3a",
        "meta": {
          "profile": [
            "http://hl7.org/fhir/uv/ips/StructureDefinition/Immunization-uv-ips"
          ]
        },
        "vaccineCode": {
          "coding": [
            {
              "code": "1181000221105",
              "system": "http://snomed.info/sct",
              "display": "Vaccine product containing Influenza virus antigen"
            },
            {
              "code": "J07BB02",
              "system": "http://www.whocc.no/atc",
              "display": "Influenza, inactivated, split virus"
            },
            {
              "code": "140",
              "system": "http://hl7.org/fhir/sid/cvx",
              "display": "Influenza  seasonal  injectable  preservative free"
            }
          ],
          "text": "Influenza virus antigen only vaccine product"
        },
        "site": {
          "coding": [
            {
              "code": "73776007",
              "system": "http://snomed.info/sct",
              "display": "Structure of muscle of upper arm"
            }
          ],
          "text": "Structure of muscle of upper arm"
        },
        "route": {
          "coding": [
            {
              "code": "78421000",
              "system": "http://snomed.info/sct",
              "display": "Intramuscular route"
            }
          ],
          "text": "Intramuscular route"
        },
        "status": "completed",
        "patient": {
          "reference": "Patient/698ec669-4737-491b-b52e-6a89a0e6de38",
          "display": "Obrad Roršek"
        },
        "occurrenceDateTime": "2024-09-13",
        "lotNumber": "AK-JadmW0g",
        "expirationDate": "2025-09-11"
      }
    },
    {
      "fullUrl": "urn:uuid:12280ae7-60c4-4a25-9c81-858fd2ac3cb9",
      "resource": {
        "resourceType": "Immunization",
        "id": "12280ae7-60c4-4a25-9c81-858fd2ac3cb9",
        "meta": {
          "profile": [
            "http://hl7.org/fhir/uv/ips/StructureDefinition/Immunization-uv-ips"
          ]
        },
        "vaccineCode": {
          "coding": [
            {
              "code": "1119349007",
              "system": "http://snomed.info/sct",
              "display": "Vaccine product containing SARS-CoV-2 mRNA"
            },
            {
              "code": "J07BX03",
              "system": "http://www.whocc.no/atc",
              "display": "COVID-19 mRNA vaccines"
            },
            {
              "code": "208",
              "system": "http://hl7.org/fhir/sid/cvx",
              "display": "COVID-19  mRNA  LNP-S  PF  30 mcg/0.3 mL dose"
            }
          ],
          "text": "SARS-CoV-2 mRNA vaccine"
        },
        "site": {
          "coding": [
            {
              "code": "73776007",
              "system": "http://snomed.info/sct",
              "display": "Structure of muscle of upper arm"
            }
          ],
          "text": "Structure of muscle of upper arm"
        },
        "route": {
          "coding": [
            {
              "code": "78421000",
              "system": "http://snomed.info/sct",
              "display": "Intramuscular route"
            }
          ],
          "text": "Intramuscular route"
        },
        "status": "completed",
        "patient": {
          "reference": "Patient/698ec669-4737-491b-b52e-6a89a0e6de38",
          "display": "Obrad Roršek"
        },
        "occurrenceDateTime": "2021-04-23",
        "lotNumber": "MY-ZxMK",
        "expirationDate": "2022-03-13"
      }
    },
    {
      "fullUrl": "urn:uuid:b8d5cc63-5a77-42eb-b109-3ae7778ac811",
      "resource": {
        "resourceType": "Immunization",
        "id": "b8d5cc63-5a77-42eb-b109-3ae7778ac811",
        "meta": {
          "profile": [
            "http://hl7.org/fhir/uv/ips/StructureDefinition/Immunization-uv-ips"
          ]
        },
        "vaccineCode": {
          "coding": [
            {
              "code": "777725002",
              "system": "http://snomed.info/sct",
              "display": "Vaccine product containing only Clostridium tetani toxoid antigen adsorbed"
            },
            {
              "code": "J07AM51",
              "system": "http://www.whocc.no/atc",
              "display": "Diphtheria-tetanus vaccines, adult type"
            },
            {
              "code": "113",
              "system": "http://hl7.org/fhir/sid/cvx",
              "display": "Td (adult)  5 Lf tetanus toxoid  preservative free  adsorbed"
            }
          ],
          "text": "Clostridium tetani toxoid antigen adsorbed only vaccine product"
        },
        "site": {
          "coding": [
            {
              "code": "73776007",
              "system": "http://snomed.info/sct",
              "display": "Structure of muscle of upper arm"
            }
          ],
          "text": "Structure of muscle of upper arm"
        },
        "route": {
          "coding": [
            {
              "code": "78421000",
              "system": "http://snomed.info/sct",
              "display": "Intramuscular route"
            }
          ],
          "text": "Intramuscular route"
        },
        "status": "completed",
        "patient": {
          "reference": "Patient/698ec669-4737-491b-b52e-6a89a0e6de38",
          "display": "Obrad Roršek"
        },
        "occurrenceDateTime": "2016-07-29",
        "lotNumber": "XX-bdxM4X",
        "expirationDate": "2017-01-18"
      }
    }
  ],
  "type": "document",
  "timestamp": "2025-06-16T17:28:57Z"
}
