{
  "resourceType": "Bundle",
  "id": "Instance-Bundle-70e0355b-3aad-4131-897a-092405322a94",
  "meta": {
    "profile": [
      "http://hl7.eu/fhir/eps/StructureDefinition/bundle-eu-eps"
    ]
  },
  "identifier": {
    "assigner": {
      "display": "HL7 Europe"
    },
    "system": "urn:oid:2.16.840.1.113883.2.51.999",
    "value": "f72dae7c-a447-4322-b974-97799f8d7c0a"
  },
  "entry": [
    {
      "fullUrl": "urn:uuid:dfeb8a0b-f66d-4a37-a01b-704e647761aa",
      "resource": {
        "resourceType": "Composition",
        "id": "dfeb8a0b-f66d-4a37-a01b-704e647761aa",
        "meta": {
          "profile": [
            "http://hl7.eu/fhir/eps/StructureDefinition/composition-eu-eps"
          ]
        },
        "identifier": {
          "assigner": {
            "display": "HL7 Europe"
          },
          "system": "urn:oid:2.16.840.1.113883.2.51.999",
          "value": "37d24afb-cf3f-45f1-820b-fcd5d044a776"
        },
        "type": {
          "coding": [
            {
              "system": "http://loinc.org",
              "code": "60591-5",
              "display": "European Patient Summary"
            }
          ],
          "text": "European Patient Summary"
        },
        "author": [
          {
            "reference": "urn:uuid:6e83b295-7e70-4976-b408-f2ab1616a6eb"
          }
        ],
        "section": [
          {
            "text": {
              "status": "generated",
              "div": "<div xmlns=\"http://www.w3.org/1999/xhtml\"><table class=\"hl7__ips\"><tr><td>Laceration of thigh</td><td>2025-04-07</td><td>active</td></tr><tr><td>Laceration - injury</td><td>2025-04-07</td><td>active</td></tr><tr><td>Chronic sinusitis</td><td>2018-08-22</td><td>active</td></tr><tr><td>Anemia</td><td>2009-09-24</td><td>active</td></tr><tr><td>Miscarriage in first trimester</td><td>2021-03-18</td><td>inactive</td></tr><tr><td>Complete miscarriage</td><td>2021-03-18</td><td>inactive</td></tr><tr><td>Sinusitis</td><td>2018-05-19</td><td>inactive</td></tr></table></div>"
            },
            "entry": [
              {
                "reference": "urn:uuid:299ccc9f-d3ff-4a13-b052-279faf41181b"
              },
              {
                "reference": "urn:uuid:e2fd6ef1-1d6e-413d-8a58-6fd16b6c0216"
              },
              {
                "reference": "urn:uuid:5641af20-64b4-4257-8a02-f25fda480c97"
              },
              {
                "reference": "urn:uuid:8e52117a-c458-4f14-a845-f7dfea747664"
              },
              {
                "reference": "urn:uuid:a077d6c5-e4ac-45ac-92de-aa239e0151f1"
              },
              {
                "reference": "urn:uuid:1cddaead-0c59-4374-80c8-e1d6031e50a4"
              },
              {
                "reference": "urn:uuid:b1cf6504-326a-4b4d-936d-6e66ede363b5"
              }
            ],
            "code": {
              "coding": [
                {
                  "system": "http://loinc.org",
                  "code": "11450-4",
                  "display": "Problem list - Reported"
                }
              ]
            },
            "title": "Problem list"
          },
          {
            "text": {
              "status": "generated",
              "div": "<div xmlns=\"http://www.w3.org/1999/xhtml\"><table class=\"hl7__ips\"><tr><td>Naproxen sodium 220 MG Oral Tablet</td><td>2025-04-07</td><td></td><td>1 tablet (220 mg) every 8 to 12 hours as needed\"</td><td></td></tr><tr><td>Natazia 28 Day Pack</td><td>2025-04-06</td><td></td><td>1 tablet (2 mg estradiol valerate or 2 mg estradiol valerate/2 mg dienogest or 1 mg estradiol valerate/2 mg dienogest or 1 mg estradiol valerate) by mouth once daily\"</td><td></td></tr></table></div>"
            },
            "entry": [
              {
                "reference": "urn:uuid:75c0cfa7-5f72-4c94-bf82-6a2955530581"
              },
              {
                "reference": "urn:uuid:d400e69b-729d-46d6-bde4-421742f5db9c"
              }
            ],
            "code": {
              "coding": [
                {
                  "system": "http://loinc.org",
                  "code": "10160-0",
                  "display": "History of Medication use Narrative"
                }
              ]
            },
            "title": "Medication list"
          },
          {
            "text": {
              "status": "generated",
              "div": "<div xmlns=\"http://www.w3.org/1999/xhtml\"><table class=\"hl7__ips\"><tr><td>No known allergies or intolerances</td></tr></table></div>"
            },
            "entry": [
              {
                "reference": "urn:uuid:f0d45732-5e75-44eb-9f51-fcea388a5cf7"
              }
            ],
            "code": {
              "coding": [
                {
                  "system": "http://loinc.org",
                  "code": "48765-2",
                  "display": "Allergies and adverse reactions Document"
                }
              ]
            },
            "title": "Allergies and Intolerances"
          },
          {
            "text": {
              "status": "generated",
              "div": "<div xmlns=\"http://www.w3.org/1999/xhtml\"><table class=\"hl7__ips\"><tr><td>Suture open wound</td><td>2025-04-07</td><td>Laceration of thigh (disorder)</td></tr></table></div>"
            },
            "entry": [
              {
                "reference": "urn:uuid:2747f2e5-e1e2-4af8-b6c7-bb01c13df2cd"
              }
            ],
            "code": {
              "coding": [
                {
                  "system": "http://loinc.org",
                  "code": "47519-4",
                  "display": "History of Procedures Document"
                }
              ]
            },
            "title": "Procedure History list"
          },
          {
            "text": {
              "status": "generated",
              "div": "<div xmlns=\"http://www.w3.org/1999/xhtml\"><table class=\"hl7__ips\"><tr><td>Influenza virus antigen only vaccine product</td><td>2024-10-10</td></tr><tr><td>SARS-CoV-2 mRNA vaccine</td><td>2021-02-25</td></tr><tr><td>Clostridium tetani toxoid antigen adsorbed only vaccine product</td><td>2018-10-04</td></tr></table></div>"
            },
            "entry": [
              {
                "reference": "urn:uuid:9f1e7443-97ed-4e44-ae79-9047d0159394"
              },
              {
                "reference": "urn:uuid:2df47607-7d8b-4c73-b755-aa5b84561eb0"
              },
              {
                "reference": "urn:uuid:c27e49f1-b33f-422a-8e3d-0cea5995b8ad"
              }
            ],
            "code": {
              "coding": [
                {
                  "system": "http://loinc.org",
                  "code": "11369-6",
                  "display": "History of Immunization Narrative"
                }
              ]
            },
            "title": "Immunizations list"
          }
        ],
        "title": "European Patient Summary",
        "status": "final",
        "subject": {
          "reference": "urn:uuid:267ebca7-8607-4619-97c9-6ff6a67fba73"
        },
        "custodian": {
          "reference": "urn:uuid:4d63b540-cb0c-435e-8de5-37a18c385cbd"
        },
        "date": "2025-06-16T17:28:57Z",
        "confidentiality": "N"
      }
    },
    {
      "fullUrl": "urn:uuid:267ebca7-8607-4619-97c9-6ff6a67fba73",
      "resource": {
        "resourceType": "Patient",
        "id": "267ebca7-8607-4619-97c9-6ff6a67fba73",
        "meta": {
          "profile": [
            "http://hl7.eu/fhir/eps/StructureDefinition/patient-eu-eps"
          ]
        },
        "identifier": [
          {
            "type": {
              "coding": [
                {
                  "code": "NI",
                  "system": "http://terminology.hl7.org/CodeSystem/v2-0203"
                }
              ]
            },
            "system": "http://ec.europa.eu/identifier/eci",
            "value": "8003-808788-0"
          },
          {
            "type": {
              "coding": [
                {
                  "code": "MR",
                  "system": "http://terminology.hl7.org/CodeSystem/v2-0203"
                }
              ]
            },
            "system": "http://local.setting.eu/identifier",
            "value": "804ab781-33af-6d58-afd1-b1298cf9f557"
          }
        ],
        "name": [
          {
            "given": [
              "Pauliina"
            ],
            "family": "Jäntti",
            "text": "Pauliina Jäntti"
          }
        ],
        "address": [
          {
            "line": [
              "Ranna 57"
            ],
            "use": "home",
            "type": "physical",
            "city": "Kohtla-Järve",
            "postalCode": "41534",
            "country": "Estonia"
          }
        ],
        "telecom": [
          {
            "system": "phone",
            "value": "+372 352 9802"
          }
        ],
        "gender": "female",
        "birthDate": "1988-12-31"
      }
    },
    {
      "fullUrl": "urn:uuid:6e83b295-7e70-4976-b408-f2ab1616a6eb",
      "resource": {
        "resourceType": "PractitionerRole",
        "id": "6e83b295-7e70-4976-b408-f2ab1616a6eb",
        "meta": {
          "profile": [
            "http://hl7.eu/fhir/base/StructureDefinition/practitionerRole-eu"
          ]
        },
        "practitioner": {
          "reference": "urn:uuid:ec92f0d9-c429-464f-b672-04991e6966b4"
        },
        "organization": {
          "reference": "urn:uuid:4d63b540-cb0c-435e-8de5-37a18c385cbd"
        }
      }
    },
    {
      "fullUrl": "urn:uuid:ec92f0d9-c429-464f-b672-04991e6966b4",
      "resource": {
        "resourceType": "Practitioner",
        "id": "ec92f0d9-c429-464f-b672-04991e6966b4",
        "meta": {
          "profile": [
            "http://hl7.eu/fhir/base/StructureDefinition/practitioner-eu"
          ]
        },
        "name": [
          {
            "prefix": [
              "Dr."
            ],
            "given": [
              "Hel"
            ],
            "family": "Ping"
          }
        ]
      }
    },
    {
      "fullUrl": "urn:uuid:299ccc9f-d3ff-4a13-b052-279faf41181b",
      "resource": {
        "resourceType": "Condition",
        "id": "299ccc9f-d3ff-4a13-b052-279faf41181b",
        "meta": {
          "profile": [
            "http://hl7.org/fhir/uv/ips/StructureDefinition/Condition-uv-ips"
          ]
        },
        "category": [
          {
            "coding": [
              {
                "code": "problem-list-item",
                "system": "http://terminology.hl7.org/CodeSystem/condition-category",
                "display": "Problem List Item"
              }
            ]
          }
        ],
        "code": {
          "coding": [
            {
              "code": "283385000",
              "system": "http://snomed.info/sct",
              "display": "Laceration of thigh (disorder)"
            }
          ],
          "text": "Laceration of thigh"
        },
        "onsetDateTime": "2025-04-07",
        "clinicalStatus": {
          "coding": [
            {
              "code": "active",
              "system": "http://terminology.hl7.org/CodeSystem/condition-clinical"
            }
          ]
        },
        "subject": {
          "reference": "Patient/267ebca7-8607-4619-97c9-6ff6a67fba73",
          "display": "Pauliina Jäntti"
        },
        "asserter": {
          "reference": "Practitioner/ec92f0d9-c429-464f-b672-04991e6966b4",
          "display": "Dr. Hel Ping"
        }
      }
    },
    {
      "fullUrl": "urn:uuid:e2fd6ef1-1d6e-413d-8a58-6fd16b6c0216",
      "resource": {
        "resourceType": "Condition",
        "id": "e2fd6ef1-1d6e-413d-8a58-6fd16b6c0216",
        "meta": {
          "profile": [
            "http://hl7.org/fhir/uv/ips/StructureDefinition/Condition-uv-ips"
          ]
        },
        "category": [
          {
            "coding": [
              {
                "code": "problem-list-item",
                "system": "http://terminology.hl7.org/CodeSystem/condition-category",
                "display": "Problem List Item"
              }
            ]
          }
        ],
        "code": {
          "coding": [
            {
              "code": "312608009",
              "system": "http://snomed.info/sct",
              "display": "Laceration - injury (disorder)"
            }
          ],
          "text": "Laceration - injury"
        },
        "onsetDateTime": "2025-04-07",
        "clinicalStatus": {
          "coding": [
            {
              "code": "active",
              "system": "http://terminology.hl7.org/CodeSystem/condition-clinical"
            }
          ]
        },
        "subject": {
          "reference": "Patient/267ebca7-8607-4619-97c9-6ff6a67fba73",
          "display": "Pauliina Jäntti"
        },
        "asserter": {
          "reference": "Practitioner/ec92f0d9-c429-464f-b672-04991e6966b4",
          "display": "Dr. Hel Ping"
        }
      }
    },
    {
      "fullUrl": "urn:uuid:5641af20-64b4-4257-8a02-f25fda480c97",
      "resource": {
        "resourceType": "Condition",
        "id": "5641af20-64b4-4257-8a02-f25fda480c97",
        "meta": {
          "profile": [
            "http://hl7.org/fhir/uv/ips/StructureDefinition/Condition-uv-ips"
          ]
        },
        "category": [
          {
            "coding": [
              {
                "code": "problem-list-item",
                "system": "http://terminology.hl7.org/CodeSystem/condition-category",
                "display": "Problem List Item"
              }
            ]
          }
        ],
        "code": {
          "coding": [
            {
              "code": "40055000",
              "system": "http://snomed.info/sct",
              "display": "Chronic sinusitis (disorder)"
            }
          ],
          "text": "Chronic sinusitis"
        },
        "onsetDateTime": "2018-08-22",
        "clinicalStatus": {
          "coding": [
            {
              "code": "active",
              "system": "http://terminology.hl7.org/CodeSystem/condition-clinical"
            }
          ]
        },
        "subject": {
          "reference": "Patient/267ebca7-8607-4619-97c9-6ff6a67fba73",
          "display": "Pauliina Jäntti"
        },
        "asserter": {
          "reference": "Practitioner/ec92f0d9-c429-464f-b672-04991e6966b4",
          "display": "Dr. Hel Ping"
        }
      }
    },
    {
      "fullUrl": "urn:uuid:8e52117a-c458-4f14-a845-f7dfea747664",
      "resource": {
        "resourceType": "Condition",
        "id": "8e52117a-c458-4f14-a845-f7dfea747664",
        "meta": {
          "profile": [
            "http://hl7.org/fhir/uv/ips/StructureDefinition/Condition-uv-ips"
          ]
        },
        "category": [
          {
            "coding": [
              {
                "code": "problem-list-item",
                "system": "http://terminology.hl7.org/CodeSystem/condition-category",
                "display": "Problem List Item"
              }
            ]
          }
        ],
        "code": {
          "coding": [
            {
              "code": "271737000",
              "system": "http://snomed.info/sct",
              "display": "Anemia (disorder)"
            }
          ],
          "text": "Anemia"
        },
        "onsetDateTime": "2009-09-24",
        "clinicalStatus": {
          "coding": [
            {
              "code": "active",
              "system": "http://terminology.hl7.org/CodeSystem/condition-clinical"
            }
          ]
        },
        "subject": {
          "reference": "Patient/267ebca7-8607-4619-97c9-6ff6a67fba73",
          "display": "Pauliina Jäntti"
        },
        "asserter": {
          "reference": "Practitioner/ec92f0d9-c429-464f-b672-04991e6966b4",
          "display": "Dr. Hel Ping"
        }
      }
    },
    {
      "fullUrl": "urn:uuid:a077d6c5-e4ac-45ac-92de-aa239e0151f1",
      "resource": {
        "resourceType": "Condition",
        "id": "a077d6c5-e4ac-45ac-92de-aa239e0151f1",
        "meta": {
          "profile": [
            "http://hl7.org/fhir/uv/ips/StructureDefinition/Condition-uv-ips"
          ]
        },
        "category": [
          {
            "coding": [
              {
                "code": "problem-list-item",
                "system": "http://terminology.hl7.org/CodeSystem/condition-category",
                "display": "Problem List Item"
              }
            ]
          }
        ],
        "code": {
          "coding": [
            {
              "code": "19169002",
              "system": "http://snomed.info/sct",
              "display": "Miscarriage in first trimester (disorder)"
            }
          ],
          "text": "Miscarriage in first trimester"
        },
        "onsetDateTime": "2021-03-18",
        "clinicalStatus": {
          "coding": [
            {
              "code": "inactive",
              "system": "http://terminology.hl7.org/CodeSystem/condition-clinical"
            }
          ]
        },
        "subject": {
          "reference": "Patient/267ebca7-8607-4619-97c9-6ff6a67fba73",
          "display": "Pauliina Jäntti"
        },
        "asserter": {
          "reference": "Practitioner/ec92f0d9-c429-464f-b672-04991e6966b4",
          "display": "Dr. Hel Ping"
        }
      }
    },
    {
      "fullUrl": "urn:uuid:1cddaead-0c59-4374-80c8-e1d6031e50a4",
      "resource": {
        "resourceType": "Condition",
        "id": "1cddaead-0c59-4374-80c8-e1d6031e50a4",
        "meta": {
          "profile": [
            "http://hl7.org/fhir/uv/ips/StructureDefinition/Condition-uv-ips"
          ]
        },
        "category": [
          {
            "coding": [
              {
                "code": "problem-list-item",
                "system": "http://terminology.hl7.org/CodeSystem/condition-category",
                "display": "Problem List Item"
              }
            ]
          }
        ],
        "code": {
          "coding": [
            {
              "code": "156073000",
              "system": "http://snomed.info/sct",
              "display": "Complete miscarriage (disorder)"
            }
          ],
          "text": "Complete miscarriage"
        },
        "onsetDateTime": "2021-03-18",
        "clinicalStatus": {
          "coding": [
            {
              "code": "inactive",
              "system": "http://terminology.hl7.org/CodeSystem/condition-clinical"
            }
          ]
        },
        "subject": {
          "reference": "Patient/267ebca7-8607-4619-97c9-6ff6a67fba73",
          "display": "Pauliina Jäntti"
        },
        "asserter": {
          "reference": "Practitioner/ec92f0d9-c429-464f-b672-04991e6966b4",
          "display": "Dr. Hel Ping"
        }
      }
    },
    {
      "fullUrl": "urn:uuid:b1cf6504-326a-4b4d-936d-6e66ede363b5",
      "resource": {
        "resourceType": "Condition",
        "id": "b1cf6504-326a-4b4d-936d-6e66ede363b5",
        "meta": {
          "profile": [
            "http://hl7.org/fhir/uv/ips/StructureDefinition/Condition-uv-ips"
          ]
        },
        "category": [
          {
            "coding": [
              {
                "code": "problem-list-item",
                "system": "http://terminology.hl7.org/CodeSystem/condition-category",
                "display": "Problem List Item"
              }
            ]
          }
        ],
        "code": {
          "coding": [
            {
              "code": "36971009",
              "system": "http://snomed.info/sct",
              "display": "Sinusitis (disorder)"
            }
          ],
          "text": "Sinusitis"
        },
        "onsetDateTime": "2018-05-19",
        "clinicalStatus": {
          "coding": [
            {
              "code": "inactive",
              "system": "http://terminology.hl7.org/CodeSystem/condition-clinical"
            }
          ]
        },
        "subject": {
          "reference": "Patient/267ebca7-8607-4619-97c9-6ff6a67fba73",
          "display": "Pauliina Jäntti"
        },
        "asserter": {
          "reference": "Practitioner/ec92f0d9-c429-464f-b672-04991e6966b4",
          "display": "Dr. Hel Ping"
        }
      }
    },
    {
      "fullUrl": "urn:uuid:89cea910-f551-402d-a36f-ab5c06a75e5c",
      "resource": {
        "resourceType": "Medication",
        "id": "89cea910-f551-402d-a36f-ab5c06a75e5c",
        "meta": {
          "profile": [
            "http://hl7.org/fhir/uv/ips/StructureDefinition/Medication-uv-ips"
          ]
        },
        "code": {
          "coding": [
            {
              "code": "849574",
              "system": "http://www.nlm.nih.gov/research/umls/rxnorm",
              "display": "Naproxen sodium 220 MG Oral Tablet"
            }
          ],
          "text": "Naproxen sodium 220 MG Oral Tablet"
        }
      }
    },
    {
      "fullUrl": "urn:uuid:75c0cfa7-5f72-4c94-bf82-6a2955530581",
      "resource": {
        "resourceType": "MedicationStatement",
        "id": "75c0cfa7-5f72-4c94-bf82-6a2955530581",
        "effectivePeriod": {
          "start": "2025-04-07"
        },
        "dosage": [
          {
            "doseAndRate": [
              {
                "doseQuantity": {
                  "value": 1,
                  "unit": "{tbl}",
                  "code": "{tbl}"
                }
              }
            ],
            "timing": {
              "repeat": {
                "frequency": 1,
                "period": 8,
                "periodUnit": "h"
              }
            },
            "text": "1 tablet (220 mg) every 8 to 12 hours as needed",
            "asNeededBoolean": true
          }
        ],
        "status": "active",
        "medicationReference": {
          "reference": "Medication/89cea910-f551-402d-a36f-ab5c06a75e5c",
          "display": "Naproxen sodium 220 MG Oral Tablet"
        },
        "subject": {
          "reference": "Patient/267ebca7-8607-4619-97c9-6ff6a67fba73",
          "display": "Pauliina Jäntti"
        }
      }
    },
    {
      "fullUrl": "urn:uuid:0b6b7f9f-02e9-4a52-8650-8163037fb239",
      "resource": {
        "resourceType": "Medication",
        "id": "0b6b7f9f-02e9-4a52-8650-8163037fb239",
        "meta": {
          "profile": [
            "http://hl7.org/fhir/uv/ips/StructureDefinition/Medication-uv-ips"
          ]
        },
        "code": {
          "coding": [
            {
              "code": "978950",
              "system": "http://www.nlm.nih.gov/research/umls/rxnorm",
              "display": "Natazia 28 Day Pack"
            }
          ],
          "text": "Natazia 28 Day Pack"
        }
      }
    },
    {
      "fullUrl": "urn:uuid:d400e69b-729d-46d6-bde4-421742f5db9c",
      "resource": {
        "resourceType": "MedicationStatement",
        "id": "d400e69b-729d-46d6-bde4-421742f5db9c",
        "effectivePeriod": {
          "start": "2025-04-06"
        },
        "dosage": [
          {
            "doseAndRate": [
              {
                "doseQuantity": {
                  "value": 1,
                  "unit": "{tbl}",
                  "code": "{tbl}"
                }
              }
            ],
            "timing": {
              "repeat": {
                "frequency": 1,
                "period": 1,
                "periodUnit": "d"
              }
            },
            "text": "1 tablet (2 mg estradiol valerate or 2 mg estradiol valerate/2 mg dienogest or 1 mg estradiol valerate/2 mg dienogest or 1 mg estradiol valerate) by mouth once daily",
            "asNeededBoolean": false
          }
        ],
        "status": "active",
        "medicationReference": {
          "reference": "Medication/0b6b7f9f-02e9-4a52-8650-8163037fb239",
          "display": "Natazia 28 Day Pack"
        },
        "subject": {
          "reference": "Patient/267ebca7-8607-4619-97c9-6ff6a67fba73",
          "display": "Pauliina Jäntti"
        }
      }
    },
    {
      "fullUrl": "urn:uuid:f0d45732-5e75-44eb-9f51-fcea388a5cf7",
      "resource": {
        "resourceType": "AllergyIntolerance",
        "id": "f0d45732-5e75-44eb-9f51-fcea388a5cf7",
        "meta": {
          "profile": [
            "http://hl7.eu/fhir/eps/StructureDefinition/allergyIntolerance-eu-eps"
          ]
        },
        "code": {
          "coding": [
            {
              "code": "716186003",
              "system": "http://snomed.info/sct",
              "display": "No known allergy (situation)"
            }
          ]
        },
        "patient": {
          "reference": "Patient/267ebca7-8607-4619-97c9-6ff6a67fba73",
          "display": "Pauliina Jäntti"
        },
        "_onsetDateTime": {
          "extension": [
            {
              "url": "http://hl7.org/fhir/StructureDefinition/data-absent-reason",
              "valueCode": "unknown"
            }
          ]
        }
      }
    },
    {
      "fullUrl": "urn:uuid:2747f2e5-e1e2-4af8-b6c7-bb01c13df2cd",
      "resource": {
        "resourceType": "Procedure",
        "id": "2747f2e5-e1e2-4af8-b6c7-bb01c13df2cd",
        "meta": {
          "profile": [
            "http://hl7.org/fhir/uv/ips/StructureDefinition/Procedure-uv-ips"
          ]
        },
        "code": {
          "coding": [
            {
              "code": "288086009",
              "system": "http://snomed.info/sct",
              "display": "Suture open wound (procedure)"
            }
          ],
          "text": "Suture open wound"
        },
        "reasonCode": [
          {
            "coding": [
              {
                "code": "283385000",
                "system": "http://snomed.info/sct",
                "display": "Laceration of thigh (disorder)"
              }
            ]
          }
        ],
        "status": "completed",
        "subject": {
          "reference": "Patient/267ebca7-8607-4619-97c9-6ff6a67fba73",
          "display": "Pauliina Jäntti"
        },
        "performedDateTime": "2025-04-07"
      }
    },
    {
      "fullUrl": "urn:uuid:9f1e7443-97ed-4e44-ae79-9047d0159394",
      "resource": {
        "resourceType": "Immunization",
        "id": "9f1e7443-97ed-4e44-ae79-9047d0159394",
        "meta": {
          "profile": [
            "http://hl7.org/fhir/uv/ips/StructureDefinition/Immunization-uv-ips"
          ]
        },
        "vaccineCode": {
          "coding": [
            {
              "code": "1181000221105",
              "system": "http://snomed.info/sct",
              "display": "Vaccine product containing Influenza virus antigen"
            },
            {
              "code": "J07BB02",
              "system": "http://www.whocc.no/atc",
              "display": "Influenza, inactivated, split virus"
            },
            {
              "code": "140",
              "system": "http://hl7.org/fhir/sid/cvx",
              "display": "Influenza  seasonal  injectable  preservative free"
            }
          ],
          "text": "Influenza virus antigen only vaccine product"
        },
        "site": {
          "coding": [
            {
              "code": "73776007",
              "system": "http://snomed.info/sct",
              "display": "Structure of muscle of upper arm"
            }
          ],
          "text": "Structure of muscle of upper arm"
        },
        "route": {
          "coding": [
            {
              "code": "78421000",
              "system": "http://snomed.info/sct",
              "display": "Intramuscular route"
            }
          ],
          "text": "Intramuscular route"
        },
        "status": "completed",
        "patient": {
          "reference": "Patient/267ebca7-8607-4619-97c9-6ff6a67fba73",
          "display": "Pauliina Jäntti"
        },
        "occurrenceDateTime": "2024-10-10",
        "lotNumber": "CH-XGB9",
        "expirationDate": "2025-02-07"
      }
    },
    {
      "fullUrl": "urn:uuid:2df47607-7d8b-4c73-b755-aa5b84561eb0",
      "resource": {
        "resourceType": "Immunization",
        "id": "2df47607-7d8b-4c73-b755-aa5b84561eb0",
        "meta": {
          "profile": [
            "http://hl7.org/fhir/uv/ips/StructureDefinition/Immunization-uv-ips"
          ]
        },
        "vaccineCode": {
          "coding": [
            {
              "code": "1119349007",
              "system": "http://snomed.info/sct",
              "display": "Vaccine product containing SARS-CoV-2 mRNA"
            },
            {
              "code": "J07BX03",
              "system": "http://www.whocc.no/atc",
              "display": "COVID-19 mRNA vaccines"
            },
            {
              "code": "208",
              "system": "http://hl7.org/fhir/sid/cvx",
              "display": "COVID-19  mRNA  LNP-S  PF  30 mcg/0.3 mL dose"
            }
          ],
          "text": "SARS-CoV-2 mRNA vaccine"
        },
        "site": {
          "coding": [
            {
              "code": "73776007",
              "system": "http://snomed.info/sct",
              "display": "Structure of muscle of upper arm"
            }
          ],
          "text": "Structure of muscle of upper arm"
        },
        "route": {
          "coding": [
            {
              "code": "78421000",
              "system": "http://snomed.info/sct",
              "display": "Intramuscular route"
            }
          ],
          "text": "Intramuscular route"
        },
        "status": "completed",
        "patient": {
          "reference": "Patient/267ebca7-8607-4619-97c9-6ff6a67fba73",
          "display": "Pauliina Jäntti"
        },
        "occurrenceDateTime": "2021-02-25",
        "lotNumber": "PA-cLmDpT8",
        "expirationDate": "2021-12-20"
      }
    },
    {
      "fullUrl": "urn:uuid:c27e49f1-b33f-422a-8e3d-0cea5995b8ad",
      "resource": {
        "resourceType": "Immunization",
        "id": "c27e49f1-b33f-422a-8e3d-0cea5995b8ad",
        "meta": {
          "profile": [
            "http://hl7.org/fhir/uv/ips/StructureDefinition/Immunization-uv-ips"
          ]
        },
        "vaccineCode": {
          "coding": [
            {
              "code": "777725002",
              "system": "http://snomed.info/sct",
              "display": "Vaccine product containing only Clostridium tetani toxoid antigen adsorbed"
            },
            {
              "code": "J07AM51",
              "system": "http://www.whocc.no/atc",
              "display": "Diphtheria-tetanus vaccines, adult type"
            },
            {
              "code": "113",
              "system": "http://hl7.org/fhir/sid/cvx",
              "display": "Td (adult)  5 Lf tetanus toxoid  preservative free  adsorbed"
            }
          ],
          "text": "Clostridium tetani toxoid antigen adsorbed only vaccine product"
        },
        "site": {
          "coding": [
            {
              "code": "73776007",
              "system": "http://snomed.info/sct",
              "display": "Structure of muscle of upper arm"
            }
          ],
          "text": "Structure of muscle of upper arm"
        },
        "route": {
          "coding": [
            {
              "code": "78421000",
              "system": "http://snomed.info/sct",
              "display": "Intramuscular route"
            }
          ],
          "text": "Intramuscular route"
        },
        "status": "completed",
        "patient": {
          "reference": "Patient/267ebca7-8607-4619-97c9-6ff6a67fba73",
          "display": "Pauliina Jäntti"
        },
        "occurrenceDateTime": "2018-10-04",
        "lotNumber": "CT-EzRjEj",
        "expirationDate": "2018-12-18"
      }
    }
  ],
  "type": "document",
  "timestamp": "2025-06-16T17:28:57Z"
}
