{
  "resourceType": "Bundle",
  "id": "Instance-Bundle-e4851a0a-95d1-4b92-8066-a0fe32b12dc9",
  "meta": {
    "profile": [
      "http://hl7.eu/fhir/eps/StructureDefinition/bundle-eu-eps"
    ]
  },
  "identifier": {
    "assigner": {
      "display": "HL7 Europe"
    },
    "system": "urn:oid:2.16.840.1.113883.2.51.999",
    "value": "8443eb15-3ac1-4207-9547-f0c314ba727b"
  },
  "entry": [
    {
      "fullUrl": "urn:uuid:5c4de1f2-4470-4493-b501-f2f6a2592631",
      "resource": {
        "resourceType": "Composition",
        "id": "5c4de1f2-4470-4493-b501-f2f6a2592631",
        "meta": {
          "profile": [
            "http://hl7.eu/fhir/eps/StructureDefinition/composition-eu-eps"
          ]
        },
        "identifier": {
          "assigner": {
            "display": "HL7 Europe"
          },
          "system": "urn:oid:2.16.840.1.113883.2.51.999",
          "value": "83fde33f-9874-4437-b6d3-ec772444fe5b"
        },
        "type": {
          "coding": [
            {
              "system": "http://loinc.org",
              "code": "60591-5",
              "display": "European Patient Summary"
            }
          ],
          "text": "European Patient Summary"
        },
        "author": [
          {
            "reference": "urn:uuid:d0f68b5c-0475-470f-b694-5bf0470728ce"
          }
        ],
        "section": [
          {
            "text": {
              "status": "generated",
              "div": "<div xmlns=\"http://www.w3.org/1999/xhtml\"><table class=\"hl7__ips\"><tr><td>Chronic kidney disease stage 2</td><td>2008-02-26</td><td>active</td></tr><tr><td>Microalbuminuria due to type 2 diabetes mellitus</td><td>2008-02-26</td><td>active</td></tr><tr><td>Disorder of kidney due to diabetes mellitus</td><td>2002-04-02</td><td>active</td></tr><tr><td>Chronic kidney disease stage 1</td><td>2002-04-02</td><td>active</td></tr><tr><td>Essential hypertension</td><td>2001-03-27</td><td>active</td></tr><tr><td>Ischemic heart disease</td><td>1997-03-04</td><td>active</td></tr><tr><td>Hyperlipidemia</td><td>1989-03-14</td><td>active</td></tr><tr><td>Gingivitis</td><td>2025-04-01</td><td>inactive</td></tr><tr><td>Gingival disease</td><td>2025-03-18</td><td>inactive</td></tr><tr><td>Gingivitis</td><td>2025-03-04</td><td>inactive</td></tr><tr><td>Primary dental caries</td><td>2025-02-18</td><td>inactive</td></tr><tr><td>Gingivitis</td><td>2025-02-04</td><td>inactive</td></tr><tr><td>Acute bacterial sinusitis</td><td>2025-01-28</td><td>inactive</td></tr><tr><td>Gingival disease</td><td>2024-09-10</td><td>inactive</td></tr><tr><td>Gingivitis</td><td>2024-08-20</td><td>inactive</td></tr><tr><td>Gingivitis</td><td>2023-03-21</td><td>inactive</td></tr><tr><td>Acute viral pharyngitis</td><td>2023-03-14</td><td>inactive</td></tr><tr><td>Gingival disease</td><td>2023-03-07</td><td>inactive</td></tr><tr><td>Gingivitis</td><td>2023-02-07</td><td>inactive</td></tr><tr><td>Primary dental caries</td><td>2022-08-23</td><td>inactive</td></tr><tr><td>Acute infective cystitis</td><td>2022-07-19</td><td>inactive</td></tr><tr><td>Gingivitis</td><td>2021-08-03</td><td>inactive</td></tr><tr><td>Gingivitis</td><td>2019-08-13</td><td>inactive</td></tr><tr><td>Acute viral pharyngitis</td><td>2019-08-05</td><td>inactive</td></tr><tr><td>Gingivitis</td><td>2018-02-06</td><td>inactive</td></tr></table></div>"
            },
            "entry": [
              {
                "reference": "urn:uuid:a1640102-ae6a-403a-992f-14d2d9470c04"
              },
              {
                "reference": "urn:uuid:1cb426da-fc4c-46f6-bbb2-60a42fb1a556"
              },
              {
                "reference": "urn:uuid:51c2dfb8-b7a3-4675-b723-99ba72a8e88e"
              },
              {
                "reference": "urn:uuid:3becd114-d0f2-4a06-bc6b-2fabc0c03edb"
              },
              {
                "reference": "urn:uuid:e8fda1f2-387f-4695-8085-3972ff8cc252"
              },
              {
                "reference": "urn:uuid:29bedbfb-a507-46b1-8a16-dfa5c80d9304"
              },
              {
                "reference": "urn:uuid:bf729631-a479-4f42-a072-053694e6af9e"
              },
              {
                "reference": "urn:uuid:ba9bd042-b3aa-4d74-a666-b3735c0d92da"
              },
              {
                "reference": "urn:uuid:19c0f184-3392-4869-8114-5a96dffae1e6"
              },
              {
                "reference": "urn:uuid:59597471-616d-48b2-a4a3-350b8f031af3"
              },
              {
                "reference": "urn:uuid:7e5256d9-8bde-4fd5-a765-7d22262ab77c"
              },
              {
                "reference": "urn:uuid:b715ecdf-8b7d-4df5-ab10-5f5f34688c80"
              },
              {
                "reference": "urn:uuid:c12c7472-dcb2-450a-8a12-6c64461e4158"
              },
              {
                "reference": "urn:uuid:e555a23f-194e-4e22-9421-0aa08ef50727"
              },
              {
                "reference": "urn:uuid:5d115a92-545b-4938-bb98-1c803c57b461"
              },
              {
                "reference": "urn:uuid:da28b57d-8220-43a6-b177-6ba040146ca9"
              },
              {
                "reference": "urn:uuid:e4920afe-23a0-46e3-9c2a-729e79674963"
              },
              {
                "reference": "urn:uuid:67ce9939-f95c-455d-b23b-80bf26dcb8e5"
              },
              {
                "reference": "urn:uuid:f2d1a958-2f15-46b6-9f3f-d819e8660b0e"
              },
              {
                "reference": "urn:uuid:902c1f91-1f2f-4df3-816e-333d9429e818"
              },
              {
                "reference": "urn:uuid:25508f15-e102-4117-bc73-8739372120a8"
              },
              {
                "reference": "urn:uuid:06a1a501-c267-4021-872b-cc02aa351e05"
              },
              {
                "reference": "urn:uuid:22728c12-ad50-40aa-9651-d39fb7107cec"
              },
              {
                "reference": "urn:uuid:5c34ac46-f72e-462a-a289-fb9dafa6e6b4"
              },
              {
                "reference": "urn:uuid:57ad3c75-5c65-4625-9422-85621adcdaa7"
              }
            ],
            "code": {
              "coding": [
                {
                  "system": "http://loinc.org",
                  "code": "11450-4",
                  "display": "Problem list - Reported"
                }
              ]
            },
            "title": "Problem list"
          },
          {
            "text": {
              "status": "generated",
              "div": "<div xmlns=\"http://www.w3.org/1999/xhtml\"><table class=\"hl7__ips\"><tr><td>Hydrochlorothiazide 25 mg oral tablet</td><td>2025-04-01</td><td>Oral tablet</td><td>1 tablet (25 mg) by mouth once daily\"</td><td>Reason: Essential hypertension (disorder)</td></tr><tr><td>Simvastatin 10 mg oral tablet</td><td>2024-06-09</td><td>Oral tablet</td><td>1 tablet (10 mg) by mouth once daily\"</td><td>Reason: Hyperlipidemia (disorder)</td></tr><tr><td>Clopidogrel (as clopidogrel bisulfate) 75 mg oral tablet</td><td>1997-03-11</td><td>Oral tablet</td><td>1 tablet (75 mg) by mouth once daily\"</td><td></td></tr><tr><td>Simvastatin 20 mg oral tablet</td><td>1997-03-11</td><td>Oral tablet</td><td>1 tablet (20 mg) by mouth once daily\"</td><td></td></tr><tr><td>Nitroglycerin 400 microgram/actuation sublingual spray</td><td>1997-03-11</td><td>Sublingual spray</td><td>400 micrograms per spray, use one spray under the tongue as needed for chest pain, may repeat every 5 minutes as needed, up to 3 sprays in 15 minutes\"</td><td></td></tr><tr><td>Metoprolol tartrate (as metoprolol succinate) 100 mg prolonged-release oral tablet</td><td>1997-03-11</td><td>Prolonged-release oral tablet</td><td>1 tablet (100 mg) once daily\"</td><td></td></tr></table></div>"
            },
            "entry": [
              {
                "reference": "urn:uuid:29fb7260-758b-490b-ab75-033ed49b4623"
              },
              {
                "reference": "urn:uuid:b26bf4e5-7f51-40f1-bb03-25e76f9ce17d"
              },
              {
                "reference": "urn:uuid:519a7fa4-bbed-45c2-af59-afa1bcfd216b"
              },
              {
                "reference": "urn:uuid:b5c64c3c-f0b1-4dfc-8d8d-930841f5b11c"
              },
              {
                "reference": "urn:uuid:354ae6da-c25e-44ee-9d12-c50810f06bc7"
              },
              {
                "reference": "urn:uuid:48ff5b81-161a-43c3-8262-471f73d00383"
              }
            ],
            "code": {
              "coding": [
                {
                  "system": "http://loinc.org",
                  "code": "10160-0",
                  "display": "History of Medication use Narrative"
                }
              ]
            },
            "title": "Medication list"
          },
          {
            "text": {
              "status": "generated",
              "div": "<div xmlns=\"http://www.w3.org/1999/xhtml\"><table class=\"hl7__ips\"><tr><td>No known allergies or intolerances</td></tr></table></div>"
            },
            "entry": [
              {
                "reference": "urn:uuid:9d0bdc9e-2abe-483a-8a54-28de5a24043e"
              }
            ],
            "code": {
              "coding": [
                {
                  "system": "http://loinc.org",
                  "code": "48765-2",
                  "display": "Allergies and adverse reactions Document"
                }
              ]
            },
            "title": "Allergies and Intolerances"
          },
          {
            "text": {
              "status": "generated",
              "div": "<div xmlns=\"http://www.w3.org/1999/xhtml\"><table class=\"hl7__ips\"><tr><td>Patient referral for dental care</td><td>2025-03-04</td><td>Gingivitis (disorder)</td></tr><tr><td>Depression screening</td><td>2025-03-04</td><td>-</td></tr><tr><td>Assessment of health and social care needs</td><td>2025-03-04</td><td>-</td></tr><tr><td>Assessment of anxiety</td><td>2025-02-04</td><td>-</td></tr><tr><td>Screening for drug abuse</td><td>2025-02-04</td><td>-</td></tr><tr><td>Assessment using Morse Fall Scale</td><td>2025-02-04</td><td>-</td></tr><tr><td>Assessment of substance use</td><td>2025-02-04</td><td>-</td></tr><tr><td>Screening for domestic abuse</td><td>2025-01-14</td><td>-</td></tr><tr><td>Medication reconciliation</td><td>2025-01-07</td><td>-</td></tr><tr><td>Assessment using AUDIT-C (Alcohol Use Disorders Identification Test - Consumption)</td><td>2023-03-21</td><td>-</td></tr><tr><td>Referral to home health care service</td><td>2019-04-23</td><td>-</td></tr></table></div>"
            },
            "entry": [
              {
                "reference": "urn:uuid:4107ef48-84ff-4996-ab7a-ba63540cd106"
              },
              {
                "reference": "urn:uuid:30c656ca-6081-4435-b6fb-a0741fb550e4"
              },
              {
                "reference": "urn:uuid:d6669a75-1a50-4af0-9bba-295378e6f3b4"
              },
              {
                "reference": "urn:uuid:c0841b10-a007-48b6-a3f7-954189694c50"
              },
              {
                "reference": "urn:uuid:847b43a8-5188-4ac8-8c75-8bfa9cf5a413"
              },
              {
                "reference": "urn:uuid:020a691e-270c-472d-86cb-ff7487dd8c95"
              },
              {
                "reference": "urn:uuid:1e19edbb-738f-4c9f-a986-d2008c493908"
              },
              {
                "reference": "urn:uuid:e03ef944-83d9-4186-9726-2fd751f23a76"
              },
              {
                "reference": "urn:uuid:da3062b3-6249-4a52-b4df-d27264eb66a2"
              },
              {
                "reference": "urn:uuid:88f74dce-88d2-4771-bdf8-9e26aeadef4f"
              },
              {
                "reference": "urn:uuid:d57c440e-9dbe-4f59-b5e3-8e319d82069f"
              }
            ],
            "code": {
              "coding": [
                {
                  "system": "http://loinc.org",
                  "code": "47519-4",
                  "display": "History of Procedures Document"
                }
              ]
            },
            "title": "Procedure History list"
          },
          {
            "text": {
              "status": "generated",
              "div": "<div xmlns=\"http://www.w3.org/1999/xhtml\"><table class=\"hl7__ips\"><tr><td>Influenza virus antigen only vaccine product</td><td>2024-12-03</td></tr><tr><td>SARS-CoV-2 mRNA vaccine</td><td>2021-03-02</td></tr><tr><td>Clostridium tetani toxoid antigen adsorbed only vaccine product</td><td>2018-07-17</td></tr></table></div>"
            },
            "entry": [
              {
                "reference": "urn:uuid:78dd6080-ef2b-40fb-ae80-a42a4e86fc24"
              },
              {
                "reference": "urn:uuid:3656b0cb-fb7d-4e3f-93ea-8e40826173ae"
              },
              {
                "reference": "urn:uuid:b4416770-b43b-4be0-b3d5-b8d002028572"
              }
            ],
            "code": {
              "coding": [
                {
                  "system": "http://loinc.org",
                  "code": "11369-6",
                  "display": "History of Immunization Narrative"
                }
              ]
            },
            "title": "Immunizations list"
          }
        ],
        "title": "European Patient Summary",
        "status": "final",
        "subject": {
          "reference": "urn:uuid:dfeb1a09-8947-4d88-84aa-acf090a51696"
        },
        "custodian": {
          "reference": "urn:uuid:c8581f26-58fc-4971-aaa8-4f6ba87a3f16"
        },
        "date": "2025-06-16T17:28:57Z",
        "confidentiality": "N"
      }
    },
    {
      "fullUrl": "urn:uuid:dfeb1a09-8947-4d88-84aa-acf090a51696",
      "resource": {
        "resourceType": "Patient",
        "id": "dfeb1a09-8947-4d88-84aa-acf090a51696",
        "meta": {
          "profile": [
            "http://hl7.eu/fhir/eps/StructureDefinition/patient-eu-eps"
          ]
        },
        "identifier": [
          {
            "type": {
              "coding": [
                {
                  "code": "NI",
                  "system": "http://terminology.hl7.org/CodeSystem/v2-0203"
                }
              ]
            },
            "system": "http://ec.europa.eu/identifier/eci",
            "value": "7321-512116-8"
          },
          {
            "type": {
              "coding": [
                {
                  "code": "MR",
                  "system": "http://terminology.hl7.org/CodeSystem/v2-0203"
                }
              ]
            },
            "system": "http://local.setting.eu/identifier",
            "value": "272aefe4-efd6-46df-1410-ac58a638efa1"
          }
        ],
        "name": [
          {
            "given": [
              "Vicente"
            ],
            "family": "Ferreira",
            "text": "Vicente Ferreira"
          }
        ],
        "address": [
          {
            "line": [
              "R São Domingos 111"
            ],
            "use": "home",
            "type": "physical",
            "city": "Alcabideche",
            "postalCode": "2645-065",
            "country": "Portugal"
          }
        ],
        "telecom": [
          {
            "system": "phone",
            "value": "+351 21 211 632 1063"
          }
        ],
        "gender": "male",
        "birthDate": "1941-12-26"
      }
    },
    {
      "fullUrl": "urn:uuid:d0f68b5c-0475-470f-b694-5bf0470728ce",
      "resource": {
        "resourceType": "PractitionerRole",
        "id": "d0f68b5c-0475-470f-b694-5bf0470728ce",
        "meta": {
          "profile": [
            "http://hl7.eu/fhir/base/StructureDefinition/practitionerRole-eu"
          ]
        },
        "practitioner": {
          "reference": "urn:uuid:70f99d06-4591-4e7f-a4a8-813f32ee50e6"
        },
        "organization": {
          "reference": "urn:uuid:c8581f26-58fc-4971-aaa8-4f6ba87a3f16"
        }
      }
    },
    {
      "fullUrl": "urn:uuid:70f99d06-4591-4e7f-a4a8-813f32ee50e6",
      "resource": {
        "resourceType": "Practitioner",
        "id": "70f99d06-4591-4e7f-a4a8-813f32ee50e6",
        "meta": {
          "profile": [
            "http://hl7.eu/fhir/base/StructureDefinition/practitioner-eu"
          ]
        },
        "name": [
          {
            "prefix": [
              "Dr."
            ],
            "given": [
              "Hel"
            ],
            "family": "Ping"
          }
        ]
      }
    },
    {
      "fullUrl": "urn:uuid:a1640102-ae6a-403a-992f-14d2d9470c04",
      "resource": {
        "resourceType": "Condition",
        "id": "a1640102-ae6a-403a-992f-14d2d9470c04",
        "meta": {
          "profile": [
            "http://hl7.org/fhir/uv/ips/StructureDefinition/Condition-uv-ips"
          ]
        },
        "category": [
          {
            "coding": [
              {
                "code": "problem-list-item",
                "system": "http://terminology.hl7.org/CodeSystem/condition-category",
                "display": "Problem List Item"
              }
            ]
          }
        ],
        "code": {
          "coding": [
            {
              "code": "431856006",
              "system": "http://snomed.info/sct",
              "display": "Chronic kidney disease stage 2 (disorder)"
            }
          ],
          "text": "Chronic kidney disease stage 2"
        },
        "onsetDateTime": "2008-02-26",
        "clinicalStatus": {
          "coding": [
            {
              "code": "active",
              "system": "http://terminology.hl7.org/CodeSystem/condition-clinical"
            }
          ]
        },
        "subject": {
          "reference": "Patient/dfeb1a09-8947-4d88-84aa-acf090a51696",
          "display": "Vicente Ferreira"
        },
        "asserter": {
          "reference": "Practitioner/70f99d06-4591-4e7f-a4a8-813f32ee50e6",
          "display": "Dr. Hel Ping"
        }
      }
    },
    {
      "fullUrl": "urn:uuid:1cb426da-fc4c-46f6-bbb2-60a42fb1a556",
      "resource": {
        "resourceType": "Condition",
        "id": "1cb426da-fc4c-46f6-bbb2-60a42fb1a556",
        "meta": {
          "profile": [
            "http://hl7.org/fhir/uv/ips/StructureDefinition/Condition-uv-ips"
          ]
        },
        "category": [
          {
            "coding": [
              {
                "code": "problem-list-item",
                "system": "http://terminology.hl7.org/CodeSystem/condition-category",
                "display": "Problem List Item"
              }
            ]
          }
        ],
        "code": {
          "coding": [
            {
              "code": "90781000119102",
              "system": "http://snomed.info/sct",
              "display": "Microalbuminuria due to type 2 diabetes mellitus (disorder)"
            }
          ],
          "text": "Microalbuminuria due to type 2 diabetes mellitus"
        },
        "onsetDateTime": "2008-02-26",
        "clinicalStatus": {
          "coding": [
            {
              "code": "active",
              "system": "http://terminology.hl7.org/CodeSystem/condition-clinical"
            }
          ]
        },
        "subject": {
          "reference": "Patient/dfeb1a09-8947-4d88-84aa-acf090a51696",
          "display": "Vicente Ferreira"
        },
        "asserter": {
          "reference": "Practitioner/70f99d06-4591-4e7f-a4a8-813f32ee50e6",
          "display": "Dr. Hel Ping"
        }
      }
    },
    {
      "fullUrl": "urn:uuid:51c2dfb8-b7a3-4675-b723-99ba72a8e88e",
      "resource": {
        "resourceType": "Condition",
        "id": "51c2dfb8-b7a3-4675-b723-99ba72a8e88e",
        "meta": {
          "profile": [
            "http://hl7.org/fhir/uv/ips/StructureDefinition/Condition-uv-ips"
          ]
        },
        "category": [
          {
            "coding": [
              {
                "code": "problem-list-item",
                "system": "http://terminology.hl7.org/CodeSystem/condition-category",
                "display": "Problem List Item"
              }
            ]
          }
        ],
        "code": {
          "coding": [
            {
              "code": "127013003",
              "system": "http://snomed.info/sct",
              "display": "Disorder of kidney due to diabetes mellitus (disorder)"
            }
          ],
          "text": "Disorder of kidney due to diabetes mellitus"
        },
        "onsetDateTime": "2002-04-02",
        "clinicalStatus": {
          "coding": [
            {
              "code": "active",
              "system": "http://terminology.hl7.org/CodeSystem/condition-clinical"
            }
          ]
        },
        "subject": {
          "reference": "Patient/dfeb1a09-8947-4d88-84aa-acf090a51696",
          "display": "Vicente Ferreira"
        },
        "asserter": {
          "reference": "Practitioner/70f99d06-4591-4e7f-a4a8-813f32ee50e6",
          "display": "Dr. Hel Ping"
        }
      }
    },
    {
      "fullUrl": "urn:uuid:3becd114-d0f2-4a06-bc6b-2fabc0c03edb",
      "resource": {
        "resourceType": "Condition",
        "id": "3becd114-d0f2-4a06-bc6b-2fabc0c03edb",
        "meta": {
          "profile": [
            "http://hl7.org/fhir/uv/ips/StructureDefinition/Condition-uv-ips"
          ]
        },
        "category": [
          {
            "coding": [
              {
                "code": "problem-list-item",
                "system": "http://terminology.hl7.org/CodeSystem/condition-category",
                "display": "Problem List Item"
              }
            ]
          }
        ],
        "code": {
          "coding": [
            {
              "code": "431855005",
              "system": "http://snomed.info/sct",
              "display": "Chronic kidney disease stage 1 (disorder)"
            }
          ],
          "text": "Chronic kidney disease stage 1"
        },
        "onsetDateTime": "2002-04-02",
        "clinicalStatus": {
          "coding": [
            {
              "code": "active",
              "system": "http://terminology.hl7.org/CodeSystem/condition-clinical"
            }
          ]
        },
        "subject": {
          "reference": "Patient/dfeb1a09-8947-4d88-84aa-acf090a51696",
          "display": "Vicente Ferreira"
        },
        "asserter": {
          "reference": "Practitioner/70f99d06-4591-4e7f-a4a8-813f32ee50e6",
          "display": "Dr. Hel Ping"
        }
      }
    },
    {
      "fullUrl": "urn:uuid:e8fda1f2-387f-4695-8085-3972ff8cc252",
      "resource": {
        "resourceType": "Condition",
        "id": "e8fda1f2-387f-4695-8085-3972ff8cc252",
        "meta": {
          "profile": [
            "http://hl7.org/fhir/uv/ips/StructureDefinition/Condition-uv-ips"
          ]
        },
        "category": [
          {
            "coding": [
              {
                "code": "problem-list-item",
                "system": "http://terminology.hl7.org/CodeSystem/condition-category",
                "display": "Problem List Item"
              }
            ]
          }
        ],
        "code": {
          "coding": [
            {
              "code": "59621000",
              "system": "http://snomed.info/sct",
              "display": "Essential hypertension (disorder)"
            }
          ],
          "text": "Essential hypertension"
        },
        "onsetDateTime": "2001-03-27",
        "clinicalStatus": {
          "coding": [
            {
              "code": "active",
              "system": "http://terminology.hl7.org/CodeSystem/condition-clinical"
            }
          ]
        },
        "subject": {
          "reference": "Patient/dfeb1a09-8947-4d88-84aa-acf090a51696",
          "display": "Vicente Ferreira"
        },
        "asserter": {
          "reference": "Practitioner/70f99d06-4591-4e7f-a4a8-813f32ee50e6",
          "display": "Dr. Hel Ping"
        }
      }
    },
    {
      "fullUrl": "urn:uuid:29bedbfb-a507-46b1-8a16-dfa5c80d9304",
      "resource": {
        "resourceType": "Condition",
        "id": "29bedbfb-a507-46b1-8a16-dfa5c80d9304",
        "meta": {
          "profile": [
            "http://hl7.org/fhir/uv/ips/StructureDefinition/Condition-uv-ips"
          ]
        },
        "category": [
          {
            "coding": [
              {
                "code": "problem-list-item",
                "system": "http://terminology.hl7.org/CodeSystem/condition-category",
                "display": "Problem List Item"
              }
            ]
          }
        ],
        "code": {
          "coding": [
            {
              "code": "414545008",
              "system": "http://snomed.info/sct",
              "display": "Ischemic heart disease (disorder)"
            }
          ],
          "text": "Ischemic heart disease"
        },
        "onsetDateTime": "1997-03-04",
        "clinicalStatus": {
          "coding": [
            {
              "code": "active",
              "system": "http://terminology.hl7.org/CodeSystem/condition-clinical"
            }
          ]
        },
        "subject": {
          "reference": "Patient/dfeb1a09-8947-4d88-84aa-acf090a51696",
          "display": "Vicente Ferreira"
        },
        "asserter": {
          "reference": "Practitioner/70f99d06-4591-4e7f-a4a8-813f32ee50e6",
          "display": "Dr. Hel Ping"
        }
      }
    },
    {
      "fullUrl": "urn:uuid:bf729631-a479-4f42-a072-053694e6af9e",
      "resource": {
        "resourceType": "Condition",
        "id": "bf729631-a479-4f42-a072-053694e6af9e",
        "meta": {
          "profile": [
            "http://hl7.org/fhir/uv/ips/StructureDefinition/Condition-uv-ips"
          ]
        },
        "category": [
          {
            "coding": [
              {
                "code": "problem-list-item",
                "system": "http://terminology.hl7.org/CodeSystem/condition-category",
                "display": "Problem List Item"
              }
            ]
          }
        ],
        "code": {
          "coding": [
            {
              "code": "55822004",
              "system": "http://snomed.info/sct",
              "display": "Hyperlipidemia (disorder)"
            }
          ],
          "text": "Hyperlipidemia"
        },
        "onsetDateTime": "1989-03-14",
        "clinicalStatus": {
          "coding": [
            {
              "code": "active",
              "system": "http://terminology.hl7.org/CodeSystem/condition-clinical"
            }
          ]
        },
        "subject": {
          "reference": "Patient/dfeb1a09-8947-4d88-84aa-acf090a51696",
          "display": "Vicente Ferreira"
        },
        "asserter": {
          "reference": "Practitioner/70f99d06-4591-4e7f-a4a8-813f32ee50e6",
          "display": "Dr. Hel Ping"
        }
      }
    },
    {
      "fullUrl": "urn:uuid:ba9bd042-b3aa-4d74-a666-b3735c0d92da",
      "resource": {
        "resourceType": "Condition",
        "id": "ba9bd042-b3aa-4d74-a666-b3735c0d92da",
        "meta": {
          "profile": [
            "http://hl7.org/fhir/uv/ips/StructureDefinition/Condition-uv-ips"
          ]
        },
        "category": [
          {
            "coding": [
              {
                "code": "problem-list-item",
                "system": "http://terminology.hl7.org/CodeSystem/condition-category",
                "display": "Problem List Item"
              }
            ]
          }
        ],
        "code": {
          "coding": [
            {
              "code": "66383009",
              "system": "http://snomed.info/sct",
              "display": "Gingivitis (disorder)"
            }
          ],
          "text": "Gingivitis"
        },
        "onsetDateTime": "2025-04-01",
        "clinicalStatus": {
          "coding": [
            {
              "code": "inactive",
              "system": "http://terminology.hl7.org/CodeSystem/condition-clinical"
            }
          ]
        },
        "subject": {
          "reference": "Patient/dfeb1a09-8947-4d88-84aa-acf090a51696",
          "display": "Vicente Ferreira"
        },
        "asserter": {
          "reference": "Practitioner/70f99d06-4591-4e7f-a4a8-813f32ee50e6",
          "display": "Dr. Hel Ping"
        }
      }
    },
    {
      "fullUrl": "urn:uuid:19c0f184-3392-4869-8114-5a96dffae1e6",
      "resource": {
        "resourceType": "Condition",
        "id": "19c0f184-3392-4869-8114-5a96dffae1e6",
        "meta": {
          "profile": [
            "http://hl7.org/fhir/uv/ips/StructureDefinition/Condition-uv-ips"
          ]
        },
        "category": [
          {
            "coding": [
              {
                "code": "problem-list-item",
                "system": "http://terminology.hl7.org/CodeSystem/condition-category",
                "display": "Problem List Item"
              }
            ]
          }
        ],
        "code": {
          "coding": [
            {
              "code": "18718003",
              "system": "http://snomed.info/sct",
              "display": "Gingival disease (disorder)"
            }
          ],
          "text": "Gingival disease"
        },
        "onsetDateTime": "2025-03-18",
        "clinicalStatus": {
          "coding": [
            {
              "code": "inactive",
              "system": "http://terminology.hl7.org/CodeSystem/condition-clinical"
            }
          ]
        },
        "subject": {
          "reference": "Patient/dfeb1a09-8947-4d88-84aa-acf090a51696",
          "display": "Vicente Ferreira"
        },
        "asserter": {
          "reference": "Practitioner/70f99d06-4591-4e7f-a4a8-813f32ee50e6",
          "display": "Dr. Hel Ping"
        }
      }
    },
    {
      "fullUrl": "urn:uuid:59597471-616d-48b2-a4a3-350b8f031af3",
      "resource": {
        "resourceType": "Condition",
        "id": "59597471-616d-48b2-a4a3-350b8f031af3",
        "meta": {
          "profile": [
            "http://hl7.org/fhir/uv/ips/StructureDefinition/Condition-uv-ips"
          ]
        },
        "category": [
          {
            "coding": [
              {
                "code": "problem-list-item",
                "system": "http://terminology.hl7.org/CodeSystem/condition-category",
                "display": "Problem List Item"
              }
            ]
          }
        ],
        "code": {
          "coding": [
            {
              "code": "66383009",
              "system": "http://snomed.info/sct",
              "display": "Gingivitis (disorder)"
            }
          ],
          "text": "Gingivitis"
        },
        "onsetDateTime": "2025-03-04",
        "clinicalStatus": {
          "coding": [
            {
              "code": "inactive",
              "system": "http://terminology.hl7.org/CodeSystem/condition-clinical"
            }
          ]
        },
        "subject": {
          "reference": "Patient/dfeb1a09-8947-4d88-84aa-acf090a51696",
          "display": "Vicente Ferreira"
        },
        "asserter": {
          "reference": "Practitioner/70f99d06-4591-4e7f-a4a8-813f32ee50e6",
          "display": "Dr. Hel Ping"
        }
      }
    },
    {
      "fullUrl": "urn:uuid:7e5256d9-8bde-4fd5-a765-7d22262ab77c",
      "resource": {
        "resourceType": "Condition",
        "id": "7e5256d9-8bde-4fd5-a765-7d22262ab77c",
        "meta": {
          "profile": [
            "http://hl7.org/fhir/uv/ips/StructureDefinition/Condition-uv-ips"
          ]
        },
        "category": [
          {
            "coding": [
              {
                "code": "problem-list-item",
                "system": "http://terminology.hl7.org/CodeSystem/condition-category",
                "display": "Problem List Item"
              }
            ]
          }
        ],
        "code": {
          "coding": [
            {
              "code": "109570002",
              "system": "http://snomed.info/sct",
              "display": "Primary dental caries (disorder)"
            }
          ],
          "text": "Primary dental caries"
        },
        "onsetDateTime": "2025-02-18",
        "clinicalStatus": {
          "coding": [
            {
              "code": "inactive",
              "system": "http://terminology.hl7.org/CodeSystem/condition-clinical"
            }
          ]
        },
        "subject": {
          "reference": "Patient/dfeb1a09-8947-4d88-84aa-acf090a51696",
          "display": "Vicente Ferreira"
        },
        "asserter": {
          "reference": "Practitioner/70f99d06-4591-4e7f-a4a8-813f32ee50e6",
          "display": "Dr. Hel Ping"
        }
      }
    },
    {
      "fullUrl": "urn:uuid:b715ecdf-8b7d-4df5-ab10-5f5f34688c80",
      "resource": {
        "resourceType": "Condition",
        "id": "b715ecdf-8b7d-4df5-ab10-5f5f34688c80",
        "meta": {
          "profile": [
            "http://hl7.org/fhir/uv/ips/StructureDefinition/Condition-uv-ips"
          ]
        },
        "category": [
          {
            "coding": [
              {
                "code": "problem-list-item",
                "system": "http://terminology.hl7.org/CodeSystem/condition-category",
                "display": "Problem List Item"
              }
            ]
          }
        ],
        "code": {
          "coding": [
            {
              "code": "66383009",
              "system": "http://snomed.info/sct",
              "display": "Gingivitis (disorder)"
            }
          ],
          "text": "Gingivitis"
        },
        "onsetDateTime": "2025-02-04",
        "clinicalStatus": {
          "coding": [
            {
              "code": "inactive",
              "system": "http://terminology.hl7.org/CodeSystem/condition-clinical"
            }
          ]
        },
        "subject": {
          "reference": "Patient/dfeb1a09-8947-4d88-84aa-acf090a51696",
          "display": "Vicente Ferreira"
        },
        "asserter": {
          "reference": "Practitioner/70f99d06-4591-4e7f-a4a8-813f32ee50e6",
          "display": "Dr. Hel Ping"
        }
      }
    },
    {
      "fullUrl": "urn:uuid:c12c7472-dcb2-450a-8a12-6c64461e4158",
      "resource": {
        "resourceType": "Condition",
        "id": "c12c7472-dcb2-450a-8a12-6c64461e4158",
        "meta": {
          "profile": [
            "http://hl7.org/fhir/uv/ips/StructureDefinition/Condition-uv-ips"
          ]
        },
        "category": [
          {
            "coding": [
              {
                "code": "problem-list-item",
                "system": "http://terminology.hl7.org/CodeSystem/condition-category",
                "display": "Problem List Item"
              }
            ]
          }
        ],
        "code": {
          "coding": [
            {
              "code": "75498004",
              "system": "http://snomed.info/sct",
              "display": "Acute bacterial sinusitis (disorder)"
            }
          ],
          "text": "Acute bacterial sinusitis"
        },
        "onsetDateTime": "2025-01-28",
        "clinicalStatus": {
          "coding": [
            {
              "code": "inactive",
              "system": "http://terminology.hl7.org/CodeSystem/condition-clinical"
            }
          ]
        },
        "subject": {
          "reference": "Patient/dfeb1a09-8947-4d88-84aa-acf090a51696",
          "display": "Vicente Ferreira"
        },
        "asserter": {
          "reference": "Practitioner/70f99d06-4591-4e7f-a4a8-813f32ee50e6",
          "display": "Dr. Hel Ping"
        }
      }
    },
    {
      "fullUrl": "urn:uuid:e555a23f-194e-4e22-9421-0aa08ef50727",
      "resource": {
        "resourceType": "Condition",
        "id": "e555a23f-194e-4e22-9421-0aa08ef50727",
        "meta": {
          "profile": [
            "http://hl7.org/fhir/uv/ips/StructureDefinition/Condition-uv-ips"
          ]
        },
        "category": [
          {
            "coding": [
              {
                "code": "problem-list-item",
                "system": "http://terminology.hl7.org/CodeSystem/condition-category",
                "display": "Problem List Item"
              }
            ]
          }
        ],
        "code": {
          "coding": [
            {
              "code": "18718003",
              "system": "http://snomed.info/sct",
              "display": "Gingival disease (disorder)"
            }
          ],
          "text": "Gingival disease"
        },
        "onsetDateTime": "2024-09-10",
        "clinicalStatus": {
          "coding": [
            {
              "code": "inactive",
              "system": "http://terminology.hl7.org/CodeSystem/condition-clinical"
            }
          ]
        },
        "subject": {
          "reference": "Patient/dfeb1a09-8947-4d88-84aa-acf090a51696",
          "display": "Vicente Ferreira"
        },
        "asserter": {
          "reference": "Practitioner/70f99d06-4591-4e7f-a4a8-813f32ee50e6",
          "display": "Dr. Hel Ping"
        }
      }
    },
    {
      "fullUrl": "urn:uuid:5d115a92-545b-4938-bb98-1c803c57b461",
      "resource": {
        "resourceType": "Condition",
        "id": "5d115a92-545b-4938-bb98-1c803c57b461",
        "meta": {
          "profile": [
            "http://hl7.org/fhir/uv/ips/StructureDefinition/Condition-uv-ips"
          ]
        },
        "category": [
          {
            "coding": [
              {
                "code": "problem-list-item",
                "system": "http://terminology.hl7.org/CodeSystem/condition-category",
                "display": "Problem List Item"
              }
            ]
          }
        ],
        "code": {
          "coding": [
            {
              "code": "66383009",
              "system": "http://snomed.info/sct",
              "display": "Gingivitis (disorder)"
            }
          ],
          "text": "Gingivitis"
        },
        "onsetDateTime": "2024-08-20",
        "clinicalStatus": {
          "coding": [
            {
              "code": "inactive",
              "system": "http://terminology.hl7.org/CodeSystem/condition-clinical"
            }
          ]
        },
        "subject": {
          "reference": "Patient/dfeb1a09-8947-4d88-84aa-acf090a51696",
          "display": "Vicente Ferreira"
        },
        "asserter": {
          "reference": "Practitioner/70f99d06-4591-4e7f-a4a8-813f32ee50e6",
          "display": "Dr. Hel Ping"
        }
      }
    },
    {
      "fullUrl": "urn:uuid:da28b57d-8220-43a6-b177-6ba040146ca9",
      "resource": {
        "resourceType": "Condition",
        "id": "da28b57d-8220-43a6-b177-6ba040146ca9",
        "meta": {
          "profile": [
            "http://hl7.org/fhir/uv/ips/StructureDefinition/Condition-uv-ips"
          ]
        },
        "category": [
          {
            "coding": [
              {
                "code": "problem-list-item",
                "system": "http://terminology.hl7.org/CodeSystem/condition-category",
                "display": "Problem List Item"
              }
            ]
          }
        ],
        "code": {
          "coding": [
            {
              "code": "66383009",
              "system": "http://snomed.info/sct",
              "display": "Gingivitis (disorder)"
            }
          ],
          "text": "Gingivitis"
        },
        "onsetDateTime": "2023-03-21",
        "clinicalStatus": {
          "coding": [
            {
              "code": "inactive",
              "system": "http://terminology.hl7.org/CodeSystem/condition-clinical"
            }
          ]
        },
        "subject": {
          "reference": "Patient/dfeb1a09-8947-4d88-84aa-acf090a51696",
          "display": "Vicente Ferreira"
        },
        "asserter": {
          "reference": "Practitioner/70f99d06-4591-4e7f-a4a8-813f32ee50e6",
          "display": "Dr. Hel Ping"
        }
      }
    },
    {
      "fullUrl": "urn:uuid:e4920afe-23a0-46e3-9c2a-729e79674963",
      "resource": {
        "resourceType": "Condition",
        "id": "e4920afe-23a0-46e3-9c2a-729e79674963",
        "meta": {
          "profile": [
            "http://hl7.org/fhir/uv/ips/StructureDefinition/Condition-uv-ips"
          ]
        },
        "category": [
          {
            "coding": [
              {
                "code": "problem-list-item",
                "system": "http://terminology.hl7.org/CodeSystem/condition-category",
                "display": "Problem List Item"
              }
            ]
          }
        ],
        "code": {
          "coding": [
            {
              "code": "195662009",
              "system": "http://snomed.info/sct",
              "display": "Acute viral pharyngitis (disorder)"
            }
          ],
          "text": "Acute viral pharyngitis"
        },
        "onsetDateTime": "2023-03-14",
        "clinicalStatus": {
          "coding": [
            {
              "code": "inactive",
              "system": "http://terminology.hl7.org/CodeSystem/condition-clinical"
            }
          ]
        },
        "subject": {
          "reference": "Patient/dfeb1a09-8947-4d88-84aa-acf090a51696",
          "display": "Vicente Ferreira"
        },
        "asserter": {
          "reference": "Practitioner/70f99d06-4591-4e7f-a4a8-813f32ee50e6",
          "display": "Dr. Hel Ping"
        }
      }
    },
    {
      "fullUrl": "urn:uuid:67ce9939-f95c-455d-b23b-80bf26dcb8e5",
      "resource": {
        "resourceType": "Condition",
        "id": "67ce9939-f95c-455d-b23b-80bf26dcb8e5",
        "meta": {
          "profile": [
            "http://hl7.org/fhir/uv/ips/StructureDefinition/Condition-uv-ips"
          ]
        },
        "category": [
          {
            "coding": [
              {
                "code": "problem-list-item",
                "system": "http://terminology.hl7.org/CodeSystem/condition-category",
                "display": "Problem List Item"
              }
            ]
          }
        ],
        "code": {
          "coding": [
            {
              "code": "18718003",
              "system": "http://snomed.info/sct",
              "display": "Gingival disease (disorder)"
            }
          ],
          "text": "Gingival disease"
        },
        "onsetDateTime": "2023-03-07",
        "clinicalStatus": {
          "coding": [
            {
              "code": "inactive",
              "system": "http://terminology.hl7.org/CodeSystem/condition-clinical"
            }
          ]
        },
        "subject": {
          "reference": "Patient/dfeb1a09-8947-4d88-84aa-acf090a51696",
          "display": "Vicente Ferreira"
        },
        "asserter": {
          "reference": "Practitioner/70f99d06-4591-4e7f-a4a8-813f32ee50e6",
          "display": "Dr. Hel Ping"
        }
      }
    },
    {
      "fullUrl": "urn:uuid:f2d1a958-2f15-46b6-9f3f-d819e8660b0e",
      "resource": {
        "resourceType": "Condition",
        "id": "f2d1a958-2f15-46b6-9f3f-d819e8660b0e",
        "meta": {
          "profile": [
            "http://hl7.org/fhir/uv/ips/StructureDefinition/Condition-uv-ips"
          ]
        },
        "category": [
          {
            "coding": [
              {
                "code": "problem-list-item",
                "system": "http://terminology.hl7.org/CodeSystem/condition-category",
                "display": "Problem List Item"
              }
            ]
          }
        ],
        "code": {
          "coding": [
            {
              "code": "66383009",
              "system": "http://snomed.info/sct",
              "display": "Gingivitis (disorder)"
            }
          ],
          "text": "Gingivitis"
        },
        "onsetDateTime": "2023-02-07",
        "clinicalStatus": {
          "coding": [
            {
              "code": "inactive",
              "system": "http://terminology.hl7.org/CodeSystem/condition-clinical"
            }
          ]
        },
        "subject": {
          "reference": "Patient/dfeb1a09-8947-4d88-84aa-acf090a51696",
          "display": "Vicente Ferreira"
        },
        "asserter": {
          "reference": "Practitioner/70f99d06-4591-4e7f-a4a8-813f32ee50e6",
          "display": "Dr. Hel Ping"
        }
      }
    },
    {
      "fullUrl": "urn:uuid:902c1f91-1f2f-4df3-816e-333d9429e818",
      "resource": {
        "resourceType": "Condition",
        "id": "902c1f91-1f2f-4df3-816e-333d9429e818",
        "meta": {
          "profile": [
            "http://hl7.org/fhir/uv/ips/StructureDefinition/Condition-uv-ips"
          ]
        },
        "category": [
          {
            "coding": [
              {
                "code": "problem-list-item",
                "system": "http://terminology.hl7.org/CodeSystem/condition-category",
                "display": "Problem List Item"
              }
            ]
          }
        ],
        "code": {
          "coding": [
            {
              "code": "109570002",
              "system": "http://snomed.info/sct",
              "display": "Primary dental caries (disorder)"
            }
          ],
          "text": "Primary dental caries"
        },
        "onsetDateTime": "2022-08-23",
        "clinicalStatus": {
          "coding": [
            {
              "code": "inactive",
              "system": "http://terminology.hl7.org/CodeSystem/condition-clinical"
            }
          ]
        },
        "subject": {
          "reference": "Patient/dfeb1a09-8947-4d88-84aa-acf090a51696",
          "display": "Vicente Ferreira"
        },
        "asserter": {
          "reference": "Practitioner/70f99d06-4591-4e7f-a4a8-813f32ee50e6",
          "display": "Dr. Hel Ping"
        }
      }
    },
    {
      "fullUrl": "urn:uuid:25508f15-e102-4117-bc73-8739372120a8",
      "resource": {
        "resourceType": "Condition",
        "id": "25508f15-e102-4117-bc73-8739372120a8",
        "meta": {
          "profile": [
            "http://hl7.org/fhir/uv/ips/StructureDefinition/Condition-uv-ips"
          ]
        },
        "category": [
          {
            "coding": [
              {
                "code": "problem-list-item",
                "system": "http://terminology.hl7.org/CodeSystem/condition-category",
                "display": "Problem List Item"
              }
            ]
          }
        ],
        "code": {
          "coding": [
            {
              "code": "307426000",
              "system": "http://snomed.info/sct",
              "display": "Acute infective cystitis (disorder)"
            }
          ],
          "text": "Acute infective cystitis"
        },
        "onsetDateTime": "2022-07-19",
        "clinicalStatus": {
          "coding": [
            {
              "code": "inactive",
              "system": "http://terminology.hl7.org/CodeSystem/condition-clinical"
            }
          ]
        },
        "subject": {
          "reference": "Patient/dfeb1a09-8947-4d88-84aa-acf090a51696",
          "display": "Vicente Ferreira"
        },
        "asserter": {
          "reference": "Practitioner/70f99d06-4591-4e7f-a4a8-813f32ee50e6",
          "display": "Dr. Hel Ping"
        }
      }
    },
    {
      "fullUrl": "urn:uuid:06a1a501-c267-4021-872b-cc02aa351e05",
      "resource": {
        "resourceType": "Condition",
        "id": "06a1a501-c267-4021-872b-cc02aa351e05",
        "meta": {
          "profile": [
            "http://hl7.org/fhir/uv/ips/StructureDefinition/Condition-uv-ips"
          ]
        },
        "category": [
          {
            "coding": [
              {
                "code": "problem-list-item",
                "system": "http://terminology.hl7.org/CodeSystem/condition-category",
                "display": "Problem List Item"
              }
            ]
          }
        ],
        "code": {
          "coding": [
            {
              "code": "66383009",
              "system": "http://snomed.info/sct",
              "display": "Gingivitis (disorder)"
            }
          ],
          "text": "Gingivitis"
        },
        "onsetDateTime": "2021-08-03",
        "clinicalStatus": {
          "coding": [
            {
              "code": "inactive",
              "system": "http://terminology.hl7.org/CodeSystem/condition-clinical"
            }
          ]
        },
        "subject": {
          "reference": "Patient/dfeb1a09-8947-4d88-84aa-acf090a51696",
          "display": "Vicente Ferreira"
        },
        "asserter": {
          "reference": "Practitioner/70f99d06-4591-4e7f-a4a8-813f32ee50e6",
          "display": "Dr. Hel Ping"
        }
      }
    },
    {
      "fullUrl": "urn:uuid:22728c12-ad50-40aa-9651-d39fb7107cec",
      "resource": {
        "resourceType": "Condition",
        "id": "22728c12-ad50-40aa-9651-d39fb7107cec",
        "meta": {
          "profile": [
            "http://hl7.org/fhir/uv/ips/StructureDefinition/Condition-uv-ips"
          ]
        },
        "category": [
          {
            "coding": [
              {
                "code": "problem-list-item",
                "system": "http://terminology.hl7.org/CodeSystem/condition-category",
                "display": "Problem List Item"
              }
            ]
          }
        ],
        "code": {
          "coding": [
            {
              "code": "66383009",
              "system": "http://snomed.info/sct",
              "display": "Gingivitis (disorder)"
            }
          ],
          "text": "Gingivitis"
        },
        "onsetDateTime": "2019-08-13",
        "clinicalStatus": {
          "coding": [
            {
              "code": "inactive",
              "system": "http://terminology.hl7.org/CodeSystem/condition-clinical"
            }
          ]
        },
        "subject": {
          "reference": "Patient/dfeb1a09-8947-4d88-84aa-acf090a51696",
          "display": "Vicente Ferreira"
        },
        "asserter": {
          "reference": "Practitioner/70f99d06-4591-4e7f-a4a8-813f32ee50e6",
          "display": "Dr. Hel Ping"
        }
      }
    },
    {
      "fullUrl": "urn:uuid:5c34ac46-f72e-462a-a289-fb9dafa6e6b4",
      "resource": {
        "resourceType": "Condition",
        "id": "5c34ac46-f72e-462a-a289-fb9dafa6e6b4",
        "meta": {
          "profile": [
            "http://hl7.org/fhir/uv/ips/StructureDefinition/Condition-uv-ips"
          ]
        },
        "category": [
          {
            "coding": [
              {
                "code": "problem-list-item",
                "system": "http://terminology.hl7.org/CodeSystem/condition-category",
                "display": "Problem List Item"
              }
            ]
          }
        ],
        "code": {
          "coding": [
            {
              "code": "195662009",
              "system": "http://snomed.info/sct",
              "display": "Acute viral pharyngitis (disorder)"
            }
          ],
          "text": "Acute viral pharyngitis"
        },
        "onsetDateTime": "2019-08-05",
        "clinicalStatus": {
          "coding": [
            {
              "code": "inactive",
              "system": "http://terminology.hl7.org/CodeSystem/condition-clinical"
            }
          ]
        },
        "subject": {
          "reference": "Patient/dfeb1a09-8947-4d88-84aa-acf090a51696",
          "display": "Vicente Ferreira"
        },
        "asserter": {
          "reference": "Practitioner/70f99d06-4591-4e7f-a4a8-813f32ee50e6",
          "display": "Dr. Hel Ping"
        }
      }
    },
    {
      "fullUrl": "urn:uuid:57ad3c75-5c65-4625-9422-85621adcdaa7",
      "resource": {
        "resourceType": "Condition",
        "id": "57ad3c75-5c65-4625-9422-85621adcdaa7",
        "meta": {
          "profile": [
            "http://hl7.org/fhir/uv/ips/StructureDefinition/Condition-uv-ips"
          ]
        },
        "category": [
          {
            "coding": [
              {
                "code": "problem-list-item",
                "system": "http://terminology.hl7.org/CodeSystem/condition-category",
                "display": "Problem List Item"
              }
            ]
          }
        ],
        "code": {
          "coding": [
            {
              "code": "66383009",
              "system": "http://snomed.info/sct",
              "display": "Gingivitis (disorder)"
            }
          ],
          "text": "Gingivitis"
        },
        "onsetDateTime": "2018-02-06",
        "clinicalStatus": {
          "coding": [
            {
              "code": "inactive",
              "system": "http://terminology.hl7.org/CodeSystem/condition-clinical"
            }
          ]
        },
        "subject": {
          "reference": "Patient/dfeb1a09-8947-4d88-84aa-acf090a51696",
          "display": "Vicente Ferreira"
        },
        "asserter": {
          "reference": "Practitioner/70f99d06-4591-4e7f-a4a8-813f32ee50e6",
          "display": "Dr. Hel Ping"
        }
      }
    },
    {
      "fullUrl": "urn:uuid:2d05cafa-b90d-4fd1-a005-840f5fe187da",
      "resource": {
        "resourceType": "Medication",
        "id": "2d05cafa-b90d-4fd1-a005-840f5fe187da",
        "meta": {
          "profile": [
            "http://hl7.org/fhir/uv/ips/StructureDefinition/Medication-uv-ips"
          ]
        },
        "code": {
          "coding": [
            {
              "code": "310798",
              "system": "http://www.nlm.nih.gov/research/umls/rxnorm",
              "display": "hydrochlorothiazide 25 MG Oral Tablet"
            },
            {
              "code": "376209006",
              "system": "http://snomed.info/sct",
              "display": "Product containing precisely hydrochlorothiazide 25 milligram/1 each conventional release oral tablet (clinical drug)"
            }
          ],
          "text": "Hydrochlorothiazide 25 mg oral tablet"
        },
        "form": {
          "coding": [
            {
              "code": "421026006",
              "system": "http://snomed.info/sct",
              "display": "Oral tablet"
            }
          ]
        },
        "ingredient": [
          {
            "itemCodeableConcept": {
              "coding": [
                {
                  "code": "387525002",
                  "system": "http://snomed.info/sct",
                  "display": "Hydrochlorothiazide"
                }
              ]
            },
            "isActive": true
          }
        ]
      }
    },
    {
      "fullUrl": "urn:uuid:29fb7260-758b-490b-ab75-033ed49b4623",
      "resource": {
        "resourceType": "MedicationStatement",
        "id": "29fb7260-758b-490b-ab75-033ed49b4623",
        "effectivePeriod": {
          "start": "2025-04-01"
        },
        "dosage": [
          {
            "doseAndRate": [
              {
                "doseQuantity": {
                  "value": 1,
                  "unit": "{tbl}",
                  "code": "{tbl}"
                }
              }
            ],
            "timing": {
              "repeat": {
                "frequency": 1,
                "period": 1,
                "periodUnit": "d"
              }
            },
            "text": "1 tablet (25 mg) by mouth once daily",
            "asNeededBoolean": false
          }
        ],
        "reasonCode": [
          {
            "coding": [
              {
                "code": "59621000",
                "system": "http://snomed.info/sct",
                "display": "Essential hypertension (disorder)"
              }
            ]
          }
        ],
        "status": "active",
        "medicationReference": {
          "reference": "Medication/2d05cafa-b90d-4fd1-a005-840f5fe187da",
          "display": "Hydrochlorothiazide 25 mg oral tablet"
        },
        "subject": {
          "reference": "Patient/dfeb1a09-8947-4d88-84aa-acf090a51696",
          "display": "Vicente Ferreira"
        }
      }
    },
    {
      "fullUrl": "urn:uuid:fe1052de-4afc-46b2-9982-1eb055b26c9f",
      "resource": {
        "resourceType": "Medication",
        "id": "fe1052de-4afc-46b2-9982-1eb055b26c9f",
        "meta": {
          "profile": [
            "http://hl7.org/fhir/uv/ips/StructureDefinition/Medication-uv-ips"
          ]
        },
        "code": {
          "coding": [
            {
              "code": "314231",
              "system": "http://www.nlm.nih.gov/research/umls/rxnorm",
              "display": "simvastatin 10 MG Oral Tablet"
            },
            {
              "code": "319996000",
              "system": "http://snomed.info/sct",
              "display": "Product containing precisely simvastatin 10 milligram/1 each conventional release oral tablet (clinical drug)"
            }
          ],
          "text": "Simvastatin 10 mg oral tablet"
        },
        "form": {
          "coding": [
            {
              "code": "421026006",
              "system": "http://snomed.info/sct",
              "display": "Oral tablet"
            }
          ]
        },
        "ingredient": [
          {
            "itemCodeableConcept": {
              "coding": [
                {
                  "code": "387584000",
                  "system": "http://snomed.info/sct",
                  "display": "Simvastatin"
                }
              ]
            },
            "isActive": true
          }
        ]
      }
    },
    {
      "fullUrl": "urn:uuid:b26bf4e5-7f51-40f1-bb03-25e76f9ce17d",
      "resource": {
        "resourceType": "MedicationStatement",
        "id": "b26bf4e5-7f51-40f1-bb03-25e76f9ce17d",
        "effectivePeriod": {
          "start": "2024-06-09"
        },
        "dosage": [
          {
            "doseAndRate": [
              {
                "doseQuantity": {
                  "value": 1,
                  "unit": "{tbl}",
                  "code": "{tbl}"
                }
              }
            ],
            "timing": {
              "repeat": {
                "frequency": 1,
                "period": 1,
                "periodUnit": "d"
              }
            },
            "text": "1 tablet (10 mg) by mouth once daily",
            "asNeededBoolean": false
          }
        ],
        "reasonCode": [
          {
            "coding": [
              {
                "code": "55822004",
                "system": "http://snomed.info/sct",
                "display": "Hyperlipidemia (disorder)"
              }
            ]
          }
        ],
        "status": "active",
        "medicationReference": {
          "reference": "Medication/fe1052de-4afc-46b2-9982-1eb055b26c9f",
          "display": "Simvastatin 10 mg oral tablet"
        },
        "subject": {
          "reference": "Patient/dfeb1a09-8947-4d88-84aa-acf090a51696",
          "display": "Vicente Ferreira"
        }
      }
    },
    {
      "fullUrl": "urn:uuid:42d54918-29e6-4f81-9446-f7ec6149e010",
      "resource": {
        "resourceType": "Medication",
        "id": "42d54918-29e6-4f81-9446-f7ec6149e010",
        "meta": {
          "profile": [
            "http://hl7.org/fhir/uv/ips/StructureDefinition/Medication-uv-ips"
          ]
        },
        "code": {
          "coding": [
            {
              "code": "309362",
              "system": "http://www.nlm.nih.gov/research/umls/rxnorm",
              "display": "clopidogrel 75 MG Oral Tablet"
            },
            {
              "code": "783586007",
              "system": "http://snomed.info/sct",
              "display": "Product containing precisely clopidogrel (as clopidogrel bisulfate) 75 milligram/1 each conventional release oral tablet (clinical drug)"
            }
          ],
          "text": "Clopidogrel (as clopidogrel bisulfate) 75 mg oral tablet"
        },
        "form": {
          "coding": [
            {
              "code": "421026006",
              "system": "http://snomed.info/sct",
              "display": "Oral tablet"
            }
          ]
        },
        "ingredient": [
          {
            "itemCodeableConcept": {
              "coding": [
                {
                  "code": "412354008",
                  "system": "http://snomed.info/sct",
                  "display": "Clopidogrel bisulfate"
                }
              ]
            },
            "isActive": true
          }
        ]
      }
    },
    {
      "fullUrl": "urn:uuid:519a7fa4-bbed-45c2-af59-afa1bcfd216b",
      "resource": {
        "resourceType": "MedicationStatement",
        "id": "519a7fa4-bbed-45c2-af59-afa1bcfd216b",
        "effectivePeriod": {
          "start": "1997-03-11"
        },
        "dosage": [
          {
            "doseAndRate": [
              {
                "doseQuantity": {
                  "value": 1,
                  "unit": "{tbl}",
                  "code": "{tbl}"
                }
              }
            ],
            "timing": {
              "repeat": {
                "frequency": 1,
                "period": 1,
                "periodUnit": "d"
              }
            },
            "text": "1 tablet (75 mg) by mouth once daily",
            "asNeededBoolean": false
          }
        ],
        "status": "active",
        "medicationReference": {
          "reference": "Medication/42d54918-29e6-4f81-9446-f7ec6149e010",
          "display": "Clopidogrel (as clopidogrel bisulfate) 75 mg oral tablet"
        },
        "subject": {
          "reference": "Patient/dfeb1a09-8947-4d88-84aa-acf090a51696",
          "display": "Vicente Ferreira"
        }
      }
    },
    {
      "fullUrl": "urn:uuid:f488d625-861a-4022-b2ec-951f9ac45f67",
      "resource": {
        "resourceType": "Medication",
        "id": "f488d625-861a-4022-b2ec-951f9ac45f67",
        "meta": {
          "profile": [
            "http://hl7.org/fhir/uv/ips/StructureDefinition/Medication-uv-ips"
          ]
        },
        "code": {
          "coding": [
            {
              "code": "312961",
              "system": "http://www.nlm.nih.gov/research/umls/rxnorm",
              "display": "simvastatin 20 MG Oral Tablet"
            },
            {
              "code": "319997009",
              "system": "http://snomed.info/sct",
              "display": "Product containing precisely simvastatin 20 milligram/1 each conventional release oral tablet (clinical drug)"
            }
          ],
          "text": "Simvastatin 20 mg oral tablet"
        },
        "form": {
          "coding": [
            {
              "code": "421026006",
              "system": "http://snomed.info/sct",
              "display": "Oral tablet"
            }
          ]
        },
        "ingredient": [
          {
            "itemCodeableConcept": {
              "coding": [
                {
                  "code": "387584000",
                  "system": "http://snomed.info/sct",
                  "display": "Simvastatin"
                }
              ]
            },
            "isActive": true
          }
        ]
      }
    },
    {
      "fullUrl": "urn:uuid:b5c64c3c-f0b1-4dfc-8d8d-930841f5b11c",
      "resource": {
        "resourceType": "MedicationStatement",
        "id": "b5c64c3c-f0b1-4dfc-8d8d-930841f5b11c",
        "effectivePeriod": {
          "start": "1997-03-11"
        },
        "dosage": [
          {
            "doseAndRate": [
              {
                "doseQuantity": {
                  "value": 1,
                  "unit": "{tbl}",
                  "code": "{tbl}"
                }
              }
            ],
            "timing": {
              "repeat": {
                "frequency": 1,
                "period": 1,
                "periodUnit": "d"
              }
            },
            "text": "1 tablet (20 mg) by mouth once daily",
            "asNeededBoolean": false
          }
        ],
        "status": "active",
        "medicationReference": {
          "reference": "Medication/f488d625-861a-4022-b2ec-951f9ac45f67",
          "display": "Simvastatin 20 mg oral tablet"
        },
        "subject": {
          "reference": "Patient/dfeb1a09-8947-4d88-84aa-acf090a51696",
          "display": "Vicente Ferreira"
        }
      }
    },
    {
      "fullUrl": "urn:uuid:614a27fc-f3f7-48af-8001-61c84f145867",
      "resource": {
        "resourceType": "Medication",
        "id": "614a27fc-f3f7-48af-8001-61c84f145867",
        "meta": {
          "profile": [
            "http://hl7.org/fhir/uv/ips/StructureDefinition/Medication-uv-ips"
          ]
        },
        "code": {
          "coding": [
            {
              "code": "705129",
              "system": "http://www.nlm.nih.gov/research/umls/rxnorm",
              "display": "nitroglycerin 0.4 MG/ACTUAT Mucosal Spray"
            },
            {
              "code": "425176000",
              "system": "http://snomed.info/sct",
              "display": "Product containing precisely glyceryl trinitrate 400 microgram/1 actuation conventional release sublingual spray (clinical drug)"
            }
          ],
          "text": "Nitroglycerin 400 microgram/actuation sublingual spray"
        },
        "form": {
          "coding": [
            {
              "code": "385074009",
              "system": "http://snomed.info/sct",
              "display": "Sublingual spray"
            }
          ]
        },
        "ingredient": [
          {
            "itemCodeableConcept": {
              "coding": [
                {
                  "code": "387404004",
                  "system": "http://snomed.info/sct",
                  "display": "Glyceryl trinitrate"
                }
              ]
            },
            "isActive": true
          }
        ]
      }
    },
    {
      "fullUrl": "urn:uuid:354ae6da-c25e-44ee-9d12-c50810f06bc7",
      "resource": {
        "resourceType": "MedicationStatement",
        "id": "354ae6da-c25e-44ee-9d12-c50810f06bc7",
        "effectivePeriod": {
          "start": "1997-03-11"
        },
        "dosage": [
          {
            "doseAndRate": [
              {
                "doseQuantity": {
                  "value": 400,
                  "unit": "microgram",
                  "code": "ug"
                }
              }
            ],
            "timing": {
              "repeat": {
                "frequency": 1,
                "period": 5,
                "periodUnit": "min"
              }
            },
            "text": "400 micrograms per spray, use one spray under the tongue as needed for chest pain, may repeat every 5 minutes as needed, up to 3 sprays in 15 minutes",
            "asNeededBoolean": true
          }
        ],
        "status": "active",
        "medicationReference": {
          "reference": "Medication/614a27fc-f3f7-48af-8001-61c84f145867",
          "display": "Nitroglycerin 400 microgram/actuation sublingual spray"
        },
        "subject": {
          "reference": "Patient/dfeb1a09-8947-4d88-84aa-acf090a51696",
          "display": "Vicente Ferreira"
        }
      }
    },
    {
      "fullUrl": "urn:uuid:37192ab5-14d7-4ec0-b820-abe2e484ddec",
      "resource": {
        "resourceType": "Medication",
        "id": "37192ab5-14d7-4ec0-b820-abe2e484ddec",
        "meta": {
          "profile": [
            "http://hl7.org/fhir/uv/ips/StructureDefinition/Medication-uv-ips"
          ]
        },
        "code": {
          "coding": [
            {
              "code": "866412",
              "system": "http://www.nlm.nih.gov/research/umls/rxnorm",
              "display": "24 HR metoprolol succinate 100 MG Extended Release Oral Tablet"
            },
            {
              "code": "879980009",
              "system": "http://snomed.info/sct",
              "display": "Product containing precisely metoprolol tartrate (as metoprolol succinate) 100 milligram/1 each prolonged-release oral tablet (clinical drug)"
            }
          ],
          "text": "Metoprolol tartrate (as metoprolol succinate) 100 mg prolonged-release oral tablet"
        },
        "form": {
          "coding": [
            {
              "code": "385060002",
              "system": "http://snomed.info/sct",
              "display": "Prolonged-release oral tablet"
            }
          ]
        },
        "ingredient": [
          {
            "itemCodeableConcept": {
              "coding": [
                {
                  "code": "412432007",
                  "system": "http://snomed.info/sct",
                  "display": "Metoprolol succinate"
                }
              ]
            },
            "isActive": true
          }
        ]
      }
    },
    {
      "fullUrl": "urn:uuid:48ff5b81-161a-43c3-8262-471f73d00383",
      "resource": {
        "resourceType": "MedicationStatement",
        "id": "48ff5b81-161a-43c3-8262-471f73d00383",
        "effectivePeriod": {
          "start": "1997-03-11"
        },
        "dosage": [
          {
            "doseAndRate": [
              {
                "doseQuantity": {
                  "value": 1,
                  "unit": "{tbl}",
                  "code": "{tbl}"
                }
              }
            ],
            "timing": {
              "repeat": {
                "frequency": 1,
                "period": 1,
                "periodUnit": "d"
              }
            },
            "text": "1 tablet (100 mg) once daily",
            "asNeededBoolean": false
          }
        ],
        "status": "active",
        "medicationReference": {
          "reference": "Medication/37192ab5-14d7-4ec0-b820-abe2e484ddec",
          "display": "Metoprolol tartrate (as metoprolol succinate) 100 mg prolonged-release oral tablet"
        },
        "subject": {
          "reference": "Patient/dfeb1a09-8947-4d88-84aa-acf090a51696",
          "display": "Vicente Ferreira"
        }
      }
    },
    {
      "fullUrl": "urn:uuid:9d0bdc9e-2abe-483a-8a54-28de5a24043e",
      "resource": {
        "resourceType": "AllergyIntolerance",
        "id": "9d0bdc9e-2abe-483a-8a54-28de5a24043e",
        "meta": {
          "profile": [
            "http://hl7.eu/fhir/eps/StructureDefinition/allergyIntolerance-eu-eps"
          ]
        },
        "code": {
          "coding": [
            {
              "code": "716186003",
              "system": "http://snomed.info/sct",
              "display": "No known allergy (situation)"
            }
          ]
        },
        "patient": {
          "reference": "Patient/dfeb1a09-8947-4d88-84aa-acf090a51696",
          "display": "Vicente Ferreira"
        },
        "_onsetDateTime": {
          "extension": [
            {
              "url": "http://hl7.org/fhir/StructureDefinition/data-absent-reason",
              "valueCode": "unknown"
            }
          ]
        }
      }
    },
    {
      "fullUrl": "urn:uuid:4107ef48-84ff-4996-ab7a-ba63540cd106",
      "resource": {
        "resourceType": "Procedure",
        "id": "4107ef48-84ff-4996-ab7a-ba63540cd106",
        "meta": {
          "profile": [
            "http://hl7.org/fhir/uv/ips/StructureDefinition/Procedure-uv-ips"
          ]
        },
        "code": {
          "coding": [
            {
              "code": "103697008",
              "system": "http://snomed.info/sct",
              "display": "Patient referral for dental care (procedure)"
            }
          ],
          "text": "Patient referral for dental care"
        },
        "reasonCode": [
          {
            "coding": [
              {
                "code": "66383009",
                "system": "http://snomed.info/sct",
                "display": "Gingivitis (disorder)"
              }
            ]
          }
        ],
        "status": "completed",
        "subject": {
          "reference": "Patient/dfeb1a09-8947-4d88-84aa-acf090a51696",
          "display": "Vicente Ferreira"
        },
        "performedDateTime": "2025-03-04"
      }
    },
    {
      "fullUrl": "urn:uuid:30c656ca-6081-4435-b6fb-a0741fb550e4",
      "resource": {
        "resourceType": "Procedure",
        "id": "30c656ca-6081-4435-b6fb-a0741fb550e4",
        "meta": {
          "profile": [
            "http://hl7.org/fhir/uv/ips/StructureDefinition/Procedure-uv-ips"
          ]
        },
        "code": {
          "coding": [
            {
              "code": "171207006",
              "system": "http://snomed.info/sct",
              "display": "Depression screening (procedure)"
            }
          ],
          "text": "Depression screening"
        },
        "status": "completed",
        "subject": {
          "reference": "Patient/dfeb1a09-8947-4d88-84aa-acf090a51696",
          "display": "Vicente Ferreira"
        },
        "performedDateTime": "2025-03-04"
      }
    },
    {
      "fullUrl": "urn:uuid:d6669a75-1a50-4af0-9bba-295378e6f3b4",
      "resource": {
        "resourceType": "Procedure",
        "id": "d6669a75-1a50-4af0-9bba-295378e6f3b4",
        "meta": {
          "profile": [
            "http://hl7.org/fhir/uv/ips/StructureDefinition/Procedure-uv-ips"
          ]
        },
        "code": {
          "coding": [
            {
              "code": "710824005",
              "system": "http://snomed.info/sct",
              "display": "Assessment of health and social care needs (procedure)"
            }
          ],
          "text": "Assessment of health and social care needs"
        },
        "status": "completed",
        "subject": {
          "reference": "Patient/dfeb1a09-8947-4d88-84aa-acf090a51696",
          "display": "Vicente Ferreira"
        },
        "performedDateTime": "2025-03-04"
      }
    },
    {
      "fullUrl": "urn:uuid:c0841b10-a007-48b6-a3f7-954189694c50",
      "resource": {
        "resourceType": "Procedure",
        "id": "c0841b10-a007-48b6-a3f7-954189694c50",
        "meta": {
          "profile": [
            "http://hl7.org/fhir/uv/ips/StructureDefinition/Procedure-uv-ips"
          ]
        },
        "code": {
          "coding": [
            {
              "code": "710841007",
              "system": "http://snomed.info/sct",
              "display": "Assessment of anxiety (procedure)"
            }
          ],
          "text": "Assessment of anxiety"
        },
        "status": "completed",
        "subject": {
          "reference": "Patient/dfeb1a09-8947-4d88-84aa-acf090a51696",
          "display": "Vicente Ferreira"
        },
        "performedDateTime": "2025-02-04"
      }
    },
    {
      "fullUrl": "urn:uuid:847b43a8-5188-4ac8-8c75-8bfa9cf5a413",
      "resource": {
        "resourceType": "Procedure",
        "id": "847b43a8-5188-4ac8-8c75-8bfa9cf5a413",
        "meta": {
          "profile": [
            "http://hl7.org/fhir/uv/ips/StructureDefinition/Procedure-uv-ips"
          ]
        },
        "code": {
          "coding": [
            {
              "code": "713106006",
              "system": "http://snomed.info/sct",
              "display": "Screening for drug abuse (procedure)"
            }
          ],
          "text": "Screening for drug abuse"
        },
        "status": "completed",
        "subject": {
          "reference": "Patient/dfeb1a09-8947-4d88-84aa-acf090a51696",
          "display": "Vicente Ferreira"
        },
        "performedDateTime": "2025-02-04"
      }
    },
    {
      "fullUrl": "urn:uuid:020a691e-270c-472d-86cb-ff7487dd8c95",
      "resource": {
        "resourceType": "Procedure",
        "id": "020a691e-270c-472d-86cb-ff7487dd8c95",
        "meta": {
          "profile": [
            "http://hl7.org/fhir/uv/ips/StructureDefinition/Procedure-uv-ips"
          ]
        },
        "code": {
          "coding": [
            {
              "code": "762993000",
              "system": "http://snomed.info/sct",
              "display": "Assessment using Morse Fall Scale (procedure)"
            }
          ],
          "text": "Assessment using Morse Fall Scale"
        },
        "status": "completed",
        "subject": {
          "reference": "Patient/dfeb1a09-8947-4d88-84aa-acf090a51696",
          "display": "Vicente Ferreira"
        },
        "performedDateTime": "2025-02-04"
      }
    },
    {
      "fullUrl": "urn:uuid:1e19edbb-738f-4c9f-a986-d2008c493908",
      "resource": {
        "resourceType": "Procedure",
        "id": "1e19edbb-738f-4c9f-a986-d2008c493908",
        "meta": {
          "profile": [
            "http://hl7.org/fhir/uv/ips/StructureDefinition/Procedure-uv-ips"
          ]
        },
        "code": {
          "coding": [
            {
              "code": "428211000124100",
              "system": "http://snomed.info/sct",
              "display": "Assessment of substance use (procedure)"
            }
          ],
          "text": "Assessment of substance use"
        },
        "status": "completed",
        "subject": {
          "reference": "Patient/dfeb1a09-8947-4d88-84aa-acf090a51696",
          "display": "Vicente Ferreira"
        },
        "performedDateTime": "2025-02-04"
      }
    },
    {
      "fullUrl": "urn:uuid:e03ef944-83d9-4186-9726-2fd751f23a76",
      "resource": {
        "resourceType": "Procedure",
        "id": "e03ef944-83d9-4186-9726-2fd751f23a76",
        "meta": {
          "profile": [
            "http://hl7.org/fhir/uv/ips/StructureDefinition/Procedure-uv-ips"
          ]
        },
        "code": {
          "coding": [
            {
              "code": "866148006",
              "system": "http://snomed.info/sct",
              "display": "Screening for domestic abuse (procedure)"
            }
          ],
          "text": "Screening for domestic abuse"
        },
        "status": "completed",
        "subject": {
          "reference": "Patient/dfeb1a09-8947-4d88-84aa-acf090a51696",
          "display": "Vicente Ferreira"
        },
        "performedDateTime": "2025-01-14"
      }
    },
    {
      "fullUrl": "urn:uuid:da3062b3-6249-4a52-b4df-d27264eb66a2",
      "resource": {
        "resourceType": "Procedure",
        "id": "da3062b3-6249-4a52-b4df-d27264eb66a2",
        "meta": {
          "profile": [
            "http://hl7.org/fhir/uv/ips/StructureDefinition/Procedure-uv-ips"
          ]
        },
        "code": {
          "coding": [
            {
              "code": "430193006",
              "system": "http://snomed.info/sct",
              "display": "Medication reconciliation (procedure)"
            }
          ],
          "text": "Medication reconciliation"
        },
        "status": "completed",
        "subject": {
          "reference": "Patient/dfeb1a09-8947-4d88-84aa-acf090a51696",
          "display": "Vicente Ferreira"
        },
        "performedDateTime": "2025-01-07"
      }
    },
    {
      "fullUrl": "urn:uuid:88f74dce-88d2-4771-bdf8-9e26aeadef4f",
      "resource": {
        "resourceType": "Procedure",
        "id": "88f74dce-88d2-4771-bdf8-9e26aeadef4f",
        "meta": {
          "profile": [
            "http://hl7.org/fhir/uv/ips/StructureDefinition/Procedure-uv-ips"
          ]
        },
        "code": {
          "coding": [
            {
              "code": "763302001",
              "system": "http://snomed.info/sct",
              "display": "Assessment using Alcohol Use Disorders Identification Test - Consumption (procedure)"
            }
          ],
          "text": "Assessment using AUDIT-C (Alcohol Use Disorders Identification Test - Consumption)"
        },
        "status": "completed",
        "subject": {
          "reference": "Patient/dfeb1a09-8947-4d88-84aa-acf090a51696",
          "display": "Vicente Ferreira"
        },
        "performedDateTime": "2023-03-21"
      }
    },
    {
      "fullUrl": "urn:uuid:d57c440e-9dbe-4f59-b5e3-8e319d82069f",
      "resource": {
        "resourceType": "Procedure",
        "id": "d57c440e-9dbe-4f59-b5e3-8e319d82069f",
        "meta": {
          "profile": [
            "http://hl7.org/fhir/uv/ips/StructureDefinition/Procedure-uv-ips"
          ]
        },
        "code": {
          "coding": [
            {
              "code": "417511005",
              "system": "http://snomed.info/sct",
              "display": "Referral to home health care service (procedure)"
            }
          ],
          "text": "Referral to home health care service"
        },
        "status": "completed",
        "subject": {
          "reference": "Patient/dfeb1a09-8947-4d88-84aa-acf090a51696",
          "display": "Vicente Ferreira"
        },
        "performedDateTime": "2019-04-23"
      }
    },
    {
      "fullUrl": "urn:uuid:78dd6080-ef2b-40fb-ae80-a42a4e86fc24",
      "resource": {
        "resourceType": "Immunization",
        "id": "78dd6080-ef2b-40fb-ae80-a42a4e86fc24",
        "meta": {
          "profile": [
            "http://hl7.org/fhir/uv/ips/StructureDefinition/Immunization-uv-ips"
          ]
        },
        "vaccineCode": {
          "coding": [
            {
              "code": "1181000221105",
              "system": "http://snomed.info/sct",
              "display": "Vaccine product containing Influenza virus antigen"
            },
            {
              "code": "J07BB02",
              "system": "http://www.whocc.no/atc",
              "display": "Influenza, inactivated, split virus"
            },
            {
              "code": "140",
              "system": "http://hl7.org/fhir/sid/cvx",
              "display": "Influenza  seasonal  injectable  preservative free"
            }
          ],
          "text": "Influenza virus antigen only vaccine product"
        },
        "site": {
          "coding": [
            {
              "code": "73776007",
              "system": "http://snomed.info/sct",
              "display": "Structure of muscle of upper arm"
            }
          ],
          "text": "Structure of muscle of upper arm"
        },
        "route": {
          "coding": [
            {
              "code": "78421000",
              "system": "http://snomed.info/sct",
              "display": "Intramuscular route"
            }
          ],
          "text": "Intramuscular route"
        },
        "status": "completed",
        "patient": {
          "reference": "Patient/dfeb1a09-8947-4d88-84aa-acf090a51696",
          "display": "Vicente Ferreira"
        },
        "occurrenceDateTime": "2024-12-03",
        "lotNumber": "CU-xf9Vvv6fe",
        "expirationDate": "2025-03-31"
      }
    },
    {
      "fullUrl": "urn:uuid:3656b0cb-fb7d-4e3f-93ea-8e40826173ae",
      "resource": {
        "resourceType": "Immunization",
        "id": "3656b0cb-fb7d-4e3f-93ea-8e40826173ae",
        "meta": {
          "profile": [
            "http://hl7.org/fhir/uv/ips/StructureDefinition/Immunization-uv-ips"
          ]
        },
        "vaccineCode": {
          "coding": [
            {
              "code": "1119349007",
              "system": "http://snomed.info/sct",
              "display": "Vaccine product containing SARS-CoV-2 mRNA"
            },
            {
              "code": "J07BX03",
              "system": "http://www.whocc.no/atc",
              "display": "COVID-19 mRNA vaccines"
            },
            {
              "code": "208",
              "system": "http://hl7.org/fhir/sid/cvx",
              "display": "COVID-19  mRNA  LNP-S  PF  30 mcg/0.3 mL dose"
            }
          ],
          "text": "SARS-CoV-2 mRNA vaccine"
        },
        "site": {
          "coding": [
            {
              "code": "73776007",
              "system": "http://snomed.info/sct",
              "display": "Structure of muscle of upper arm"
            }
          ],
          "text": "Structure of muscle of upper arm"
        },
        "route": {
          "coding": [
            {
              "code": "78421000",
              "system": "http://snomed.info/sct",
              "display": "Intramuscular route"
            }
          ],
          "text": "Intramuscular route"
        },
        "status": "completed",
        "patient": {
          "reference": "Patient/dfeb1a09-8947-4d88-84aa-acf090a51696",
          "display": "Vicente Ferreira"
        },
        "occurrenceDateTime": "2021-03-02",
        "lotNumber": "AE-LKmdNuI",
        "expirationDate": "2021-11-09"
      }
    },
    {
      "fullUrl": "urn:uuid:b4416770-b43b-4be0-b3d5-b8d002028572",
      "resource": {
        "resourceType": "Immunization",
        "id": "b4416770-b43b-4be0-b3d5-b8d002028572",
        "meta": {
          "profile": [
            "http://hl7.org/fhir/uv/ips/StructureDefinition/Immunization-uv-ips"
          ]
        },
        "vaccineCode": {
          "coding": [
            {
              "code": "777725002",
              "system": "http://snomed.info/sct",
              "display": "Vaccine product containing only Clostridium tetani toxoid antigen adsorbed"
            },
            {
              "code": "J07AM51",
              "system": "http://www.whocc.no/atc",
              "display": "Diphtheria-tetanus vaccines, adult type"
            },
            {
              "code": "113",
              "system": "http://hl7.org/fhir/sid/cvx",
              "display": "Td (adult)  5 Lf tetanus toxoid  preservative free  adsorbed"
            }
          ],
          "text": "Clostridium tetani toxoid antigen adsorbed only vaccine product"
        },
        "site": {
          "coding": [
            {
              "code": "73776007",
              "system": "http://snomed.info/sct",
              "display": "Structure of muscle of upper arm"
            }
          ],
          "text": "Structure of muscle of upper arm"
        },
        "route": {
          "coding": [
            {
              "code": "78421000",
              "system": "http://snomed.info/sct",
              "display": "Intramuscular route"
            }
          ],
          "text": "Intramuscular route"
        },
        "status": "completed",
        "patient": {
          "reference": "Patient/dfeb1a09-8947-4d88-84aa-acf090a51696",
          "display": "Vicente Ferreira"
        },
        "occurrenceDateTime": "2018-07-17",
        "lotNumber": "CY-8viPZ",
        "expirationDate": "2018-11-08"
      }
    }
  ],
  "type": "document",
  "timestamp": "2025-06-16T17:28:57Z"
}
