{
  "resourceType": "Bundle",
  "id": "Instance-Bundle-c25e02a1-61eb-455f-8e28-73ed31121e04",
  "meta": {
    "profile": [
      "http://hl7.eu/fhir/eps/StructureDefinition/bundle-eu-eps"
    ]
  },
  "identifier": {
    "assigner": {
      "display": "HL7 Europe"
    },
    "system": "urn:oid:2.16.840.1.113883.2.51.999",
    "value": "9465fcb3-4b81-42ab-bd14-ab6bcd8d5d3d"
  },
  "entry": [
    {
      "fullUrl": "urn:uuid:83cf82a1-2e07-40a5-a282-4b6b91763f83",
      "resource": {
        "resourceType": "Composition",
        "id": "83cf82a1-2e07-40a5-a282-4b6b91763f83",
        "meta": {
          "profile": [
            "http://hl7.eu/fhir/eps/StructureDefinition/composition-eu-eps"
          ]
        },
        "identifier": {
          "assigner": {
            "display": "HL7 Europe"
          },
          "system": "urn:oid:2.16.840.1.113883.2.51.999",
          "value": "9e97a4e5-6900-427b-b3ec-d5952d5b95d9"
        },
        "type": {
          "coding": [
            {
              "system": "http://loinc.org",
              "code": "60591-5",
              "display": "European Patient Summary"
            }
          ],
          "text": "European Patient Summary"
        },
        "author": [
          {
            "reference": "urn:uuid:855b8011-d9a9-475d-a102-69caa1bf5544"
          }
        ],
        "section": [
          {
            "text": {
              "status": "generated",
              "div": "<div xmlns=\"http://www.w3.org/1999/xhtml\"><table class=\"hl7__ips\"><tr><th>Condition</th><th>Onset Date</th><th>Status</th></tr><tr><td>Acute ST segment elevation myocardial infarction</td><td><span class=\"nb\">2023-03-20</span></td><td>active</td></tr><tr><td>Sepsis</td><td><span class=\"nb\">1998-12-18</span></td><td>active</td></tr><tr><td><span class=\"grayedout\">Myocardial infarction</span></td><td><span class=\"nb\">2023-03-20</span></td><td><span class=\"grayedout\">inactive</span></td></tr><tr><td><span class=\"grayedout\">Fracture of rib</span></td><td><span class=\"nb\">2023-01-09</span></td><td><span class=\"grayedout\">inactive</span></td></tr><tr><td><span class=\"grayedout\">Fracture of bone</span></td><td><span class=\"nb\">2023-01-09</span></td><td><span class=\"grayedout\">inactive</span></td></tr><tr><td><span class=\"grayedout\">Primary dental caries</span></td><td><span class=\"nb\">2021-11-26</span></td><td><span class=\"grayedout\">inactive</span></td></tr><tr><td><span class=\"grayedout\">Viral sinusitis</span></td><td><span class=\"nb\">2020-11-20</span></td><td><span class=\"grayedout\">inactive</span></td></tr><tr><td><span class=\"grayedout\">Viral sinusitis</span></td><td><span class=\"nb\">2019-06-28</span></td><td><span class=\"grayedout\">inactive</span></td></tr><tr><td><span class=\"grayedout\">Primary dental caries</span></td><td><span class=\"nb\">2018-11-09</span></td><td><span class=\"grayedout\">inactive</span></td></tr><tr><td><span class=\"grayedout\">Gingivitis</span></td><td><span class=\"nb\">2018-10-26</span></td><td><span class=\"grayedout\">inactive</span></td></tr><tr><td><span class=\"grayedout\">Gingival disease</span></td><td><span class=\"nb\">2017-11-03</span></td><td><span class=\"grayedout\">inactive</span></td></tr><tr><td><span class=\"grayedout\">Gingivitis</span></td><td><span class=\"nb\">2017-10-20</span></td><td><span class=\"grayedout\">inactive</span></td></tr></table></div>"
            },
            "entry": [
              {
                "reference": "urn:uuid:7e618e0f-2adb-493f-ba50-845bf8cb0abe"
              },
              {
                "reference": "urn:uuid:bcb8877f-ada5-476c-bcc2-697b3a2a0a53"
              },
              {
                "reference": "urn:uuid:62e4c7a4-9d23-4f00-a0a4-bd1eb65f6d60"
              },
              {
                "reference": "urn:uuid:6ec18c60-56bb-4f74-befa-68b30f91a837"
              },
              {
                "reference": "urn:uuid:515bbebc-884c-4020-9ee1-a1aef5f00716"
              },
              {
                "reference": "urn:uuid:fee9550e-3000-41c8-b658-d500c334ca8c"
              },
              {
                "reference": "urn:uuid:3930417f-0af3-4cf9-b067-b664fdc4c762"
              },
              {
                "reference": "urn:uuid:bb3c5cfb-06c5-4aaf-8b51-94dff9b4b7f5"
              },
              {
                "reference": "urn:uuid:c6a5c261-2d49-459c-9b6f-1e19ae5477ab"
              },
              {
                "reference": "urn:uuid:f7f0f96c-6b96-41d0-ae3b-742a25c326aa"
              },
              {
                "reference": "urn:uuid:3716467d-2ab6-4256-b93f-44c3621d9e9f"
              },
              {
                "reference": "urn:uuid:91c8f458-f97e-4e96-8db3-bc86aa3ac741"
              }
            ],
            "code": {
              "coding": [
                {
                  "system": "http://loinc.org",
                  "code": "11450-4",
                  "display": "Problem list - Reported"
                }
              ]
            },
            "title": "Problem list"
          },
          {
            "text": {
              "status": "generated",
              "div": "<div xmlns=\"http://www.w3.org/1999/xhtml\"><table class=\"hl7__ips\"><tr><th>Medication</th><th>Since</th><th>Form</th><th>Dosage</th><th>Reason</th></tr><tr><td>Albuterol (as albuterol sulfate) 210 microgram/mL solution for inhalation</td><td><span class=\"nb\">2024-11-29</span></td><td>Solution for inhalation</td><td>2 puffs (420 micrograms) every 4 to 6 hours as needed</td><td>Childhood asthma (disorder)</td></tr><tr><td>budesonide 0.125 MG/ML Inhalation Suspension [Pulmicort]</td><td><span class=\"nb\">2024-11-29</span></td><td></td><td>0.5 mg via nebulizer twice daily</td><td>Childhood asthma (disorder)</td></tr><tr><td>Atenolol 25 mg oral tablet</td><td><span class=\"nb\">2023-03-20</span></td><td>Oral tablet</td><td>1 tablet (25 mg) by mouth once daily</td><td></td></tr><tr><td>aspirin 81 MG Oral Tablet</td><td><span class=\"nb\">2023-03-20</span></td><td></td><td>1 tablet (81 mg) by mouth once daily</td><td></td></tr><tr><td>Ramipril 10 mg oral capsule</td><td><span class=\"nb\">2023-03-20</span></td><td>Oral capsule</td><td>10 mg once daily</td><td></td></tr><tr><td>Prasugrel (as prasugrel hydrochloride) 10 mg oral tablet</td><td><span class=\"nb\">2023-03-20</span></td><td>Oral tablet</td><td>1 tablet (10 mg) once daily</td><td></td></tr><tr><td>Pravastatin sodium 20 mg oral tablet</td><td><span class=\"nb\">2023-03-20</span></td><td>Oral tablet</td><td>1 tablet (20 mg) by mouth once daily</td><td></td></tr></table></div>"
            },
            "entry": [
              {
                "reference": "urn:uuid:419cda55-34f6-4d6d-98e6-275063cb8a41"
              },
              {
                "reference": "urn:uuid:77c6a585-189d-41f2-872f-b4ed982e02d8"
              },
              {
                "reference": "urn:uuid:0ce8f5c3-b41b-4d1d-b712-103bfa612222"
              },
              {
                "reference": "urn:uuid:6d3e3c2e-17e1-4d08-b29e-c777f5e56a25"
              },
              {
                "reference": "urn:uuid:cc518fd8-668a-4398-a731-666ec030dc5c"
              },
              {
                "reference": "urn:uuid:df460591-0b09-4e12-baaf-43d6b7a4dd36"
              },
              {
                "reference": "urn:uuid:3cdc76d7-be9a-4af2-a13a-7125d6227e0b"
              }
            ],
            "code": {
              "coding": [
                {
                  "system": "http://loinc.org",
                  "code": "10160-0",
                  "display": "History of Medication use Narrative"
                }
              ]
            },
            "title": "Medication list"
          },
          {
            "text": {
              "status": "generated",
              "div": "<div xmlns=\"http://www.w3.org/1999/xhtml\"><table class=\"hl7__ips\"><tr><td>No known allergies or intolerances</td></tr></table></div>"
            },
            "entry": [
              {
                "reference": "urn:uuid:6995985a-a98e-4fab-903c-4ca6891028ed"
              }
            ],
            "code": {
              "coding": [
                {
                  "system": "http://loinc.org",
                  "code": "48765-2",
                  "display": "Allergies and adverse reactions Document"
                }
              ]
            },
            "title": "Allergies and Intolerances"
          },
          {
            "text": {
              "status": "generated",
              "div": "<div xmlns=\"http://www.w3.org/1999/xhtml\"><table class=\"hl7__ips\"><tr><th>Procedure</th><th>Date</th><th>Reason</th></tr><tr><td>Laboratory test</td><td><span class=\"nb\">2023-03-20</span></td><td>-</td></tr><tr><td>Electrocardiographic procedure</td><td><span class=\"nb\">2023-03-20</span></td><td>-</td></tr><tr><td>Angiography of coronary artery</td><td><span class=\"nb\">2023-03-20</span></td><td>-</td></tr><tr><td>Diagnostic assessment</td><td><span class=\"nb\">2023-03-20</span></td><td>-</td></tr><tr><td>Oxygen administration by mask</td><td><span class=\"nb\">2023-03-20</span></td><td>-</td></tr><tr><td>Plain X-ray of chest</td><td><span class=\"nb\">2023-03-20</span></td><td>-</td></tr><tr><td>Percutaneous coronary intervention</td><td><span class=\"nb\">2023-03-20</span></td><td>Acute ST segment elevation myocardial infarction (disorder)</td></tr><tr><td>Transthoracic echocardiography</td><td><span class=\"nb\">2023-03-20</span></td><td>-</td></tr><tr><td>Consultation for treatment</td><td><span class=\"nb\">2023-03-20</span></td><td>-</td></tr><tr><td>Assessment of cardiac status using monitoring device</td><td><span class=\"nb\">2023-03-20</span></td><td>-</td></tr><tr><td>Bone immobilization</td><td><span class=\"nb\">2023-01-09</span></td><td>Fracture of rib (disorder)</td></tr><tr><td>Bone density scan</td><td><span class=\"nb\">2023-01-09</span></td><td>Fracture of rib (disorder)</td></tr></table></div>"
            },
            "entry": [
              {
                "reference": "urn:uuid:5a68cd30-f494-4503-ad3f-ad8838292026"
              },
              {
                "reference": "urn:uuid:d57837f5-31de-465d-8878-b264df499cb5"
              },
              {
                "reference": "urn:uuid:8832b5b8-898e-4022-847c-8bbe914fe553"
              },
              {
                "reference": "urn:uuid:7addc3e5-2587-4b7a-8ca9-94d02a50fbf9"
              },
              {
                "reference": "urn:uuid:f44c5ca2-7d43-4ac1-82a5-e0343c3331c4"
              },
              {
                "reference": "urn:uuid:0b90f2af-fb59-49b9-8664-5b13405cf948"
              },
              {
                "reference": "urn:uuid:25363aaf-e9e5-46d6-bed2-e7015f22d0e1"
              },
              {
                "reference": "urn:uuid:5488be41-d7e8-4c69-9e63-af484d4ce0ab"
              },
              {
                "reference": "urn:uuid:6ee58d7c-4435-43e9-8caf-f3032f4ea694"
              },
              {
                "reference": "urn:uuid:b0553051-3c11-4d3e-bfd0-7bd1badaad16"
              },
              {
                "reference": "urn:uuid:463d6400-d6eb-4e23-b554-57340e5eaa7f"
              },
              {
                "reference": "urn:uuid:319c3907-b289-4076-91ce-58a3aee5d311"
              }
            ],
            "code": {
              "coding": [
                {
                  "system": "http://loinc.org",
                  "code": "47519-4",
                  "display": "History of Procedures Document"
                }
              ]
            },
            "title": "Procedure History list"
          },
          {
            "text": {
              "status": "generated",
              "div": "<div xmlns=\"http://www.w3.org/1999/xhtml\"><table class=\"hl7__ips\"><tr><th>Vaccine</th><th>Date</th></tr><tr><td>Influenza virus antigen only vaccine product</td><td><span class=\"nb\">2024-11-29</span></td></tr><tr><td>Streptococcus pneumoniae Danish serotype 1</td><td><span class=\"nb\">2021-11-12</span></td></tr><tr><td>COVID-19 non-replicating viral vector vaccine</td><td><span class=\"nb\">2021-04-16</span></td></tr><tr><td>Streptococcus pneumoniae Danish serotype 1</td><td><span class=\"nb\">2020-11-06</span></td></tr><tr><td>Clostridium tetani toxoid antigen adsorbed only vaccine product</td><td><span class=\"nb\">2016-10-14</span></td></tr></table></div>"
            },
            "entry": [
              {
                "reference": "urn:uuid:2a92a813-aad0-4013-88d4-aee21c71a5c1"
              },
              {
                "reference": "urn:uuid:83fb4de1-93cd-4ecb-8a03-3252c895a696"
              },
              {
                "reference": "urn:uuid:19d79307-acde-4876-bf4c-9c2c14abdb8e"
              },
              {
                "reference": "urn:uuid:a6bb0efe-9247-42d9-82d5-72c4c0c47ccd"
              },
              {
                "reference": "urn:uuid:de69ff09-2d48-4c9f-aecf-674e62da4ba9"
              }
            ],
            "code": {
              "coding": [
                {
                  "system": "http://loinc.org",
                  "code": "11369-6",
                  "display": "History of Immunization Narrative"
                }
              ]
            },
            "title": "Immunizations list"
          }
        ],
        "title": "European Patient Summary",
        "status": "final",
        "subject": {
          "reference": "urn:uuid:f53238cf-712e-480d-a1f2-b42d7555dad8"
        },
        "custodian": {
          "reference": "urn:uuid:29c68fb2-0041-4a2d-936c-81ba68e017f7"
        },
        "date": "2025-06-17T11:26:49Z",
        "confidentiality": "N"
      }
    },
    {
      "fullUrl": "urn:uuid:f53238cf-712e-480d-a1f2-b42d7555dad8",
      "resource": {
        "resourceType": "Patient",
        "id": "f53238cf-712e-480d-a1f2-b42d7555dad8",
        "meta": {
          "profile": [
            "http://hl7.eu/fhir/eps/StructureDefinition/patient-eu-eps"
          ]
        },
        "identifier": [
          {
            "type": {
              "coding": [
                {
                  "code": "NI",
                  "system": "http://terminology.hl7.org/CodeSystem/v2-0203"
                }
              ]
            },
            "system": "http://ec.europa.eu/identifier/eci",
            "value": "7881-148846-5"
          },
          {
            "type": {
              "coding": [
                {
                  "code": "MR",
                  "system": "http://terminology.hl7.org/CodeSystem/v2-0203"
                }
              ]
            },
            "system": "http://local.setting.eu/identifier",
            "value": "a54bb0fb-7e96-9488-505a-a71d58cdae85"
          }
        ],
        "name": [
          {
            "given": [
              "Oskar"
            ],
            "family": "Sæther",
            "text": "Oskar Sæther"
          }
        ],
        "address": [
          {
            "line": [
              "Lunde terrasse 228"
            ],
            "use": "home",
            "type": "physical",
            "city": "Porsgrunn",
            "postalCode": "3941",
            "country": "Norway"
          }
        ],
        "telecom": [
          {
            "system": "phone",
            "value": "+47 976 44 157"
          }
        ],
        "gender": "male",
        "birthDate": "1961-02-02"
      }
    },
    {
      "fullUrl": "urn:uuid:855b8011-d9a9-475d-a102-69caa1bf5544",
      "resource": {
        "resourceType": "PractitionerRole",
        "id": "855b8011-d9a9-475d-a102-69caa1bf5544",
        "meta": {
          "profile": [
            "http://hl7.eu/fhir/base/StructureDefinition/practitionerRole-eu"
          ]
        },
        "practitioner": {
          "reference": "urn:uuid:f8ac3cfa-b434-4d64-97b8-8f855f87fd3f"
        },
        "organization": {
          "reference": "urn:uuid:29c68fb2-0041-4a2d-936c-81ba68e017f7"
        }
      }
    },
    {
      "fullUrl": "urn:uuid:f8ac3cfa-b434-4d64-97b8-8f855f87fd3f",
      "resource": {
        "resourceType": "Practitioner",
        "id": "f8ac3cfa-b434-4d64-97b8-8f855f87fd3f",
        "meta": {
          "profile": [
            "http://hl7.eu/fhir/base/StructureDefinition/practitioner-eu"
          ]
        },
        "name": [
          {
            "prefix": [
              "Dr."
            ],
            "given": [
              "Hel"
            ],
            "family": "Ping"
          }
        ]
      }
    },
    {
      "fullUrl": "urn:uuid:7e618e0f-2adb-493f-ba50-845bf8cb0abe",
      "resource": {
        "resourceType": "Condition",
        "id": "7e618e0f-2adb-493f-ba50-845bf8cb0abe",
        "meta": {
          "profile": [
            "http://hl7.org/fhir/uv/ips/StructureDefinition/Condition-uv-ips"
          ]
        },
        "category": [
          {
            "coding": [
              {
                "code": "problem-list-item",
                "system": "http://terminology.hl7.org/CodeSystem/condition-category",
                "display": "Problem List Item"
              }
            ]
          }
        ],
        "code": {
          "coding": [
            {
              "code": "401303003",
              "system": "http://snomed.info/sct",
              "display": "Acute ST segment elevation myocardial infarction (disorder)"
            }
          ],
          "text": "Acute ST segment elevation myocardial infarction"
        },
        "onsetDateTime": "2023-03-20",
        "clinicalStatus": {
          "coding": [
            {
              "code": "active",
              "system": "http://terminology.hl7.org/CodeSystem/condition-clinical"
            }
          ]
        },
        "subject": {
          "reference": "Patient/f53238cf-712e-480d-a1f2-b42d7555dad8",
          "display": "Oskar Sæther"
        },
        "asserter": {
          "reference": "Practitioner/f8ac3cfa-b434-4d64-97b8-8f855f87fd3f",
          "display": "Dr. Hel Ping"
        }
      }
    },
    {
      "fullUrl": "urn:uuid:bcb8877f-ada5-476c-bcc2-697b3a2a0a53",
      "resource": {
        "resourceType": "Condition",
        "id": "bcb8877f-ada5-476c-bcc2-697b3a2a0a53",
        "meta": {
          "profile": [
            "http://hl7.org/fhir/uv/ips/StructureDefinition/Condition-uv-ips"
          ]
        },
        "category": [
          {
            "coding": [
              {
                "code": "problem-list-item",
                "system": "http://terminology.hl7.org/CodeSystem/condition-category",
                "display": "Problem List Item"
              }
            ]
          }
        ],
        "code": {
          "coding": [
            {
              "code": "91302008",
              "system": "http://snomed.info/sct",
              "display": "Sepsis (disorder)"
            }
          ],
          "text": "Sepsis"
        },
        "onsetDateTime": "1998-12-18",
        "clinicalStatus": {
          "coding": [
            {
              "code": "active",
              "system": "http://terminology.hl7.org/CodeSystem/condition-clinical"
            }
          ]
        },
        "subject": {
          "reference": "Patient/f53238cf-712e-480d-a1f2-b42d7555dad8",
          "display": "Oskar Sæther"
        },
        "asserter": {
          "reference": "Practitioner/f8ac3cfa-b434-4d64-97b8-8f855f87fd3f",
          "display": "Dr. Hel Ping"
        }
      }
    },
    {
      "fullUrl": "urn:uuid:62e4c7a4-9d23-4f00-a0a4-bd1eb65f6d60",
      "resource": {
        "resourceType": "Condition",
        "id": "62e4c7a4-9d23-4f00-a0a4-bd1eb65f6d60",
        "meta": {
          "profile": [
            "http://hl7.org/fhir/uv/ips/StructureDefinition/Condition-uv-ips"
          ]
        },
        "category": [
          {
            "coding": [
              {
                "code": "problem-list-item",
                "system": "http://terminology.hl7.org/CodeSystem/condition-category",
                "display": "Problem List Item"
              }
            ]
          }
        ],
        "code": {
          "coding": [
            {
              "code": "22298006",
              "system": "http://snomed.info/sct",
              "display": "Myocardial infarction (disorder)"
            }
          ],
          "text": "Myocardial infarction"
        },
        "onsetDateTime": "2023-03-20",
        "clinicalStatus": {
          "coding": [
            {
              "code": "inactive",
              "system": "http://terminology.hl7.org/CodeSystem/condition-clinical"
            }
          ]
        },
        "subject": {
          "reference": "Patient/f53238cf-712e-480d-a1f2-b42d7555dad8",
          "display": "Oskar Sæther"
        },
        "asserter": {
          "reference": "Practitioner/f8ac3cfa-b434-4d64-97b8-8f855f87fd3f",
          "display": "Dr. Hel Ping"
        }
      }
    },
    {
      "fullUrl": "urn:uuid:6ec18c60-56bb-4f74-befa-68b30f91a837",
      "resource": {
        "resourceType": "Condition",
        "id": "6ec18c60-56bb-4f74-befa-68b30f91a837",
        "meta": {
          "profile": [
            "http://hl7.org/fhir/uv/ips/StructureDefinition/Condition-uv-ips"
          ]
        },
        "category": [
          {
            "coding": [
              {
                "code": "problem-list-item",
                "system": "http://terminology.hl7.org/CodeSystem/condition-category",
                "display": "Problem List Item"
              }
            ]
          }
        ],
        "code": {
          "coding": [
            {
              "code": "33737001",
              "system": "http://snomed.info/sct",
              "display": "Fracture of rib (disorder)"
            }
          ],
          "text": "Fracture of rib"
        },
        "onsetDateTime": "2023-01-09",
        "clinicalStatus": {
          "coding": [
            {
              "code": "inactive",
              "system": "http://terminology.hl7.org/CodeSystem/condition-clinical"
            }
          ]
        },
        "subject": {
          "reference": "Patient/f53238cf-712e-480d-a1f2-b42d7555dad8",
          "display": "Oskar Sæther"
        },
        "asserter": {
          "reference": "Practitioner/f8ac3cfa-b434-4d64-97b8-8f855f87fd3f",
          "display": "Dr. Hel Ping"
        }
      }
    },
    {
      "fullUrl": "urn:uuid:515bbebc-884c-4020-9ee1-a1aef5f00716",
      "resource": {
        "resourceType": "Condition",
        "id": "515bbebc-884c-4020-9ee1-a1aef5f00716",
        "meta": {
          "profile": [
            "http://hl7.org/fhir/uv/ips/StructureDefinition/Condition-uv-ips"
          ]
        },
        "category": [
          {
            "coding": [
              {
                "code": "problem-list-item",
                "system": "http://terminology.hl7.org/CodeSystem/condition-category",
                "display": "Problem List Item"
              }
            ]
          }
        ],
        "code": {
          "coding": [
            {
              "code": "125605004",
              "system": "http://snomed.info/sct",
              "display": "Fracture of bone (disorder)"
            }
          ],
          "text": "Fracture of bone"
        },
        "onsetDateTime": "2023-01-09",
        "clinicalStatus": {
          "coding": [
            {
              "code": "inactive",
              "system": "http://terminology.hl7.org/CodeSystem/condition-clinical"
            }
          ]
        },
        "subject": {
          "reference": "Patient/f53238cf-712e-480d-a1f2-b42d7555dad8",
          "display": "Oskar Sæther"
        },
        "asserter": {
          "reference": "Practitioner/f8ac3cfa-b434-4d64-97b8-8f855f87fd3f",
          "display": "Dr. Hel Ping"
        }
      }
    },
    {
      "fullUrl": "urn:uuid:fee9550e-3000-41c8-b658-d500c334ca8c",
      "resource": {
        "resourceType": "Condition",
        "id": "fee9550e-3000-41c8-b658-d500c334ca8c",
        "meta": {
          "profile": [
            "http://hl7.org/fhir/uv/ips/StructureDefinition/Condition-uv-ips"
          ]
        },
        "category": [
          {
            "coding": [
              {
                "code": "problem-list-item",
                "system": "http://terminology.hl7.org/CodeSystem/condition-category",
                "display": "Problem List Item"
              }
            ]
          }
        ],
        "code": {
          "coding": [
            {
              "code": "109570002",
              "system": "http://snomed.info/sct",
              "display": "Primary dental caries (disorder)"
            }
          ],
          "text": "Primary dental caries"
        },
        "onsetDateTime": "2021-11-26",
        "clinicalStatus": {
          "coding": [
            {
              "code": "inactive",
              "system": "http://terminology.hl7.org/CodeSystem/condition-clinical"
            }
          ]
        },
        "subject": {
          "reference": "Patient/f53238cf-712e-480d-a1f2-b42d7555dad8",
          "display": "Oskar Sæther"
        },
        "asserter": {
          "reference": "Practitioner/f8ac3cfa-b434-4d64-97b8-8f855f87fd3f",
          "display": "Dr. Hel Ping"
        }
      }
    },
    {
      "fullUrl": "urn:uuid:3930417f-0af3-4cf9-b067-b664fdc4c762",
      "resource": {
        "resourceType": "Condition",
        "id": "3930417f-0af3-4cf9-b067-b664fdc4c762",
        "meta": {
          "profile": [
            "http://hl7.org/fhir/uv/ips/StructureDefinition/Condition-uv-ips"
          ]
        },
        "category": [
          {
            "coding": [
              {
                "code": "problem-list-item",
                "system": "http://terminology.hl7.org/CodeSystem/condition-category",
                "display": "Problem List Item"
              }
            ]
          }
        ],
        "code": {
          "coding": [
            {
              "code": "444814009",
              "system": "http://snomed.info/sct",
              "display": "Viral sinusitis (disorder)"
            }
          ],
          "text": "Viral sinusitis"
        },
        "onsetDateTime": "2020-11-20",
        "clinicalStatus": {
          "coding": [
            {
              "code": "inactive",
              "system": "http://terminology.hl7.org/CodeSystem/condition-clinical"
            }
          ]
        },
        "subject": {
          "reference": "Patient/f53238cf-712e-480d-a1f2-b42d7555dad8",
          "display": "Oskar Sæther"
        },
        "asserter": {
          "reference": "Practitioner/f8ac3cfa-b434-4d64-97b8-8f855f87fd3f",
          "display": "Dr. Hel Ping"
        }
      }
    },
    {
      "fullUrl": "urn:uuid:bb3c5cfb-06c5-4aaf-8b51-94dff9b4b7f5",
      "resource": {
        "resourceType": "Condition",
        "id": "bb3c5cfb-06c5-4aaf-8b51-94dff9b4b7f5",
        "meta": {
          "profile": [
            "http://hl7.org/fhir/uv/ips/StructureDefinition/Condition-uv-ips"
          ]
        },
        "category": [
          {
            "coding": [
              {
                "code": "problem-list-item",
                "system": "http://terminology.hl7.org/CodeSystem/condition-category",
                "display": "Problem List Item"
              }
            ]
          }
        ],
        "code": {
          "coding": [
            {
              "code": "444814009",
              "system": "http://snomed.info/sct",
              "display": "Viral sinusitis (disorder)"
            }
          ],
          "text": "Viral sinusitis"
        },
        "onsetDateTime": "2019-06-28",
        "clinicalStatus": {
          "coding": [
            {
              "code": "inactive",
              "system": "http://terminology.hl7.org/CodeSystem/condition-clinical"
            }
          ]
        },
        "subject": {
          "reference": "Patient/f53238cf-712e-480d-a1f2-b42d7555dad8",
          "display": "Oskar Sæther"
        },
        "asserter": {
          "reference": "Practitioner/f8ac3cfa-b434-4d64-97b8-8f855f87fd3f",
          "display": "Dr. Hel Ping"
        }
      }
    },
    {
      "fullUrl": "urn:uuid:c6a5c261-2d49-459c-9b6f-1e19ae5477ab",
      "resource": {
        "resourceType": "Condition",
        "id": "c6a5c261-2d49-459c-9b6f-1e19ae5477ab",
        "meta": {
          "profile": [
            "http://hl7.org/fhir/uv/ips/StructureDefinition/Condition-uv-ips"
          ]
        },
        "category": [
          {
            "coding": [
              {
                "code": "problem-list-item",
                "system": "http://terminology.hl7.org/CodeSystem/condition-category",
                "display": "Problem List Item"
              }
            ]
          }
        ],
        "code": {
          "coding": [
            {
              "code": "109570002",
              "system": "http://snomed.info/sct",
              "display": "Primary dental caries (disorder)"
            }
          ],
          "text": "Primary dental caries"
        },
        "onsetDateTime": "2018-11-09",
        "clinicalStatus": {
          "coding": [
            {
              "code": "inactive",
              "system": "http://terminology.hl7.org/CodeSystem/condition-clinical"
            }
          ]
        },
        "subject": {
          "reference": "Patient/f53238cf-712e-480d-a1f2-b42d7555dad8",
          "display": "Oskar Sæther"
        },
        "asserter": {
          "reference": "Practitioner/f8ac3cfa-b434-4d64-97b8-8f855f87fd3f",
          "display": "Dr. Hel Ping"
        }
      }
    },
    {
      "fullUrl": "urn:uuid:f7f0f96c-6b96-41d0-ae3b-742a25c326aa",
      "resource": {
        "resourceType": "Condition",
        "id": "f7f0f96c-6b96-41d0-ae3b-742a25c326aa",
        "meta": {
          "profile": [
            "http://hl7.org/fhir/uv/ips/StructureDefinition/Condition-uv-ips"
          ]
        },
        "category": [
          {
            "coding": [
              {
                "code": "problem-list-item",
                "system": "http://terminology.hl7.org/CodeSystem/condition-category",
                "display": "Problem List Item"
              }
            ]
          }
        ],
        "code": {
          "coding": [
            {
              "code": "66383009",
              "system": "http://snomed.info/sct",
              "display": "Gingivitis (disorder)"
            }
          ],
          "text": "Gingivitis"
        },
        "onsetDateTime": "2018-10-26",
        "clinicalStatus": {
          "coding": [
            {
              "code": "inactive",
              "system": "http://terminology.hl7.org/CodeSystem/condition-clinical"
            }
          ]
        },
        "subject": {
          "reference": "Patient/f53238cf-712e-480d-a1f2-b42d7555dad8",
          "display": "Oskar Sæther"
        },
        "asserter": {
          "reference": "Practitioner/f8ac3cfa-b434-4d64-97b8-8f855f87fd3f",
          "display": "Dr. Hel Ping"
        }
      }
    },
    {
      "fullUrl": "urn:uuid:3716467d-2ab6-4256-b93f-44c3621d9e9f",
      "resource": {
        "resourceType": "Condition",
        "id": "3716467d-2ab6-4256-b93f-44c3621d9e9f",
        "meta": {
          "profile": [
            "http://hl7.org/fhir/uv/ips/StructureDefinition/Condition-uv-ips"
          ]
        },
        "category": [
          {
            "coding": [
              {
                "code": "problem-list-item",
                "system": "http://terminology.hl7.org/CodeSystem/condition-category",
                "display": "Problem List Item"
              }
            ]
          }
        ],
        "code": {
          "coding": [
            {
              "code": "18718003",
              "system": "http://snomed.info/sct",
              "display": "Gingival disease (disorder)"
            }
          ],
          "text": "Gingival disease"
        },
        "onsetDateTime": "2017-11-03",
        "clinicalStatus": {
          "coding": [
            {
              "code": "inactive",
              "system": "http://terminology.hl7.org/CodeSystem/condition-clinical"
            }
          ]
        },
        "subject": {
          "reference": "Patient/f53238cf-712e-480d-a1f2-b42d7555dad8",
          "display": "Oskar Sæther"
        },
        "asserter": {
          "reference": "Practitioner/f8ac3cfa-b434-4d64-97b8-8f855f87fd3f",
          "display": "Dr. Hel Ping"
        }
      }
    },
    {
      "fullUrl": "urn:uuid:91c8f458-f97e-4e96-8db3-bc86aa3ac741",
      "resource": {
        "resourceType": "Condition",
        "id": "91c8f458-f97e-4e96-8db3-bc86aa3ac741",
        "meta": {
          "profile": [
            "http://hl7.org/fhir/uv/ips/StructureDefinition/Condition-uv-ips"
          ]
        },
        "category": [
          {
            "coding": [
              {
                "code": "problem-list-item",
                "system": "http://terminology.hl7.org/CodeSystem/condition-category",
                "display": "Problem List Item"
              }
            ]
          }
        ],
        "code": {
          "coding": [
            {
              "code": "66383009",
              "system": "http://snomed.info/sct",
              "display": "Gingivitis (disorder)"
            }
          ],
          "text": "Gingivitis"
        },
        "onsetDateTime": "2017-10-20",
        "clinicalStatus": {
          "coding": [
            {
              "code": "inactive",
              "system": "http://terminology.hl7.org/CodeSystem/condition-clinical"
            }
          ]
        },
        "subject": {
          "reference": "Patient/f53238cf-712e-480d-a1f2-b42d7555dad8",
          "display": "Oskar Sæther"
        },
        "asserter": {
          "reference": "Practitioner/f8ac3cfa-b434-4d64-97b8-8f855f87fd3f",
          "display": "Dr. Hel Ping"
        }
      }
    },
    {
      "fullUrl": "urn:uuid:c2d3582c-768b-44b4-8d19-df6451565205",
      "resource": {
        "resourceType": "Medication",
        "id": "c2d3582c-768b-44b4-8d19-df6451565205",
        "meta": {
          "profile": [
            "http://hl7.org/fhir/uv/ips/StructureDefinition/Medication-uv-ips"
          ]
        },
        "code": {
          "coding": [
            {
              "code": "351137",
              "system": "http://www.nlm.nih.gov/research/umls/rxnorm",
              "display": "albuterol 0.21 MG/ML Inhalation Solution"
            },
            {
              "code": "375336001",
              "system": "http://snomed.info/sct",
              "display": "Product containing precisely salbutamol (as salbutamol sulfate) 210 microgram/1 milliliter conventional release solution for inhalation (clinical drug)"
            }
          ],
          "text": "Albuterol (as albuterol sulfate) 210 microgram/mL solution for inhalation"
        },
        "form": {
          "coding": [
            {
              "code": "420641004",
              "system": "http://snomed.info/sct",
              "display": "Solution for inhalation"
            }
          ]
        },
        "ingredient": [
          {
            "itemCodeableConcept": {
              "coding": [
                {
                  "code": "48474002",
                  "system": "http://snomed.info/sct",
                  "display": "Albuterol sulfate"
                }
              ]
            },
            "isActive": true
          }
        ]
      }
    },
    {
      "fullUrl": "urn:uuid:419cda55-34f6-4d6d-98e6-275063cb8a41",
      "resource": {
        "resourceType": "MedicationStatement",
        "id": "419cda55-34f6-4d6d-98e6-275063cb8a41",
        "meta": {
          "profile": [
            "http://hl7.org/fhir/uv/ips/StructureDefinition/MedicationStatement-uv-ips"
          ]
        },
        "effectivePeriod": {
          "start": "2024-11-29"
        },
        "dosage": [
          {
            "doseAndRate": [
              {
                "doseQuantity": {
                  "value": 420,
                  "unit": "mcg",
                  "code": "ug"
                }
              }
            ],
            "timing": {
              "repeat": {
                "frequency": 1,
                "period": 4,
                "periodUnit": "h"
              }
            },
            "text": "2 puffs (420 micrograms) every 4 to 6 hours as needed",
            "asNeededBoolean": true
          }
        ],
        "reasonCode": [
          {
            "coding": [
              {
                "code": "233678006",
                "system": "http://snomed.info/sct",
                "display": "Childhood asthma (disorder)"
              }
            ]
          }
        ],
        "status": "active",
        "medicationReference": {
          "reference": "Medication/c2d3582c-768b-44b4-8d19-df6451565205",
          "display": "Albuterol (as albuterol sulfate) 210 microgram/mL solution for inhalation"
        },
        "subject": {
          "reference": "Patient/f53238cf-712e-480d-a1f2-b42d7555dad8",
          "display": "Oskar Sæther"
        }
      }
    },
    {
      "fullUrl": "urn:uuid:1fc307d0-15ab-42a7-935f-1ef65b98246d",
      "resource": {
        "resourceType": "Medication",
        "id": "1fc307d0-15ab-42a7-935f-1ef65b98246d",
        "meta": {
          "profile": [
            "http://hl7.org/fhir/uv/ips/StructureDefinition/Medication-uv-ips"
          ]
        },
        "code": {
          "coding": [
            {
              "code": "616830",
              "system": "http://www.nlm.nih.gov/research/umls/rxnorm",
              "display": "budesonide 0.125 MG/ML Inhalation Suspension [Pulmicort]"
            }
          ],
          "text": "budesonide 0.125 MG/ML Inhalation Suspension [Pulmicort]"
        }
      }
    },
    {
      "fullUrl": "urn:uuid:77c6a585-189d-41f2-872f-b4ed982e02d8",
      "resource": {
        "resourceType": "MedicationStatement",
        "id": "77c6a585-189d-41f2-872f-b4ed982e02d8",
        "meta": {
          "profile": [
            "http://hl7.org/fhir/uv/ips/StructureDefinition/MedicationStatement-uv-ips"
          ]
        },
        "effectivePeriod": {
          "start": "2024-11-29"
        },
        "dosage": [
          {
            "doseAndRate": [
              {
                "doseQuantity": {
                  "value": 0.5,
                  "unit": "mg",
                  "code": "mg"
                }
              }
            ],
            "timing": {
              "repeat": {
                "frequency": 2,
                "period": 1,
                "periodUnit": "d"
              }
            },
            "text": "0.5 mg via nebulizer twice daily",
            "asNeededBoolean": false
          }
        ],
        "reasonCode": [
          {
            "coding": [
              {
                "code": "233678006",
                "system": "http://snomed.info/sct",
                "display": "Childhood asthma (disorder)"
              }
            ]
          }
        ],
        "status": "active",
        "medicationReference": {
          "reference": "Medication/1fc307d0-15ab-42a7-935f-1ef65b98246d",
          "display": "budesonide 0.125 MG/ML Inhalation Suspension [Pulmicort]"
        },
        "subject": {
          "reference": "Patient/f53238cf-712e-480d-a1f2-b42d7555dad8",
          "display": "Oskar Sæther"
        }
      }
    },
    {
      "fullUrl": "urn:uuid:f1f755c2-5c24-47d5-89f0-f23a328d11ff",
      "resource": {
        "resourceType": "Medication",
        "id": "f1f755c2-5c24-47d5-89f0-f23a328d11ff",
        "meta": {
          "profile": [
            "http://hl7.org/fhir/uv/ips/StructureDefinition/Medication-uv-ips"
          ]
        },
        "code": {
          "coding": [
            {
              "code": "197380",
              "system": "http://www.nlm.nih.gov/research/umls/rxnorm",
              "display": "atenolol 25 MG Oral Tablet"
            },
            {
              "code": "318434003",
              "system": "http://snomed.info/sct",
              "display": "Product containing precisely atenolol 25 milligram/1 each conventional release oral tablet (clinical drug)"
            }
          ],
          "text": "Atenolol 25 mg oral tablet"
        },
        "form": {
          "coding": [
            {
              "code": "421026006",
              "system": "http://snomed.info/sct",
              "display": "Oral tablet"
            }
          ]
        },
        "ingredient": [
          {
            "itemCodeableConcept": {
              "coding": [
                {
                  "code": "387506000",
                  "system": "http://snomed.info/sct",
                  "display": "Atenolol"
                }
              ]
            },
            "isActive": true
          }
        ]
      }
    },
    {
      "fullUrl": "urn:uuid:0ce8f5c3-b41b-4d1d-b712-103bfa612222",
      "resource": {
        "resourceType": "MedicationStatement",
        "id": "0ce8f5c3-b41b-4d1d-b712-103bfa612222",
        "meta": {
          "profile": [
            "http://hl7.org/fhir/uv/ips/StructureDefinition/MedicationStatement-uv-ips"
          ]
        },
        "effectivePeriod": {
          "start": "2023-03-20"
        },
        "dosage": [
          {
            "doseAndRate": [
              {
                "doseQuantity": {
                  "value": 1,
                  "unit": "{tbl}",
                  "code": "{tbl}"
                }
              }
            ],
            "timing": {
              "repeat": {
                "frequency": 1,
                "period": 1,
                "periodUnit": "d"
              }
            },
            "text": "1 tablet (25 mg) by mouth once daily",
            "asNeededBoolean": false
          }
        ],
        "status": "active",
        "medicationReference": {
          "reference": "Medication/f1f755c2-5c24-47d5-89f0-f23a328d11ff",
          "display": "Atenolol 25 mg oral tablet"
        },
        "subject": {
          "reference": "Patient/f53238cf-712e-480d-a1f2-b42d7555dad8",
          "display": "Oskar Sæther"
        }
      }
    },
    {
      "fullUrl": "urn:uuid:90a865dc-a165-4593-92e1-3ae441717cc4",
      "resource": {
        "resourceType": "Medication",
        "id": "90a865dc-a165-4593-92e1-3ae441717cc4",
        "meta": {
          "profile": [
            "http://hl7.org/fhir/uv/ips/StructureDefinition/Medication-uv-ips"
          ]
        },
        "code": {
          "coding": [
            {
              "code": "243670",
              "system": "http://www.nlm.nih.gov/research/umls/rxnorm",
              "display": "aspirin 81 MG Oral Tablet"
            }
          ],
          "text": "aspirin 81 MG Oral Tablet"
        }
      }
    },
    {
      "fullUrl": "urn:uuid:6d3e3c2e-17e1-4d08-b29e-c777f5e56a25",
      "resource": {
        "resourceType": "MedicationStatement",
        "id": "6d3e3c2e-17e1-4d08-b29e-c777f5e56a25",
        "meta": {
          "profile": [
            "http://hl7.org/fhir/uv/ips/StructureDefinition/MedicationStatement-uv-ips"
          ]
        },
        "effectivePeriod": {
          "start": "2023-03-20"
        },
        "dosage": [
          {
            "doseAndRate": [
              {
                "doseQuantity": {
                  "value": 1,
                  "unit": "{tbl}",
                  "code": "{tbl}"
                }
              }
            ],
            "timing": {
              "repeat": {
                "frequency": 1,
                "period": 1,
                "periodUnit": "d"
              }
            },
            "text": "1 tablet (81 mg) by mouth once daily",
            "asNeededBoolean": false
          }
        ],
        "status": "active",
        "medicationReference": {
          "reference": "Medication/90a865dc-a165-4593-92e1-3ae441717cc4",
          "display": "aspirin 81 MG Oral Tablet"
        },
        "subject": {
          "reference": "Patient/f53238cf-712e-480d-a1f2-b42d7555dad8",
          "display": "Oskar Sæther"
        }
      }
    },
    {
      "fullUrl": "urn:uuid:71634030-fb59-431a-bd33-f95a08060e77",
      "resource": {
        "resourceType": "Medication",
        "id": "71634030-fb59-431a-bd33-f95a08060e77",
        "meta": {
          "profile": [
            "http://hl7.org/fhir/uv/ips/StructureDefinition/Medication-uv-ips"
          ]
        },
        "code": {
          "coding": [
            {
              "code": "261962",
              "system": "http://www.nlm.nih.gov/research/umls/rxnorm",
              "display": "ramipril 10 MG Oral Capsule"
            },
            {
              "code": "318906001",
              "system": "http://snomed.info/sct",
              "display": "Product containing precisely ramipril 10 milligram/1 each conventional release oral capsule (clinical drug)"
            }
          ],
          "text": "Ramipril 10 mg oral capsule"
        },
        "form": {
          "coding": [
            {
              "code": "420692007",
              "system": "http://snomed.info/sct",
              "display": "Oral capsule"
            }
          ]
        },
        "ingredient": [
          {
            "itemCodeableConcept": {
              "coding": [
                {
                  "code": "386872004",
                  "system": "http://snomed.info/sct",
                  "display": "Ramipril"
                }
              ]
            },
            "isActive": true
          }
        ]
      }
    },
    {
      "fullUrl": "urn:uuid:cc518fd8-668a-4398-a731-666ec030dc5c",
      "resource": {
        "resourceType": "MedicationStatement",
        "id": "cc518fd8-668a-4398-a731-666ec030dc5c",
        "meta": {
          "profile": [
            "http://hl7.org/fhir/uv/ips/StructureDefinition/MedicationStatement-uv-ips"
          ]
        },
        "effectivePeriod": {
          "start": "2023-03-20"
        },
        "dosage": [
          {
            "doseAndRate": [
              {
                "doseQuantity": {
                  "value": 10,
                  "unit": "mg",
                  "code": "mg"
                }
              }
            ],
            "timing": {
              "repeat": {
                "frequency": 1,
                "period": 1,
                "periodUnit": "d"
              }
            },
            "text": "10 mg once daily",
            "asNeededBoolean": false
          }
        ],
        "status": "active",
        "medicationReference": {
          "reference": "Medication/71634030-fb59-431a-bd33-f95a08060e77",
          "display": "Ramipril 10 mg oral capsule"
        },
        "subject": {
          "reference": "Patient/f53238cf-712e-480d-a1f2-b42d7555dad8",
          "display": "Oskar Sæther"
        }
      }
    },
    {
      "fullUrl": "urn:uuid:91d810bf-71b0-4fbe-b5b3-fe04223c3aea",
      "resource": {
        "resourceType": "Medication",
        "id": "91d810bf-71b0-4fbe-b5b3-fe04223c3aea",
        "meta": {
          "profile": [
            "http://hl7.org/fhir/uv/ips/StructureDefinition/Medication-uv-ips"
          ]
        },
        "code": {
          "coding": [
            {
              "code": "855812",
              "system": "http://www.nlm.nih.gov/research/umls/rxnorm",
              "display": "prasugrel 10 MG Oral Tablet"
            },
            {
              "code": "783368008",
              "system": "http://snomed.info/sct",
              "display": "Product containing precisely prasugrel (as prasugrel hydrochloride) 10 milligram/1 each conventional release oral tablet (clinical drug)"
            }
          ],
          "text": "Prasugrel (as prasugrel hydrochloride) 10 mg oral tablet"
        },
        "form": {
          "coding": [
            {
              "code": "421026006",
              "system": "http://snomed.info/sct",
              "display": "Oral tablet"
            }
          ]
        },
        "ingredient": [
          {
            "itemCodeableConcept": {
              "coding": [
                {
                  "code": "735166002",
                  "system": "http://snomed.info/sct",
                  "display": "Prasugrel hydrochloride"
                }
              ]
            },
            "isActive": true
          }
        ]
      }
    },
    {
      "fullUrl": "urn:uuid:df460591-0b09-4e12-baaf-43d6b7a4dd36",
      "resource": {
        "resourceType": "MedicationStatement",
        "id": "df460591-0b09-4e12-baaf-43d6b7a4dd36",
        "meta": {
          "profile": [
            "http://hl7.org/fhir/uv/ips/StructureDefinition/MedicationStatement-uv-ips"
          ]
        },
        "effectivePeriod": {
          "start": "2023-03-20"
        },
        "dosage": [
          {
            "doseAndRate": [
              {
                "doseQuantity": {
                  "value": 1,
                  "unit": "{tbl}",
                  "code": "{tbl}"
                }
              }
            ],
            "timing": {
              "repeat": {
                "frequency": 1,
                "period": 1,
                "periodUnit": "d"
              }
            },
            "text": "1 tablet (10 mg) once daily",
            "asNeededBoolean": false
          }
        ],
        "status": "active",
        "medicationReference": {
          "reference": "Medication/91d810bf-71b0-4fbe-b5b3-fe04223c3aea",
          "display": "Prasugrel (as prasugrel hydrochloride) 10 mg oral tablet"
        },
        "subject": {
          "reference": "Patient/f53238cf-712e-480d-a1f2-b42d7555dad8",
          "display": "Oskar Sæther"
        }
      }
    },
    {
      "fullUrl": "urn:uuid:3304571a-a3ea-4f7c-8a23-52393a0df514",
      "resource": {
        "resourceType": "Medication",
        "id": "3304571a-a3ea-4f7c-8a23-52393a0df514",
        "meta": {
          "profile": [
            "http://hl7.org/fhir/uv/ips/StructureDefinition/Medication-uv-ips"
          ]
        },
        "code": {
          "coding": [
            {
              "code": "904467",
              "system": "http://www.nlm.nih.gov/research/umls/rxnorm",
              "display": "pravastatin sodium 20 MG Oral Tablet"
            },
            {
              "code": "320013003",
              "system": "http://snomed.info/sct",
              "display": "Product containing precisely pravastatin sodium 20 milligram/1 each conventional release oral tablet (clinical drug)"
            }
          ],
          "text": "Pravastatin sodium 20 mg oral tablet"
        },
        "form": {
          "coding": [
            {
              "code": "421026006",
              "system": "http://snomed.info/sct",
              "display": "Oral tablet"
            }
          ]
        },
        "ingredient": [
          {
            "itemCodeableConcept": {
              "coding": [
                {
                  "code": "96306007",
                  "system": "http://snomed.info/sct",
                  "display": "Pravastatin sodium"
                }
              ]
            },
            "isActive": true
          }
        ]
      }
    },
    {
      "fullUrl": "urn:uuid:3cdc76d7-be9a-4af2-a13a-7125d6227e0b",
      "resource": {
        "resourceType": "MedicationStatement",
        "id": "3cdc76d7-be9a-4af2-a13a-7125d6227e0b",
        "meta": {
          "profile": [
            "http://hl7.org/fhir/uv/ips/StructureDefinition/MedicationStatement-uv-ips"
          ]
        },
        "effectivePeriod": {
          "start": "2023-03-20"
        },
        "dosage": [
          {
            "doseAndRate": [
              {
                "doseQuantity": {
                  "value": 1,
                  "unit": "{tbl}",
                  "code": "{tbl}"
                }
              }
            ],
            "timing": {
              "repeat": {
                "frequency": 1,
                "period": 1,
                "periodUnit": "d"
              }
            },
            "text": "1 tablet (20 mg) by mouth once daily",
            "asNeededBoolean": false
          }
        ],
        "status": "active",
        "medicationReference": {
          "reference": "Medication/3304571a-a3ea-4f7c-8a23-52393a0df514",
          "display": "Pravastatin sodium 20 mg oral tablet"
        },
        "subject": {
          "reference": "Patient/f53238cf-712e-480d-a1f2-b42d7555dad8",
          "display": "Oskar Sæther"
        }
      }
    },
    {
      "fullUrl": "urn:uuid:6995985a-a98e-4fab-903c-4ca6891028ed",
      "resource": {
        "resourceType": "AllergyIntolerance",
        "id": "6995985a-a98e-4fab-903c-4ca6891028ed",
        "meta": {
          "profile": [
            "http://hl7.eu/fhir/eps/StructureDefinition/allergyIntolerance-eu-eps"
          ]
        },
        "code": {
          "coding": [
            {
              "code": "716186003",
              "system": "http://snomed.info/sct",
              "display": "No known allergy (situation)"
            }
          ]
        },
        "patient": {
          "reference": "Patient/f53238cf-712e-480d-a1f2-b42d7555dad8",
          "display": "Oskar Sæther"
        },
        "_onsetDateTime": {
          "extension": [
            {
              "url": "http://hl7.org/fhir/StructureDefinition/data-absent-reason",
              "valueCode": "unknown"
            }
          ]
        }
      }
    },
    {
      "fullUrl": "urn:uuid:5a68cd30-f494-4503-ad3f-ad8838292026",
      "resource": {
        "resourceType": "Procedure",
        "id": "5a68cd30-f494-4503-ad3f-ad8838292026",
        "meta": {
          "profile": [
            "http://hl7.org/fhir/uv/ips/StructureDefinition/Procedure-uv-ips"
          ]
        },
        "code": {
          "coding": [
            {
              "code": "15220000",
              "system": "http://snomed.info/sct",
              "display": "Laboratory test (procedure)"
            }
          ],
          "text": "Laboratory test"
        },
        "status": "completed",
        "subject": {
          "reference": "Patient/f53238cf-712e-480d-a1f2-b42d7555dad8",
          "display": "Oskar Sæther"
        },
        "performedDateTime": "2023-03-20"
      }
    },
    {
      "fullUrl": "urn:uuid:d57837f5-31de-465d-8878-b264df499cb5",
      "resource": {
        "resourceType": "Procedure",
        "id": "d57837f5-31de-465d-8878-b264df499cb5",
        "meta": {
          "profile": [
            "http://hl7.org/fhir/uv/ips/StructureDefinition/Procedure-uv-ips"
          ]
        },
        "code": {
          "coding": [
            {
              "code": "29303009",
              "system": "http://snomed.info/sct",
              "display": "Electrocardiographic procedure (procedure)"
            }
          ],
          "text": "Electrocardiographic procedure"
        },
        "status": "completed",
        "subject": {
          "reference": "Patient/f53238cf-712e-480d-a1f2-b42d7555dad8",
          "display": "Oskar Sæther"
        },
        "performedDateTime": "2023-03-20"
      }
    },
    {
      "fullUrl": "urn:uuid:8832b5b8-898e-4022-847c-8bbe914fe553",
      "resource": {
        "resourceType": "Procedure",
        "id": "8832b5b8-898e-4022-847c-8bbe914fe553",
        "meta": {
          "profile": [
            "http://hl7.org/fhir/uv/ips/StructureDefinition/Procedure-uv-ips"
          ]
        },
        "code": {
          "coding": [
            {
              "code": "33367005",
              "system": "http://snomed.info/sct",
              "display": "Angiography of coronary artery (procedure)"
            }
          ],
          "text": "Angiography of coronary artery"
        },
        "status": "completed",
        "subject": {
          "reference": "Patient/f53238cf-712e-480d-a1f2-b42d7555dad8",
          "display": "Oskar Sæther"
        },
        "performedDateTime": "2023-03-20"
      }
    },
    {
      "fullUrl": "urn:uuid:7addc3e5-2587-4b7a-8ca9-94d02a50fbf9",
      "resource": {
        "resourceType": "Procedure",
        "id": "7addc3e5-2587-4b7a-8ca9-94d02a50fbf9",
        "meta": {
          "profile": [
            "http://hl7.org/fhir/uv/ips/StructureDefinition/Procedure-uv-ips"
          ]
        },
        "code": {
          "coding": [
            {
              "code": "165197003",
              "system": "http://snomed.info/sct",
              "display": "Diagnostic assessment (procedure)"
            }
          ],
          "text": "Diagnostic assessment"
        },
        "status": "completed",
        "subject": {
          "reference": "Patient/f53238cf-712e-480d-a1f2-b42d7555dad8",
          "display": "Oskar Sæther"
        },
        "performedDateTime": "2023-03-20"
      }
    },
    {
      "fullUrl": "urn:uuid:f44c5ca2-7d43-4ac1-82a5-e0343c3331c4",
      "resource": {
        "resourceType": "Procedure",
        "id": "f44c5ca2-7d43-4ac1-82a5-e0343c3331c4",
        "meta": {
          "profile": [
            "http://hl7.org/fhir/uv/ips/StructureDefinition/Procedure-uv-ips"
          ]
        },
        "code": {
          "coding": [
            {
              "code": "371908008",
              "system": "http://snomed.info/sct",
              "display": "Oxygen administration by mask (procedure)"
            }
          ],
          "text": "Oxygen administration by mask"
        },
        "status": "completed",
        "subject": {
          "reference": "Patient/f53238cf-712e-480d-a1f2-b42d7555dad8",
          "display": "Oskar Sæther"
        },
        "performedDateTime": "2023-03-20"
      }
    },
    {
      "fullUrl": "urn:uuid:0b90f2af-fb59-49b9-8664-5b13405cf948",
      "resource": {
        "resourceType": "Procedure",
        "id": "0b90f2af-fb59-49b9-8664-5b13405cf948",
        "meta": {
          "profile": [
            "http://hl7.org/fhir/uv/ips/StructureDefinition/Procedure-uv-ips"
          ]
        },
        "code": {
          "coding": [
            {
              "code": "399208008",
              "system": "http://snomed.info/sct",
              "display": "Plain X-ray of chest (procedure)"
            }
          ],
          "text": "Plain X-ray of chest"
        },
        "status": "completed",
        "subject": {
          "reference": "Patient/f53238cf-712e-480d-a1f2-b42d7555dad8",
          "display": "Oskar Sæther"
        },
        "performedDateTime": "2023-03-20"
      }
    },
    {
      "fullUrl": "urn:uuid:25363aaf-e9e5-46d6-bed2-e7015f22d0e1",
      "resource": {
        "resourceType": "Procedure",
        "id": "25363aaf-e9e5-46d6-bed2-e7015f22d0e1",
        "meta": {
          "profile": [
            "http://hl7.org/fhir/uv/ips/StructureDefinition/Procedure-uv-ips"
          ]
        },
        "code": {
          "coding": [
            {
              "code": "415070008",
              "system": "http://snomed.info/sct",
              "display": "Percutaneous coronary intervention (procedure)"
            }
          ],
          "text": "Percutaneous coronary intervention"
        },
        "reasonCode": [
          {
            "coding": [
              {
                "code": "401303003",
                "system": "http://snomed.info/sct",
                "display": "Acute ST segment elevation myocardial infarction (disorder)"
              }
            ]
          }
        ],
        "status": "completed",
        "subject": {
          "reference": "Patient/f53238cf-712e-480d-a1f2-b42d7555dad8",
          "display": "Oskar Sæther"
        },
        "performedDateTime": "2023-03-20"
      }
    },
    {
      "fullUrl": "urn:uuid:5488be41-d7e8-4c69-9e63-af484d4ce0ab",
      "resource": {
        "resourceType": "Procedure",
        "id": "5488be41-d7e8-4c69-9e63-af484d4ce0ab",
        "meta": {
          "profile": [
            "http://hl7.org/fhir/uv/ips/StructureDefinition/Procedure-uv-ips"
          ]
        },
        "code": {
          "coding": [
            {
              "code": "433236007",
              "system": "http://snomed.info/sct",
              "display": "Transthoracic echocardiography (procedure)"
            }
          ],
          "text": "Transthoracic echocardiography"
        },
        "status": "completed",
        "subject": {
          "reference": "Patient/f53238cf-712e-480d-a1f2-b42d7555dad8",
          "display": "Oskar Sæther"
        },
        "performedDateTime": "2023-03-20"
      }
    },
    {
      "fullUrl": "urn:uuid:6ee58d7c-4435-43e9-8caf-f3032f4ea694",
      "resource": {
        "resourceType": "Procedure",
        "id": "6ee58d7c-4435-43e9-8caf-f3032f4ea694",
        "meta": {
          "profile": [
            "http://hl7.org/fhir/uv/ips/StructureDefinition/Procedure-uv-ips"
          ]
        },
        "code": {
          "coding": [
            {
              "code": "698314001",
              "system": "http://snomed.info/sct",
              "display": "Consultation for treatment (procedure)"
            }
          ],
          "text": "Consultation for treatment"
        },
        "status": "completed",
        "subject": {
          "reference": "Patient/f53238cf-712e-480d-a1f2-b42d7555dad8",
          "display": "Oskar Sæther"
        },
        "performedDateTime": "2023-03-20"
      }
    },
    {
      "fullUrl": "urn:uuid:b0553051-3c11-4d3e-bfd0-7bd1badaad16",
      "resource": {
        "resourceType": "Procedure",
        "id": "b0553051-3c11-4d3e-bfd0-7bd1badaad16",
        "meta": {
          "profile": [
            "http://hl7.org/fhir/uv/ips/StructureDefinition/Procedure-uv-ips"
          ]
        },
        "code": {
          "coding": [
            {
              "code": "710839006",
              "system": "http://snomed.info/sct",
              "display": "Assessment of cardiac status using monitoring device (procedure)"
            }
          ],
          "text": "Assessment of cardiac status using monitoring device"
        },
        "status": "completed",
        "subject": {
          "reference": "Patient/f53238cf-712e-480d-a1f2-b42d7555dad8",
          "display": "Oskar Sæther"
        },
        "performedDateTime": "2023-03-20"
      }
    },
    {
      "fullUrl": "urn:uuid:463d6400-d6eb-4e23-b554-57340e5eaa7f",
      "resource": {
        "resourceType": "Procedure",
        "id": "463d6400-d6eb-4e23-b554-57340e5eaa7f",
        "meta": {
          "profile": [
            "http://hl7.org/fhir/uv/ips/StructureDefinition/Procedure-uv-ips"
          ]
        },
        "code": {
          "coding": [
            {
              "code": "274474001",
              "system": "http://snomed.info/sct",
              "display": "Bone immobilization (procedure)"
            }
          ],
          "text": "Bone immobilization"
        },
        "reasonCode": [
          {
            "coding": [
              {
                "code": "33737001",
                "system": "http://snomed.info/sct",
                "display": "Fracture of rib (disorder)"
              }
            ]
          }
        ],
        "status": "completed",
        "subject": {
          "reference": "Patient/f53238cf-712e-480d-a1f2-b42d7555dad8",
          "display": "Oskar Sæther"
        },
        "performedDateTime": "2023-01-09"
      }
    },
    {
      "fullUrl": "urn:uuid:319c3907-b289-4076-91ce-58a3aee5d311",
      "resource": {
        "resourceType": "Procedure",
        "id": "319c3907-b289-4076-91ce-58a3aee5d311",
        "meta": {
          "profile": [
            "http://hl7.org/fhir/uv/ips/StructureDefinition/Procedure-uv-ips"
          ]
        },
        "code": {
          "coding": [
            {
              "code": "312681000",
              "system": "http://snomed.info/sct",
              "display": "Bone density scan (procedure)"
            }
          ],
          "text": "Bone density scan"
        },
        "reasonCode": [
          {
            "coding": [
              {
                "code": "33737001",
                "system": "http://snomed.info/sct",
                "display": "Fracture of rib (disorder)"
              }
            ]
          }
        ],
        "status": "completed",
        "subject": {
          "reference": "Patient/f53238cf-712e-480d-a1f2-b42d7555dad8",
          "display": "Oskar Sæther"
        },
        "performedDateTime": "2023-01-09"
      }
    },
    {
      "fullUrl": "urn:uuid:2a92a813-aad0-4013-88d4-aee21c71a5c1",
      "resource": {
        "resourceType": "Immunization",
        "id": "2a92a813-aad0-4013-88d4-aee21c71a5c1",
        "meta": {
          "profile": [
            "http://hl7.org/fhir/uv/ips/StructureDefinition/Immunization-uv-ips"
          ]
        },
        "vaccineCode": {
          "coding": [
            {
              "code": "1181000221105",
              "system": "http://snomed.info/sct",
              "display": "Vaccine product containing Influenza virus antigen"
            },
            {
              "code": "J07BB02",
              "system": "http://www.whocc.no/atc",
              "display": "Influenza, inactivated, split virus"
            },
            {
              "code": "140",
              "system": "http://hl7.org/fhir/sid/cvx",
              "display": "Influenza  seasonal  injectable  preservative free"
            }
          ],
          "text": "Influenza virus antigen only vaccine product"
        },
        "site": {
          "coding": [
            {
              "code": "73776007",
              "system": "http://snomed.info/sct",
              "display": "Structure of muscle of upper arm"
            }
          ],
          "text": "Structure of muscle of upper arm"
        },
        "route": {
          "coding": [
            {
              "code": "78421000",
              "system": "http://snomed.info/sct",
              "display": "Intramuscular route"
            }
          ],
          "text": "Intramuscular route"
        },
        "status": "completed",
        "patient": {
          "reference": "Patient/f53238cf-712e-480d-a1f2-b42d7555dad8",
          "display": "Oskar Sæther"
        },
        "occurrenceDateTime": "2024-11-29",
        "lotNumber": "UM-Je6ij3K",
        "expirationDate": "2025-07-19"
      }
    },
    {
      "fullUrl": "urn:uuid:83fb4de1-93cd-4ecb-8a03-3252c895a696",
      "resource": {
        "resourceType": "Immunization",
        "id": "83fb4de1-93cd-4ecb-8a03-3252c895a696",
        "meta": {
          "profile": [
            "http://hl7.org/fhir/uv/ips/StructureDefinition/Immunization-uv-ips"
          ]
        },
        "vaccineCode": {
          "coding": [
            {
              "code": "1252709000",
              "system": "http://snomed.info/sct",
              "display": "Vaccine product containing Streptococcus pneumoniae capsular polysaccharide antigens conjugated"
            },
            {
              "code": "J07AL01",
              "system": "http://www.whocc.no/atc",
              "display": "Pneumococcal polysaccharide vaccines"
            },
            {
              "code": "33",
              "system": "http://hl7.org/fhir/sid/cvx",
              "display": "pneumococcal polysaccharide vaccine  23 valent"
            }
          ],
          "text": "Streptococcus pneumoniae Danish serotype 1"
        },
        "site": {
          "coding": [
            {
              "code": "73776007",
              "system": "http://snomed.info/sct",
              "display": "Structure of muscle of upper arm"
            }
          ],
          "text": "Structure of muscle of upper arm"
        },
        "route": {
          "coding": [
            {
              "code": "78421000",
              "system": "http://snomed.info/sct",
              "display": "Intramuscular route"
            }
          ],
          "text": "Intramuscular route"
        },
        "status": "completed",
        "patient": {
          "reference": "Patient/f53238cf-712e-480d-a1f2-b42d7555dad8",
          "display": "Oskar Sæther"
        },
        "occurrenceDateTime": "2021-11-12",
        "lotNumber": "WX-a7pCfrF",
        "expirationDate": "2022-05-27"
      }
    },
    {
      "fullUrl": "urn:uuid:19d79307-acde-4876-bf4c-9c2c14abdb8e",
      "resource": {
        "resourceType": "Immunization",
        "id": "19d79307-acde-4876-bf4c-9c2c14abdb8e",
        "meta": {
          "profile": [
            "http://hl7.org/fhir/uv/ips/StructureDefinition/Immunization-uv-ips"
          ]
        },
        "vaccineCode": {
          "coding": [
            {
              "code": "29061000087103",
              "system": "http://snomed.info/sct",
              "display": "Vaccine product containing recombinant viral vector encoding SARS-CoV-2 spike protein"
            },
            {
              "code": "J07BX03",
              "system": "http://www.whocc.no/atc",
              "display": "COVID-19 vector vaccines (non-replicating)"
            },
            {
              "code": "212",
              "system": "http://hl7.org/fhir/sid/cvx",
              "display": "COVID-19 vaccine  vector-nr  rS-Ad26  PF  0.5 mL"
            }
          ],
          "text": "COVID-19 non-replicating viral vector vaccine"
        },
        "site": {
          "coding": [
            {
              "code": "73776007",
              "system": "http://snomed.info/sct",
              "display": "Structure of muscle of upper arm"
            }
          ],
          "text": "Structure of muscle of upper arm"
        },
        "route": {
          "coding": [
            {
              "code": "78421000",
              "system": "http://snomed.info/sct",
              "display": "Intramuscular route"
            }
          ],
          "text": "Intramuscular route"
        },
        "status": "completed",
        "patient": {
          "reference": "Patient/f53238cf-712e-480d-a1f2-b42d7555dad8",
          "display": "Oskar Sæther"
        },
        "occurrenceDateTime": "2021-04-16",
        "lotNumber": "HR-rFtAac",
        "expirationDate": "2021-11-07"
      }
    },
    {
      "fullUrl": "urn:uuid:a6bb0efe-9247-42d9-82d5-72c4c0c47ccd",
      "resource": {
        "resourceType": "Immunization",
        "id": "a6bb0efe-9247-42d9-82d5-72c4c0c47ccd",
        "meta": {
          "profile": [
            "http://hl7.org/fhir/uv/ips/StructureDefinition/Immunization-uv-ips"
          ]
        },
        "vaccineCode": {
          "coding": [
            {
              "code": "51451000087105",
              "system": "http://snomed.info/sct",
              "display": "Vaccine product containing Streptococcus pneumoniae capsular polysaccharide antigens conjugated"
            },
            {
              "code": "J07AL02",
              "system": "http://www.whocc.no/atc",
              "display": "Pneumococcal conjugate vaccines"
            },
            {
              "code": "133",
              "system": "http://hl7.org/fhir/sid/cvx",
              "display": "Pneumococcal conjugate PCV 13"
            }
          ],
          "text": "Streptococcus pneumoniae Danish serotype 1"
        },
        "site": {
          "coding": [
            {
              "code": "73776007",
              "system": "http://snomed.info/sct",
              "display": "Structure of muscle of upper arm"
            }
          ],
          "text": "Structure of muscle of upper arm"
        },
        "route": {
          "coding": [
            {
              "code": "78421000",
              "system": "http://snomed.info/sct",
              "display": "Intramuscular route"
            }
          ],
          "text": "Intramuscular route"
        },
        "status": "completed",
        "patient": {
          "reference": "Patient/f53238cf-712e-480d-a1f2-b42d7555dad8",
          "display": "Oskar Sæther"
        },
        "occurrenceDateTime": "2020-11-06",
        "lotNumber": "TE-mnQt1",
        "expirationDate": "2021-03-08"
      }
    },
    {
      "fullUrl": "urn:uuid:de69ff09-2d48-4c9f-aecf-674e62da4ba9",
      "resource": {
        "resourceType": "Immunization",
        "id": "de69ff09-2d48-4c9f-aecf-674e62da4ba9",
        "meta": {
          "profile": [
            "http://hl7.org/fhir/uv/ips/StructureDefinition/Immunization-uv-ips"
          ]
        },
        "vaccineCode": {
          "coding": [
            {
              "code": "777725002",
              "system": "http://snomed.info/sct",
              "display": "Vaccine product containing only Clostridium tetani toxoid antigen adsorbed"
            },
            {
              "code": "J07AM51",
              "system": "http://www.whocc.no/atc",
              "display": "Diphtheria-tetanus vaccines, adult type"
            },
            {
              "code": "113",
              "system": "http://hl7.org/fhir/sid/cvx",
              "display": "Td (adult)  5 Lf tetanus toxoid  preservative free  adsorbed"
            }
          ],
          "text": "Clostridium tetani toxoid antigen adsorbed only vaccine product"
        },
        "site": {
          "coding": [
            {
              "code": "73776007",
              "system": "http://snomed.info/sct",
              "display": "Structure of muscle of upper arm"
            }
          ],
          "text": "Structure of muscle of upper arm"
        },
        "route": {
          "coding": [
            {
              "code": "78421000",
              "system": "http://snomed.info/sct",
              "display": "Intramuscular route"
            }
          ],
          "text": "Intramuscular route"
        },
        "status": "completed",
        "patient": {
          "reference": "Patient/f53238cf-712e-480d-a1f2-b42d7555dad8",
          "display": "Oskar Sæther"
        },
        "occurrenceDateTime": "2016-10-14",
        "lotNumber": "PM-LpeyJ",
        "expirationDate": "2017-10-10"
      }
    }
  ],
  "type": "document",
  "timestamp": "2025-06-17T11:26:49Z"
}
