{
  "resourceType": "Bundle",
  "id": "Instance-Bundle-b049e0ec-c080-4135-b856-a1318b78887c",
  "meta": {
    "profile": [
      "http://hl7.eu/fhir/eps/StructureDefinition/bundle-eu-eps"
    ]
  },
  "identifier": {
    "assigner": {
      "display": "HL7 Europe"
    },
    "system": "urn:oid:2.16.840.1.113883.2.51.999",
    "value": "804045b7-d6d8-4bf4-9278-152d17a646f8"
  },
  "entry": [
    {
      "fullUrl": "urn:uuid:989cb2d7-fc6b-4f9a-8182-159b8f56721b",
      "resource": {
        "resourceType": "Composition",
        "id": "989cb2d7-fc6b-4f9a-8182-159b8f56721b",
        "meta": {
          "profile": [
            "http://hl7.eu/fhir/eps/StructureDefinition/composition-eu-eps"
          ]
        },
        "identifier": {
          "assigner": {
            "display": "HL7 Europe"
          },
          "system": "urn:oid:2.16.840.1.113883.2.51.999",
          "value": "54d0ef30-2df6-4dea-b942-6657b4b9c2b7"
        },
        "type": {
          "coding": [
            {
              "system": "http://loinc.org",
              "code": "60591-5",
              "display": "European Patient Summary"
            }
          ],
          "text": "European Patient Summary"
        },
        "author": [
          {
            "reference": "urn:uuid:3221faf5-1fd8-4236-9d5e-d3c425c00317"
          }
        ],
        "section": [
          {
            "text": {
              "status": "generated",
              "div": "<div xmlns=\"http://www.w3.org/1999/xhtml\"><table class=\"hl7__ips\"><tr><td>Type 2 diabetes mellitus</td><td>2024-11-11</td><td>active</td></tr><tr><td>Osteoarthritis of knee</td><td>2009-12-01</td><td>active</td></tr><tr><td>Gingivitis</td><td>2023-11-06</td><td>inactive</td></tr><tr><td>Viral sinusitis</td><td>2023-05-19</td><td>inactive</td></tr><tr><td>Gingivitis</td><td>2021-10-25</td><td>inactive</td></tr><tr><td>Gingivitis</td><td>2019-10-14</td><td>inactive</td></tr><tr><td>Viral sinusitis</td><td>2018-11-22</td><td>inactive</td></tr><tr><td>Gingival disease</td><td>2018-10-22</td><td>inactive</td></tr><tr><td>Fracture of clavicle</td><td>2017-02-27</td><td>inactive</td></tr><tr><td>Fracture of bone</td><td>2017-02-27</td><td>inactive</td></tr></table></div>"
            },
            "entry": [
              {
                "reference": "urn:uuid:bd3a8b0a-ffeb-4faf-a241-3e1bb14d4f6e"
              },
              {
                "reference": "urn:uuid:f042136a-06b8-434a-9d47-03830ce2446a"
              },
              {
                "reference": "urn:uuid:977e5438-df3a-438d-8761-16f01b82c937"
              },
              {
                "reference": "urn:uuid:caaff2c2-33af-4cbd-9b2d-4d9644c865f7"
              },
              {
                "reference": "urn:uuid:b1c11b9f-63c7-4486-aefc-7c90d7ed62b5"
              },
              {
                "reference": "urn:uuid:b617040d-34cb-40cd-b842-b05a8ec10d4f"
              },
              {
                "reference": "urn:uuid:805577b6-507e-4868-b015-b969ed8fc2bf"
              },
              {
                "reference": "urn:uuid:a9dab850-8cab-4edd-ad50-492f2fb88983"
              },
              {
                "reference": "urn:uuid:175d4850-343f-4222-a0c0-efef5c5f6a0d"
              },
              {
                "reference": "urn:uuid:362a0318-c1f2-4b72-b84c-7f1f0dad2ac6"
              }
            ],
            "code": {
              "coding": [
                {
                  "system": "http://loinc.org",
                  "code": "11450-4",
                  "display": "Problem list - Reported"
                }
              ]
            },
            "title": "Problem list"
          },
          {
            "text": {
              "status": "generated",
              "div": "<div xmlns=\"http://www.w3.org/1999/xhtml\"><table class=\"hl7__ips\"><tr><td>Metformin hydrochloride 500 mg prolonged-release oral tablet</td><td>2024-11-11</td><td>Prolonged-release oral tablet</td><td>1 tablet (500 mg) once daily\"</td><td>Reason: Diabetes mellitus type 2 (disorder)</td></tr><tr><td>Naproxen sodium 220 MG Oral Tablet</td><td>2009-12-01</td><td></td><td>1 tablet (220 mg) every 8 to 12 hours as needed\"</td><td>Reason: Osteoarthritis of knee (disorder)</td></tr><tr><td>ferrous sulfate 325 MG Oral Tablet</td><td>2001-02-05</td><td></td><td>1 tablet (325 mg) by mouth once daily\"</td><td></td></tr><tr><td>Diphenhydramine hydrochloride 25 mg oral tablet</td><td>1969-03-23</td><td>Oral tablet</td><td>1 tablet (25 mg) every 4 to 6 hours as needed\"</td><td></td></tr></table></div>"
            },
            "entry": [
              {
                "reference": "urn:uuid:ed2368f3-bf0b-4e36-905c-9fdc30aeb3b2"
              },
              {
                "reference": "urn:uuid:7b78fde8-2f49-4feb-9e2b-c9427a98efd1"
              },
              {
                "reference": "urn:uuid:9198b00b-5cc2-4c26-8dff-ac4a30e4d63c"
              },
              {
                "reference": "urn:uuid:8e389cca-5f8f-4e60-9e2d-42483df547b2"
              }
            ],
            "code": {
              "coding": [
                {
                  "system": "http://loinc.org",
                  "code": "10160-0",
                  "display": "History of Medication use Narrative"
                }
              ]
            },
            "title": "Medication list"
          },
          {
            "text": {
              "status": "generated",
              "div": "<div xmlns=\"http://www.w3.org/1999/xhtml\"><table class=\"hl7__ips\"><tr><td></td><td>1969-03-27</td><td>active</td><td>medication</td></tr><tr><td>Allergic disposition</td><td>1969-03-27</td><td>active</td><td>environment</td></tr><tr><td>Tree pollen</td><td>1969-03-27</td><td>active</td><td>environment</td></tr></table></div>"
            },
            "entry": [
              {
                "reference": "urn:uuid:b0a7c486-2e21-4f69-ab8f-86384a02531b"
              },
              {
                "reference": "urn:uuid:d25ae2db-59f1-4eea-b50e-b0d686bf0151"
              },
              {
                "reference": "urn:uuid:3c500cf4-c311-4800-8619-f19c889eda23"
              }
            ],
            "code": {
              "coding": [
                {
                  "system": "http://loinc.org",
                  "code": "48765-2",
                  "display": "Allergies and adverse reactions Document"
                }
              ]
            },
            "title": "Allergies and Intolerances"
          },
          {
            "text": {
              "status": "generated",
              "div": "<div xmlns=\"http://www.w3.org/1999/xhtml\"><table class=\"hl7__ips\"><tr><td>Plain X-ray of clavicle</td><td>2017-02-27</td><td>-</td></tr><tr><td>Admission to orthopedic department</td><td>2017-02-27</td><td>Fracture of clavicle (disorder)</td></tr></table></div>"
            },
            "entry": [
              {
                "reference": "urn:uuid:8de96596-86f5-447f-9767-fdc18cb2be7b"
              },
              {
                "reference": "urn:uuid:0c5cf21f-9114-4b80-9c46-824e781793cc"
              }
            ],
            "code": {
              "coding": [
                {
                  "system": "http://loinc.org",
                  "code": "47519-4",
                  "display": "History of Procedures Document"
                }
              ]
            },
            "title": "Procedure History list"
          },
          {
            "text": {
              "status": "generated",
              "div": "<div xmlns=\"http://www.w3.org/1999/xhtml\"><table class=\"hl7__ips\"><tr><td>Influenza virus antigen only vaccine product</td><td>2024-11-11</td></tr><tr><td>COVID-19 non-replicating viral vector vaccine</td><td>2021-04-26</td></tr><tr><td>Clostridium tetani toxoid antigen adsorbed only vaccine product</td><td>2017-10-02</td></tr><tr><td>Live attenuated Human alphaherpesvirus 3 only vaccine product</td><td>2017-10-02</td></tr></table></div>"
            },
            "entry": [
              {
                "reference": "urn:uuid:7bdc7e36-f08d-4e68-80da-799125127cbc"
              },
              {
                "reference": "urn:uuid:100649eb-7218-408b-b81c-037567a21734"
              },
              {
                "reference": "urn:uuid:597b75d3-1549-4b8e-9a99-d515b633fb2c"
              },
              {
                "reference": "urn:uuid:5afe7861-233e-4b06-9e1f-7fe9855e5054"
              }
            ],
            "code": {
              "coding": [
                {
                  "system": "http://loinc.org",
                  "code": "11369-6",
                  "display": "History of Immunization Narrative"
                }
              ]
            },
            "title": "Immunizations list"
          }
        ],
        "title": "European Patient Summary",
        "status": "final",
        "subject": {
          "reference": "urn:uuid:8682a770-183f-45c4-bb9b-e91d36e28b6d"
        },
        "custodian": {
          "reference": "urn:uuid:0d79542b-1511-41a9-a49c-390b9a61894c"
        },
        "date": "2025-06-16T17:28:57Z",
        "confidentiality": "N"
      }
    },
    {
      "fullUrl": "urn:uuid:8682a770-183f-45c4-bb9b-e91d36e28b6d",
      "resource": {
        "resourceType": "Patient",
        "id": "8682a770-183f-45c4-bb9b-e91d36e28b6d",
        "meta": {
          "profile": [
            "http://hl7.eu/fhir/eps/StructureDefinition/patient-eu-eps"
          ]
        },
        "identifier": [
          {
            "type": {
              "coding": [
                {
                  "code": "NI",
                  "system": "http://terminology.hl7.org/CodeSystem/v2-0203"
                }
              ]
            },
            "system": "http://ec.europa.eu/identifier/eci",
            "value": "4651-576482-0"
          },
          {
            "type": {
              "coding": [
                {
                  "code": "MR",
                  "system": "http://terminology.hl7.org/CodeSystem/v2-0203"
                }
              ]
            },
            "system": "http://local.setting.eu/identifier",
            "value": "a9bc03f1-d240-2abe-f5e4-cfb2b06c815b"
          }
        ],
        "name": [
          {
            "given": [
              "Eduarda"
            ],
            "family": "Campos",
            "text": "Eduarda Campos"
          }
        ],
        "address": [
          {
            "line": [
              "Strepestraat 280"
            ],
            "use": "home",
            "type": "physical",
            "city": "Lampernisse",
            "postalCode": "8600",
            "country": "Belgium"
          }
        ],
        "telecom": [
          {
            "system": "phone",
            "value": "+32 0473 88 18 21"
          }
        ],
        "gender": "female",
        "birthDate": "1970-12-14"
      }
    },
    {
      "fullUrl": "urn:uuid:3221faf5-1fd8-4236-9d5e-d3c425c00317",
      "resource": {
        "resourceType": "PractitionerRole",
        "id": "3221faf5-1fd8-4236-9d5e-d3c425c00317",
        "meta": {
          "profile": [
            "http://hl7.eu/fhir/base/StructureDefinition/practitionerRole-eu"
          ]
        },
        "practitioner": {
          "reference": "urn:uuid:86587c3b-57ac-43c7-bd81-fb58d8b559a3"
        },
        "organization": {
          "reference": "urn:uuid:0d79542b-1511-41a9-a49c-390b9a61894c"
        }
      }
    },
    {
      "fullUrl": "urn:uuid:86587c3b-57ac-43c7-bd81-fb58d8b559a3",
      "resource": {
        "resourceType": "Practitioner",
        "id": "86587c3b-57ac-43c7-bd81-fb58d8b559a3",
        "meta": {
          "profile": [
            "http://hl7.eu/fhir/base/StructureDefinition/practitioner-eu"
          ]
        },
        "name": [
          {
            "prefix": [
              "Dr."
            ],
            "given": [
              "Hel"
            ],
            "family": "Ping"
          }
        ]
      }
    },
    {
      "fullUrl": "urn:uuid:bd3a8b0a-ffeb-4faf-a241-3e1bb14d4f6e",
      "resource": {
        "resourceType": "Condition",
        "id": "bd3a8b0a-ffeb-4faf-a241-3e1bb14d4f6e",
        "meta": {
          "profile": [
            "http://hl7.org/fhir/uv/ips/StructureDefinition/Condition-uv-ips"
          ]
        },
        "category": [
          {
            "coding": [
              {
                "code": "problem-list-item",
                "system": "http://terminology.hl7.org/CodeSystem/condition-category",
                "display": "Problem List Item"
              }
            ]
          }
        ],
        "code": {
          "coding": [
            {
              "code": "44054006",
              "system": "http://snomed.info/sct",
              "display": "Diabetes mellitus type 2 (disorder)"
            }
          ],
          "text": "Type 2 diabetes mellitus"
        },
        "onsetDateTime": "2024-11-11",
        "clinicalStatus": {
          "coding": [
            {
              "code": "active",
              "system": "http://terminology.hl7.org/CodeSystem/condition-clinical"
            }
          ]
        },
        "subject": {
          "reference": "Patient/8682a770-183f-45c4-bb9b-e91d36e28b6d",
          "display": "Eduarda Campos"
        },
        "asserter": {
          "reference": "Practitioner/86587c3b-57ac-43c7-bd81-fb58d8b559a3",
          "display": "Dr. Hel Ping"
        }
      }
    },
    {
      "fullUrl": "urn:uuid:f042136a-06b8-434a-9d47-03830ce2446a",
      "resource": {
        "resourceType": "Condition",
        "id": "f042136a-06b8-434a-9d47-03830ce2446a",
        "meta": {
          "profile": [
            "http://hl7.org/fhir/uv/ips/StructureDefinition/Condition-uv-ips"
          ]
        },
        "category": [
          {
            "coding": [
              {
                "code": "problem-list-item",
                "system": "http://terminology.hl7.org/CodeSystem/condition-category",
                "display": "Problem List Item"
              }
            ]
          }
        ],
        "code": {
          "coding": [
            {
              "code": "239873007",
              "system": "http://snomed.info/sct",
              "display": "Osteoarthritis of knee (disorder)"
            }
          ],
          "text": "Osteoarthritis of knee"
        },
        "onsetDateTime": "2009-12-01",
        "clinicalStatus": {
          "coding": [
            {
              "code": "active",
              "system": "http://terminology.hl7.org/CodeSystem/condition-clinical"
            }
          ]
        },
        "subject": {
          "reference": "Patient/8682a770-183f-45c4-bb9b-e91d36e28b6d",
          "display": "Eduarda Campos"
        },
        "asserter": {
          "reference": "Practitioner/86587c3b-57ac-43c7-bd81-fb58d8b559a3",
          "display": "Dr. Hel Ping"
        }
      }
    },
    {
      "fullUrl": "urn:uuid:977e5438-df3a-438d-8761-16f01b82c937",
      "resource": {
        "resourceType": "Condition",
        "id": "977e5438-df3a-438d-8761-16f01b82c937",
        "meta": {
          "profile": [
            "http://hl7.org/fhir/uv/ips/StructureDefinition/Condition-uv-ips"
          ]
        },
        "category": [
          {
            "coding": [
              {
                "code": "problem-list-item",
                "system": "http://terminology.hl7.org/CodeSystem/condition-category",
                "display": "Problem List Item"
              }
            ]
          }
        ],
        "code": {
          "coding": [
            {
              "code": "66383009",
              "system": "http://snomed.info/sct",
              "display": "Gingivitis (disorder)"
            }
          ],
          "text": "Gingivitis"
        },
        "onsetDateTime": "2023-11-06",
        "clinicalStatus": {
          "coding": [
            {
              "code": "inactive",
              "system": "http://terminology.hl7.org/CodeSystem/condition-clinical"
            }
          ]
        },
        "subject": {
          "reference": "Patient/8682a770-183f-45c4-bb9b-e91d36e28b6d",
          "display": "Eduarda Campos"
        },
        "asserter": {
          "reference": "Practitioner/86587c3b-57ac-43c7-bd81-fb58d8b559a3",
          "display": "Dr. Hel Ping"
        }
      }
    },
    {
      "fullUrl": "urn:uuid:caaff2c2-33af-4cbd-9b2d-4d9644c865f7",
      "resource": {
        "resourceType": "Condition",
        "id": "caaff2c2-33af-4cbd-9b2d-4d9644c865f7",
        "meta": {
          "profile": [
            "http://hl7.org/fhir/uv/ips/StructureDefinition/Condition-uv-ips"
          ]
        },
        "category": [
          {
            "coding": [
              {
                "code": "problem-list-item",
                "system": "http://terminology.hl7.org/CodeSystem/condition-category",
                "display": "Problem List Item"
              }
            ]
          }
        ],
        "code": {
          "coding": [
            {
              "code": "444814009",
              "system": "http://snomed.info/sct",
              "display": "Viral sinusitis (disorder)"
            }
          ],
          "text": "Viral sinusitis"
        },
        "onsetDateTime": "2023-05-19",
        "clinicalStatus": {
          "coding": [
            {
              "code": "inactive",
              "system": "http://terminology.hl7.org/CodeSystem/condition-clinical"
            }
          ]
        },
        "subject": {
          "reference": "Patient/8682a770-183f-45c4-bb9b-e91d36e28b6d",
          "display": "Eduarda Campos"
        },
        "asserter": {
          "reference": "Practitioner/86587c3b-57ac-43c7-bd81-fb58d8b559a3",
          "display": "Dr. Hel Ping"
        }
      }
    },
    {
      "fullUrl": "urn:uuid:b1c11b9f-63c7-4486-aefc-7c90d7ed62b5",
      "resource": {
        "resourceType": "Condition",
        "id": "b1c11b9f-63c7-4486-aefc-7c90d7ed62b5",
        "meta": {
          "profile": [
            "http://hl7.org/fhir/uv/ips/StructureDefinition/Condition-uv-ips"
          ]
        },
        "category": [
          {
            "coding": [
              {
                "code": "problem-list-item",
                "system": "http://terminology.hl7.org/CodeSystem/condition-category",
                "display": "Problem List Item"
              }
            ]
          }
        ],
        "code": {
          "coding": [
            {
              "code": "66383009",
              "system": "http://snomed.info/sct",
              "display": "Gingivitis (disorder)"
            }
          ],
          "text": "Gingivitis"
        },
        "onsetDateTime": "2021-10-25",
        "clinicalStatus": {
          "coding": [
            {
              "code": "inactive",
              "system": "http://terminology.hl7.org/CodeSystem/condition-clinical"
            }
          ]
        },
        "subject": {
          "reference": "Patient/8682a770-183f-45c4-bb9b-e91d36e28b6d",
          "display": "Eduarda Campos"
        },
        "asserter": {
          "reference": "Practitioner/86587c3b-57ac-43c7-bd81-fb58d8b559a3",
          "display": "Dr. Hel Ping"
        }
      }
    },
    {
      "fullUrl": "urn:uuid:b617040d-34cb-40cd-b842-b05a8ec10d4f",
      "resource": {
        "resourceType": "Condition",
        "id": "b617040d-34cb-40cd-b842-b05a8ec10d4f",
        "meta": {
          "profile": [
            "http://hl7.org/fhir/uv/ips/StructureDefinition/Condition-uv-ips"
          ]
        },
        "category": [
          {
            "coding": [
              {
                "code": "problem-list-item",
                "system": "http://terminology.hl7.org/CodeSystem/condition-category",
                "display": "Problem List Item"
              }
            ]
          }
        ],
        "code": {
          "coding": [
            {
              "code": "66383009",
              "system": "http://snomed.info/sct",
              "display": "Gingivitis (disorder)"
            }
          ],
          "text": "Gingivitis"
        },
        "onsetDateTime": "2019-10-14",
        "clinicalStatus": {
          "coding": [
            {
              "code": "inactive",
              "system": "http://terminology.hl7.org/CodeSystem/condition-clinical"
            }
          ]
        },
        "subject": {
          "reference": "Patient/8682a770-183f-45c4-bb9b-e91d36e28b6d",
          "display": "Eduarda Campos"
        },
        "asserter": {
          "reference": "Practitioner/86587c3b-57ac-43c7-bd81-fb58d8b559a3",
          "display": "Dr. Hel Ping"
        }
      }
    },
    {
      "fullUrl": "urn:uuid:805577b6-507e-4868-b015-b969ed8fc2bf",
      "resource": {
        "resourceType": "Condition",
        "id": "805577b6-507e-4868-b015-b969ed8fc2bf",
        "meta": {
          "profile": [
            "http://hl7.org/fhir/uv/ips/StructureDefinition/Condition-uv-ips"
          ]
        },
        "category": [
          {
            "coding": [
              {
                "code": "problem-list-item",
                "system": "http://terminology.hl7.org/CodeSystem/condition-category",
                "display": "Problem List Item"
              }
            ]
          }
        ],
        "code": {
          "coding": [
            {
              "code": "444814009",
              "system": "http://snomed.info/sct",
              "display": "Viral sinusitis (disorder)"
            }
          ],
          "text": "Viral sinusitis"
        },
        "onsetDateTime": "2018-11-22",
        "clinicalStatus": {
          "coding": [
            {
              "code": "inactive",
              "system": "http://terminology.hl7.org/CodeSystem/condition-clinical"
            }
          ]
        },
        "subject": {
          "reference": "Patient/8682a770-183f-45c4-bb9b-e91d36e28b6d",
          "display": "Eduarda Campos"
        },
        "asserter": {
          "reference": "Practitioner/86587c3b-57ac-43c7-bd81-fb58d8b559a3",
          "display": "Dr. Hel Ping"
        }
      }
    },
    {
      "fullUrl": "urn:uuid:a9dab850-8cab-4edd-ad50-492f2fb88983",
      "resource": {
        "resourceType": "Condition",
        "id": "a9dab850-8cab-4edd-ad50-492f2fb88983",
        "meta": {
          "profile": [
            "http://hl7.org/fhir/uv/ips/StructureDefinition/Condition-uv-ips"
          ]
        },
        "category": [
          {
            "coding": [
              {
                "code": "problem-list-item",
                "system": "http://terminology.hl7.org/CodeSystem/condition-category",
                "display": "Problem List Item"
              }
            ]
          }
        ],
        "code": {
          "coding": [
            {
              "code": "18718003",
              "system": "http://snomed.info/sct",
              "display": "Gingival disease (disorder)"
            }
          ],
          "text": "Gingival disease"
        },
        "onsetDateTime": "2018-10-22",
        "clinicalStatus": {
          "coding": [
            {
              "code": "inactive",
              "system": "http://terminology.hl7.org/CodeSystem/condition-clinical"
            }
          ]
        },
        "subject": {
          "reference": "Patient/8682a770-183f-45c4-bb9b-e91d36e28b6d",
          "display": "Eduarda Campos"
        },
        "asserter": {
          "reference": "Practitioner/86587c3b-57ac-43c7-bd81-fb58d8b559a3",
          "display": "Dr. Hel Ping"
        }
      }
    },
    {
      "fullUrl": "urn:uuid:175d4850-343f-4222-a0c0-efef5c5f6a0d",
      "resource": {
        "resourceType": "Condition",
        "id": "175d4850-343f-4222-a0c0-efef5c5f6a0d",
        "meta": {
          "profile": [
            "http://hl7.org/fhir/uv/ips/StructureDefinition/Condition-uv-ips"
          ]
        },
        "category": [
          {
            "coding": [
              {
                "code": "problem-list-item",
                "system": "http://terminology.hl7.org/CodeSystem/condition-category",
                "display": "Problem List Item"
              }
            ]
          }
        ],
        "code": {
          "coding": [
            {
              "code": "58150001",
              "system": "http://snomed.info/sct",
              "display": "Fracture of clavicle (disorder)"
            }
          ],
          "text": "Fracture of clavicle"
        },
        "onsetDateTime": "2017-02-27",
        "clinicalStatus": {
          "coding": [
            {
              "code": "inactive",
              "system": "http://terminology.hl7.org/CodeSystem/condition-clinical"
            }
          ]
        },
        "subject": {
          "reference": "Patient/8682a770-183f-45c4-bb9b-e91d36e28b6d",
          "display": "Eduarda Campos"
        },
        "asserter": {
          "reference": "Practitioner/86587c3b-57ac-43c7-bd81-fb58d8b559a3",
          "display": "Dr. Hel Ping"
        }
      }
    },
    {
      "fullUrl": "urn:uuid:362a0318-c1f2-4b72-b84c-7f1f0dad2ac6",
      "resource": {
        "resourceType": "Condition",
        "id": "362a0318-c1f2-4b72-b84c-7f1f0dad2ac6",
        "meta": {
          "profile": [
            "http://hl7.org/fhir/uv/ips/StructureDefinition/Condition-uv-ips"
          ]
        },
        "category": [
          {
            "coding": [
              {
                "code": "problem-list-item",
                "system": "http://terminology.hl7.org/CodeSystem/condition-category",
                "display": "Problem List Item"
              }
            ]
          }
        ],
        "code": {
          "coding": [
            {
              "code": "125605004",
              "system": "http://snomed.info/sct",
              "display": "Fracture of bone (disorder)"
            }
          ],
          "text": "Fracture of bone"
        },
        "onsetDateTime": "2017-02-27",
        "clinicalStatus": {
          "coding": [
            {
              "code": "inactive",
              "system": "http://terminology.hl7.org/CodeSystem/condition-clinical"
            }
          ]
        },
        "subject": {
          "reference": "Patient/8682a770-183f-45c4-bb9b-e91d36e28b6d",
          "display": "Eduarda Campos"
        },
        "asserter": {
          "reference": "Practitioner/86587c3b-57ac-43c7-bd81-fb58d8b559a3",
          "display": "Dr. Hel Ping"
        }
      }
    },
    {
      "fullUrl": "urn:uuid:43efda7f-5556-468e-aa1a-a55e438d8076",
      "resource": {
        "resourceType": "Medication",
        "id": "43efda7f-5556-468e-aa1a-a55e438d8076",
        "meta": {
          "profile": [
            "http://hl7.org/fhir/uv/ips/StructureDefinition/Medication-uv-ips"
          ]
        },
        "code": {
          "coding": [
            {
              "code": "860975",
              "system": "http://www.nlm.nih.gov/research/umls/rxnorm",
              "display": "24 HR metformin hydrochloride 500 MG Extended Release Oral Tablet"
            },
            {
              "code": "765507008",
              "system": "http://snomed.info/sct",
              "display": "Product containing precisely metformin hydrochloride 500 milligram/1 each prolonged-release oral tablet (clinical drug)"
            }
          ],
          "text": "Metformin hydrochloride 500 mg prolonged-release oral tablet"
        },
        "form": {
          "coding": [
            {
              "code": "385060002",
              "system": "http://snomed.info/sct",
              "display": "Prolonged-release oral tablet"
            }
          ]
        },
        "ingredient": [
          {
            "itemCodeableConcept": {
              "coding": [
                {
                  "code": "109083009",
                  "system": "http://snomed.info/sct",
                  "display": "Metformin hydrochloride"
                }
              ]
            },
            "isActive": true
          }
        ]
      }
    },
    {
      "fullUrl": "urn:uuid:ed2368f3-bf0b-4e36-905c-9fdc30aeb3b2",
      "resource": {
        "resourceType": "MedicationStatement",
        "id": "ed2368f3-bf0b-4e36-905c-9fdc30aeb3b2",
        "effectivePeriod": {
          "start": "2024-11-11"
        },
        "dosage": [
          {
            "doseAndRate": [
              {
                "doseQuantity": {
                  "value": 1,
                  "unit": "{tbl}",
                  "code": "{tbl}"
                }
              }
            ],
            "timing": {
              "repeat": {
                "frequency": 1,
                "period": 1,
                "periodUnit": "d"
              }
            },
            "text": "1 tablet (500 mg) once daily",
            "asNeededBoolean": false
          }
        ],
        "reasonCode": [
          {
            "coding": [
              {
                "code": "44054006",
                "system": "http://snomed.info/sct",
                "display": "Diabetes mellitus type 2 (disorder)"
              }
            ]
          }
        ],
        "status": "active",
        "medicationReference": {
          "reference": "Medication/43efda7f-5556-468e-aa1a-a55e438d8076",
          "display": "Metformin hydrochloride 500 mg prolonged-release oral tablet"
        },
        "subject": {
          "reference": "Patient/8682a770-183f-45c4-bb9b-e91d36e28b6d",
          "display": "Eduarda Campos"
        }
      }
    },
    {
      "fullUrl": "urn:uuid:c6d9e571-1e61-4304-afdd-e59d9d449161",
      "resource": {
        "resourceType": "Medication",
        "id": "c6d9e571-1e61-4304-afdd-e59d9d449161",
        "meta": {
          "profile": [
            "http://hl7.org/fhir/uv/ips/StructureDefinition/Medication-uv-ips"
          ]
        },
        "code": {
          "coding": [
            {
              "code": "849574",
              "system": "http://www.nlm.nih.gov/research/umls/rxnorm",
              "display": "Naproxen sodium 220 MG Oral Tablet"
            }
          ],
          "text": "Naproxen sodium 220 MG Oral Tablet"
        }
      }
    },
    {
      "fullUrl": "urn:uuid:7b78fde8-2f49-4feb-9e2b-c9427a98efd1",
      "resource": {
        "resourceType": "MedicationStatement",
        "id": "7b78fde8-2f49-4feb-9e2b-c9427a98efd1",
        "effectivePeriod": {
          "start": "2009-12-01"
        },
        "dosage": [
          {
            "doseAndRate": [
              {
                "doseQuantity": {
                  "value": 1,
                  "unit": "{tbl}",
                  "code": "{tbl}"
                }
              }
            ],
            "timing": {
              "repeat": {
                "frequency": 1,
                "period": 8,
                "periodUnit": "h"
              }
            },
            "text": "1 tablet (220 mg) every 8 to 12 hours as needed",
            "asNeededBoolean": true
          }
        ],
        "reasonCode": [
          {
            "coding": [
              {
                "code": "239873007",
                "system": "http://snomed.info/sct",
                "display": "Osteoarthritis of knee (disorder)"
              }
            ]
          }
        ],
        "status": "active",
        "medicationReference": {
          "reference": "Medication/c6d9e571-1e61-4304-afdd-e59d9d449161",
          "display": "Naproxen sodium 220 MG Oral Tablet"
        },
        "subject": {
          "reference": "Patient/8682a770-183f-45c4-bb9b-e91d36e28b6d",
          "display": "Eduarda Campos"
        }
      }
    },
    {
      "fullUrl": "urn:uuid:f08ddd7b-43bb-48f0-99e7-90e2a2360d6c",
      "resource": {
        "resourceType": "Medication",
        "id": "f08ddd7b-43bb-48f0-99e7-90e2a2360d6c",
        "meta": {
          "profile": [
            "http://hl7.org/fhir/uv/ips/StructureDefinition/Medication-uv-ips"
          ]
        },
        "code": {
          "coding": [
            {
              "code": "310325",
              "system": "http://www.nlm.nih.gov/research/umls/rxnorm",
              "display": "ferrous sulfate 325 MG Oral Tablet"
            }
          ],
          "text": "ferrous sulfate 325 MG Oral Tablet"
        }
      }
    },
    {
      "fullUrl": "urn:uuid:9198b00b-5cc2-4c26-8dff-ac4a30e4d63c",
      "resource": {
        "resourceType": "MedicationStatement",
        "id": "9198b00b-5cc2-4c26-8dff-ac4a30e4d63c",
        "effectivePeriod": {
          "start": "2001-02-05"
        },
        "dosage": [
          {
            "doseAndRate": [
              {
                "doseQuantity": {
                  "value": 1,
                  "unit": "{tbl}",
                  "code": "{tbl}"
                }
              }
            ],
            "timing": {
              "repeat": {
                "frequency": 1,
                "period": 1,
                "periodUnit": "d"
              }
            },
            "text": "1 tablet (325 mg) by mouth once daily",
            "asNeededBoolean": false
          }
        ],
        "status": "active",
        "medicationReference": {
          "reference": "Medication/f08ddd7b-43bb-48f0-99e7-90e2a2360d6c",
          "display": "ferrous sulfate 325 MG Oral Tablet"
        },
        "subject": {
          "reference": "Patient/8682a770-183f-45c4-bb9b-e91d36e28b6d",
          "display": "Eduarda Campos"
        }
      }
    },
    {
      "fullUrl": "urn:uuid:4c62920a-7aad-40c5-bae7-a031d66deb51",
      "resource": {
        "resourceType": "Medication",
        "id": "4c62920a-7aad-40c5-bae7-a031d66deb51",
        "meta": {
          "profile": [
            "http://hl7.org/fhir/uv/ips/StructureDefinition/Medication-uv-ips"
          ]
        },
        "code": {
          "coding": [
            {
              "code": "1049630",
              "system": "http://www.nlm.nih.gov/research/umls/rxnorm",
              "display": "diphenhydramine hydrochloride 25 MG Oral Tablet"
            },
            {
              "code": "320726008",
              "system": "http://snomed.info/sct",
              "display": "Product containing precisely diphenhydramine hydrochloride 25 milligram/1 each conventional release oral tablet (clinical drug)"
            }
          ],
          "text": "Diphenhydramine hydrochloride 25 mg oral tablet"
        },
        "form": {
          "coding": [
            {
              "code": "421026006",
              "system": "http://snomed.info/sct",
              "display": "Oral tablet"
            }
          ]
        },
        "ingredient": [
          {
            "itemCodeableConcept": {
              "coding": [
                {
                  "code": "19510001",
                  "system": "http://snomed.info/sct",
                  "display": "Diphenhydramine hydrochloride"
                }
              ]
            },
            "isActive": true
          }
        ]
      }
    },
    {
      "fullUrl": "urn:uuid:8e389cca-5f8f-4e60-9e2d-42483df547b2",
      "resource": {
        "resourceType": "MedicationStatement",
        "id": "8e389cca-5f8f-4e60-9e2d-42483df547b2",
        "effectivePeriod": {
          "start": "1969-03-23"
        },
        "dosage": [
          {
            "doseAndRate": [
              {
                "doseQuantity": {
                  "value": 1,
                  "unit": "{tbl}",
                  "code": "{tbl}"
                }
              }
            ],
            "timing": {
              "repeat": {
                "frequency": 1,
                "period": 4,
                "periodUnit": "h"
              }
            },
            "text": "1 tablet (25 mg) every 4 to 6 hours as needed",
            "asNeededBoolean": true
          }
        ],
        "status": "active",
        "medicationReference": {
          "reference": "Medication/4c62920a-7aad-40c5-bae7-a031d66deb51",
          "display": "Diphenhydramine hydrochloride 25 mg oral tablet"
        },
        "subject": {
          "reference": "Patient/8682a770-183f-45c4-bb9b-e91d36e28b6d",
          "display": "Eduarda Campos"
        }
      }
    },
    {
      "fullUrl": "urn:uuid:b0a7c486-2e21-4f69-ab8f-86384a02531b",
      "resource": {
        "resourceType": "AllergyIntolerance",
        "id": "b0a7c486-2e21-4f69-ab8f-86384a02531b",
        "meta": {
          "profile": [
            "http://hl7.eu/fhir/eps/StructureDefinition/allergyIntolerance-eu-eps"
          ]
        },
        "code": {
          "coding": [
            {
              "code": "29046",
              "system": "http://snomed.info/sct",
              "display": "Lisinopril"
            }
          ],
          "text": ""
        },
        "category": [
          "medication"
        ],
        "reaction": [
          {
            "manifestation": [
              {
                "coding": [
                  {
                    "code": "49727002",
                    "system": "http://snomed.info/sct",
                    "display": "Cough (finding)"
                  }
                ]
              }
            ]
          }
        ],
        "verificationStatus": {
          "coding": [
            {
              "code": "confirmed"
            }
          ]
        },
        "type": "intolerance",
        "onsetDateTime": "1969-03-27",
        "clinicalStatus": {
          "coding": [
            {
              "code": "active"
            }
          ]
        },
        "patient": {
          "reference": "Patient/8682a770-183f-45c4-bb9b-e91d36e28b6d",
          "display": "Eduarda Campos"
        }
      }
    },
    {
      "fullUrl": "urn:uuid:d25ae2db-59f1-4eea-b50e-b0d686bf0151",
      "resource": {
        "resourceType": "AllergyIntolerance",
        "id": "d25ae2db-59f1-4eea-b50e-b0d686bf0151",
        "meta": {
          "profile": [
            "http://hl7.eu/fhir/eps/StructureDefinition/allergyIntolerance-eu-eps"
          ]
        },
        "code": {
          "coding": [
            {
              "code": "609328004",
              "system": "http://snomed.info/sct",
              "display": "Allergic disposition (finding)"
            }
          ],
          "text": "Allergic disposition"
        },
        "category": [
          "environment"
        ],
        "verificationStatus": {
          "coding": [
            {
              "code": "confirmed"
            }
          ]
        },
        "type": "allergy",
        "onsetDateTime": "1969-03-27",
        "clinicalStatus": {
          "coding": [
            {
              "code": "active"
            }
          ]
        },
        "patient": {
          "reference": "Patient/8682a770-183f-45c4-bb9b-e91d36e28b6d",
          "display": "Eduarda Campos"
        }
      }
    },
    {
      "fullUrl": "urn:uuid:3c500cf4-c311-4800-8619-f19c889eda23",
      "resource": {
        "resourceType": "AllergyIntolerance",
        "id": "3c500cf4-c311-4800-8619-f19c889eda23",
        "meta": {
          "profile": [
            "http://hl7.eu/fhir/eps/StructureDefinition/allergyIntolerance-eu-eps"
          ]
        },
        "code": {
          "coding": [
            {
              "code": "782576004",
              "system": "http://snomed.info/sct",
              "display": "Tree pollen (substance)"
            }
          ],
          "text": "Tree pollen"
        },
        "category": [
          "environment"
        ],
        "verificationStatus": {
          "coding": [
            {
              "code": "confirmed"
            }
          ]
        },
        "type": "allergy",
        "onsetDateTime": "1969-03-27",
        "clinicalStatus": {
          "coding": [
            {
              "code": "active"
            }
          ]
        },
        "patient": {
          "reference": "Patient/8682a770-183f-45c4-bb9b-e91d36e28b6d",
          "display": "Eduarda Campos"
        }
      }
    },
    {
      "fullUrl": "urn:uuid:8de96596-86f5-447f-9767-fdc18cb2be7b",
      "resource": {
        "resourceType": "Procedure",
        "id": "8de96596-86f5-447f-9767-fdc18cb2be7b",
        "meta": {
          "profile": [
            "http://hl7.org/fhir/uv/ips/StructureDefinition/Procedure-uv-ips"
          ]
        },
        "code": {
          "coding": [
            {
              "code": "168594001",
              "system": "http://snomed.info/sct",
              "display": "Plain X-ray of clavicle (procedure)"
            }
          ],
          "text": "Plain X-ray of clavicle"
        },
        "status": "completed",
        "subject": {
          "reference": "Patient/8682a770-183f-45c4-bb9b-e91d36e28b6d",
          "display": "Eduarda Campos"
        },
        "performedDateTime": "2017-02-27"
      }
    },
    {
      "fullUrl": "urn:uuid:0c5cf21f-9114-4b80-9c46-824e781793cc",
      "resource": {
        "resourceType": "Procedure",
        "id": "0c5cf21f-9114-4b80-9c46-824e781793cc",
        "meta": {
          "profile": [
            "http://hl7.org/fhir/uv/ips/StructureDefinition/Procedure-uv-ips"
          ]
        },
        "code": {
          "coding": [
            {
              "code": "305428000",
              "system": "http://snomed.info/sct",
              "display": "Admission to orthopedic department (procedure)"
            }
          ],
          "text": "Admission to orthopedic department"
        },
        "reasonCode": [
          {
            "coding": [
              {
                "code": "58150001",
                "system": "http://snomed.info/sct",
                "display": "Fracture of clavicle (disorder)"
              }
            ]
          }
        ],
        "status": "completed",
        "subject": {
          "reference": "Patient/8682a770-183f-45c4-bb9b-e91d36e28b6d",
          "display": "Eduarda Campos"
        },
        "performedDateTime": "2017-02-27"
      }
    },
    {
      "fullUrl": "urn:uuid:7bdc7e36-f08d-4e68-80da-799125127cbc",
      "resource": {
        "resourceType": "Immunization",
        "id": "7bdc7e36-f08d-4e68-80da-799125127cbc",
        "meta": {
          "profile": [
            "http://hl7.org/fhir/uv/ips/StructureDefinition/Immunization-uv-ips"
          ]
        },
        "vaccineCode": {
          "coding": [
            {
              "code": "1181000221105",
              "system": "http://snomed.info/sct",
              "display": "Vaccine product containing Influenza virus antigen"
            },
            {
              "code": "J07BB02",
              "system": "http://www.whocc.no/atc",
              "display": "Influenza, inactivated, split virus"
            },
            {
              "code": "140",
              "system": "http://hl7.org/fhir/sid/cvx",
              "display": "Influenza  seasonal  injectable  preservative free"
            }
          ],
          "text": "Influenza virus antigen only vaccine product"
        },
        "site": {
          "coding": [
            {
              "code": "73776007",
              "system": "http://snomed.info/sct",
              "display": "Structure of muscle of upper arm"
            }
          ],
          "text": "Structure of muscle of upper arm"
        },
        "route": {
          "coding": [
            {
              "code": "78421000",
              "system": "http://snomed.info/sct",
              "display": "Intramuscular route"
            }
          ],
          "text": "Intramuscular route"
        },
        "status": "completed",
        "patient": {
          "reference": "Patient/8682a770-183f-45c4-bb9b-e91d36e28b6d",
          "display": "Eduarda Campos"
        },
        "occurrenceDateTime": "2024-11-11",
        "lotNumber": "HB-532Eur7W",
        "expirationDate": "2025-09-17"
      }
    },
    {
      "fullUrl": "urn:uuid:100649eb-7218-408b-b81c-037567a21734",
      "resource": {
        "resourceType": "Immunization",
        "id": "100649eb-7218-408b-b81c-037567a21734",
        "meta": {
          "profile": [
            "http://hl7.org/fhir/uv/ips/StructureDefinition/Immunization-uv-ips"
          ]
        },
        "vaccineCode": {
          "coding": [
            {
              "code": "29061000087103",
              "system": "http://snomed.info/sct",
              "display": "Vaccine product containing recombinant viral vector encoding SARS-CoV-2 spike protein"
            },
            {
              "code": "J07BX03",
              "system": "http://www.whocc.no/atc",
              "display": "COVID-19 vector vaccines (non-replicating)"
            },
            {
              "code": "212",
              "system": "http://hl7.org/fhir/sid/cvx",
              "display": "COVID-19 vaccine  vector-nr  rS-Ad26  PF  0.5 mL"
            }
          ],
          "text": "COVID-19 non-replicating viral vector vaccine"
        },
        "site": {
          "coding": [
            {
              "code": "73776007",
              "system": "http://snomed.info/sct",
              "display": "Structure of muscle of upper arm"
            }
          ],
          "text": "Structure of muscle of upper arm"
        },
        "route": {
          "coding": [
            {
              "code": "78421000",
              "system": "http://snomed.info/sct",
              "display": "Intramuscular route"
            }
          ],
          "text": "Intramuscular route"
        },
        "status": "completed",
        "patient": {
          "reference": "Patient/8682a770-183f-45c4-bb9b-e91d36e28b6d",
          "display": "Eduarda Campos"
        },
        "occurrenceDateTime": "2021-04-26",
        "lotNumber": "LJ-x7oNK55",
        "expirationDate": "2021-06-09"
      }
    },
    {
      "fullUrl": "urn:uuid:597b75d3-1549-4b8e-9a99-d515b633fb2c",
      "resource": {
        "resourceType": "Immunization",
        "id": "597b75d3-1549-4b8e-9a99-d515b633fb2c",
        "meta": {
          "profile": [
            "http://hl7.org/fhir/uv/ips/StructureDefinition/Immunization-uv-ips"
          ]
        },
        "vaccineCode": {
          "coding": [
            {
              "code": "777725002",
              "system": "http://snomed.info/sct",
              "display": "Vaccine product containing only Clostridium tetani toxoid antigen adsorbed"
            },
            {
              "code": "J07AM51",
              "system": "http://www.whocc.no/atc",
              "display": "Diphtheria-tetanus vaccines, adult type"
            },
            {
              "code": "113",
              "system": "http://hl7.org/fhir/sid/cvx",
              "display": "Td (adult)  5 Lf tetanus toxoid  preservative free  adsorbed"
            }
          ],
          "text": "Clostridium tetani toxoid antigen adsorbed only vaccine product"
        },
        "site": {
          "coding": [
            {
              "code": "73776007",
              "system": "http://snomed.info/sct",
              "display": "Structure of muscle of upper arm"
            }
          ],
          "text": "Structure of muscle of upper arm"
        },
        "route": {
          "coding": [
            {
              "code": "78421000",
              "system": "http://snomed.info/sct",
              "display": "Intramuscular route"
            }
          ],
          "text": "Intramuscular route"
        },
        "status": "completed",
        "patient": {
          "reference": "Patient/8682a770-183f-45c4-bb9b-e91d36e28b6d",
          "display": "Eduarda Campos"
        },
        "occurrenceDateTime": "2017-10-02",
        "lotNumber": "YK-NjDm5Gq",
        "expirationDate": "2018-04-01"
      }
    },
    {
      "fullUrl": "urn:uuid:5afe7861-233e-4b06-9e1f-7fe9855e5054",
      "resource": {
        "resourceType": "Immunization",
        "id": "5afe7861-233e-4b06-9e1f-7fe9855e5054",
        "meta": {
          "profile": [
            "http://hl7.org/fhir/uv/ips/StructureDefinition/Immunization-uv-ips"
          ]
        },
        "vaccineCode": {
          "coding": [
            {
              "code": "2221000221107",
              "system": "http://snomed.info/sct",
              "display": "Live attenuated Varicella-zoster vaccine"
            },
            {
              "code": "J07BK02",
              "system": "http://www.whocc.no/atc",
              "display": "Varicella-zoster vaccines"
            },
            {
              "code": "121",
              "system": "http://hl7.org/fhir/sid/cvx",
              "display": "zoster vaccine  live"
            }
          ],
          "text": "Live attenuated Human alphaherpesvirus 3 only vaccine product"
        },
        "site": {
          "coding": [
            {
              "code": "368208006",
              "system": "http://snomed.info/sct",
              "display": "Structure of skin of upper arm"
            }
          ],
          "text": "Structure of skin of upper arm"
        },
        "route": {
          "coding": [
            {
              "code": "34206005",
              "system": "http://snomed.info/sct",
              "display": "Subcutaneous route"
            }
          ],
          "text": "Subcutaneous route"
        },
        "status": "completed",
        "patient": {
          "reference": "Patient/8682a770-183f-45c4-bb9b-e91d36e28b6d",
          "display": "Eduarda Campos"
        },
        "occurrenceDateTime": "2017-10-02",
        "lotNumber": "HD-qrDf8eT",
        "expirationDate": "2018-06-27"
      }
    }
  ],
  "type": "document",
  "timestamp": "2025-06-16T17:28:57Z"
}
