{
  "resourceType": "Bundle",
  "id": "Instance-Bundle-3798f4cb-235e-4890-984b-1fb7c51165a9",
  "meta": {
    "profile": [
      "http://hl7.eu/fhir/eps/StructureDefinition/bundle-eu-eps"
    ]
  },
  "identifier": {
    "assigner": {
      "display": "HL7 Europe"
    },
    "system": "urn:oid:2.16.840.1.113883.2.51.999",
    "value": "4096f510-e924-45e5-be97-ddf412e86f56"
  },
  "entry": [
    {
      "fullUrl": "urn:uuid:398c45bc-383c-4a57-8dbe-8765899a87f5",
      "resource": {
        "resourceType": "Composition",
        "id": "398c45bc-383c-4a57-8dbe-8765899a87f5",
        "meta": {
          "profile": [
            "http://hl7.eu/fhir/eps/StructureDefinition/composition-eu-eps"
          ]
        },
        "identifier": {
          "assigner": {
            "display": "HL7 Europe"
          },
          "system": "urn:oid:2.16.840.1.113883.2.51.999",
          "value": "a03e5374-3f04-4f66-bf69-f47ad2d88ac9"
        },
        "type": {
          "coding": [
            {
              "system": "http://loinc.org",
              "code": "60591-5",
              "display": "European Patient Summary"
            }
          ],
          "text": "European Patient Summary"
        },
        "author": [
          {
            "reference": "urn:uuid:ee053991-ae4f-4dbd-8840-565e15687bbe"
          }
        ],
        "section": [
          {
            "text": {
              "status": "generated",
              "div": "<div xmlns=\"http://www.w3.org/1999/xhtml\"><table class=\"hl7__ips\"><tr><td>Acute ST segment elevation myocardial infarction</td><td>2022-07-11</td><td>active</td></tr><tr><td>Essential hypertension</td><td>2022-01-01</td><td>active</td></tr><tr><td>Osteoarthritis of knee</td><td>2013-06-08</td><td>active</td></tr><tr><td>Myocardial infarction</td><td>2022-07-11</td><td>inactive</td></tr><tr><td>COVID-19</td><td>2021-04-07</td><td>inactive</td></tr><tr><td>Gingivitis</td><td>2020-12-26</td><td>inactive</td></tr><tr><td>Viral sinusitis</td><td>2017-12-15</td><td>inactive</td></tr></table></div>"
            },
            "entry": [
              {
                "reference": "urn:uuid:6be507c1-7708-49db-9857-cfdca5cd6f5b"
              },
              {
                "reference": "urn:uuid:c443e6dd-79bc-434d-901c-8c4e271a05a9"
              },
              {
                "reference": "urn:uuid:1291dea2-314c-48e8-9c26-ced3ff48081a"
              },
              {
                "reference": "urn:uuid:214da807-b010-44ac-a303-ccc5f2f60c2b"
              },
              {
                "reference": "urn:uuid:1d16d8d2-36bf-49a8-91f6-862978b41529"
              },
              {
                "reference": "urn:uuid:88f406e6-29b0-4225-84bf-016a0df13185"
              },
              {
                "reference": "urn:uuid:7d4ed3c6-54b0-4b5e-9ed7-aeab4cf0feb6"
              }
            ],
            "code": {
              "coding": [
                {
                  "system": "http://loinc.org",
                  "code": "11450-4",
                  "display": "Problem list - Reported"
                }
              ]
            },
            "title": "Problem list"
          },
          {
            "text": {
              "status": "generated",
              "div": "<div xmlns=\"http://www.w3.org/1999/xhtml\"><table class=\"hl7__ips\"><tr><td>Hydrochlorothiazide 25 mg oral tablet</td><td>2025-01-18</td><td>Oral tablet</td><td>1 tablet (25 mg) by mouth once daily\"</td><td>Reason: Essential hypertension (disorder)</td></tr><tr><td>Albuterol (as albuterol sulfate) 210 microgram/mL solution for inhalation</td><td>2025-01-18</td><td>Solution for inhalation</td><td>2 puffs (420 micrograms) every 4 to 6 hours as needed\"</td><td>Reason: Childhood asthma (disorder)</td></tr><tr><td>120 ACTUAT fluticasone propionate 0.044 MG/ACTUAT Metered Dose Inhaler [Flovent]</td><td>2025-01-18</td><td></td><td>44 mcg per actuation, 2 actuations twice daily\"</td><td>Reason: Childhood asthma (disorder)</td></tr><tr><td>aspirin 81 MG Oral Tablet</td><td>2022-07-11</td><td></td><td>1 tablet (81 mg) once daily\"</td><td></td></tr><tr><td>Metoprolol tartrate 50 mg oral tablet</td><td>2022-07-11</td><td>Oral tablet</td><td>1 tablet (50 mg) twice daily\"</td><td></td></tr><tr><td>Pravastatin sodium 40 mg oral tablet</td><td>2022-07-11</td><td>Oral tablet</td><td>1 tablet (40 mg) by mouth once daily\"</td><td></td></tr><tr><td>Losartan potassium 50 mg oral tablet</td><td>2022-07-11</td><td>Oral tablet</td><td>1 tablet (50 mg) by mouth once daily\"</td><td></td></tr><tr><td>Naproxen sodium 220 MG Oral Tablet</td><td>2013-06-08</td><td></td><td>1 tablet (220 mg) every 8 to 12 hours as needed\"</td><td>Reason: Osteoarthritis of knee (disorder)</td></tr><tr><td>Diphenhydramine hydrochloride 25 mg oral tablet</td><td>1966-04-13</td><td>Oral tablet</td><td>1 tablet (25 mg) by mouth every 6 hours as needed\"</td><td></td></tr></table></div>"
            },
            "entry": [
              {
                "reference": "urn:uuid:03fca58b-3147-4f27-b312-2a57530ee841"
              },
              {
                "reference": "urn:uuid:f3a4072e-d127-409c-aec6-c4cba2a54520"
              },
              {
                "reference": "urn:uuid:842ab700-0eef-4ada-b2f0-6d3176e74f19"
              },
              {
                "reference": "urn:uuid:c0b0b9aa-6ef6-44c2-9a90-d7bb148aac97"
              },
              {
                "reference": "urn:uuid:4f42daab-3b2e-4236-a3d3-3a56202d0471"
              },
              {
                "reference": "urn:uuid:83386a51-94e6-41d5-8095-1a3ee147d4a0"
              },
              {
                "reference": "urn:uuid:a766f1a6-7f6b-401b-8561-8568fc8e6941"
              },
              {
                "reference": "urn:uuid:fcb06a15-87fd-4ccd-bf7e-a9bc38620622"
              },
              {
                "reference": "urn:uuid:b99afeaf-7f9b-48d8-a77b-7f9d568d6952"
              }
            ],
            "code": {
              "coding": [
                {
                  "system": "http://loinc.org",
                  "code": "10160-0",
                  "display": "History of Medication use Narrative"
                }
              ]
            },
            "title": "Medication list"
          },
          {
            "text": {
              "status": "generated",
              "div": "<div xmlns=\"http://www.w3.org/1999/xhtml\"><table class=\"hl7__ips\"><tr><td>Cow's milk</td><td>1964-03-27</td><td>active</td><td>food</td></tr><tr><td>Mold</td><td>1964-03-27</td><td>active</td><td>environment</td></tr><tr><td>Grass pollen</td><td>1964-03-27</td><td>active</td><td>environment</td></tr><tr><td>House dust mite</td><td>1964-03-27</td><td>active</td><td>environment</td></tr><tr><td>Animal dander</td><td>1964-03-27</td><td>active</td><td>environment</td></tr><tr><td>Bee venom</td><td>1964-03-27</td><td>active</td><td>environment</td></tr><tr><td>Wheat</td><td>1964-03-27</td><td>active</td><td>food</td></tr><tr><td>Allergic disposition</td><td>1964-03-27</td><td>active</td><td>environment</td></tr><tr><td>Fish</td><td>1964-03-27</td><td>active</td><td>food</td></tr><tr><td>Peanut</td><td>1964-03-27</td><td>active</td><td>food</td></tr><tr><td>Tree pollen</td><td>1964-03-27</td><td>active</td><td>environment</td></tr></table></div>"
            },
            "entry": [
              {
                "reference": "urn:uuid:e854a31f-d6a6-4510-a2c9-3abd4ec64341"
              },
              {
                "reference": "urn:uuid:17bb5982-a915-414d-a128-fa2c96e293fb"
              },
              {
                "reference": "urn:uuid:406712dd-da67-46cc-925f-4108c35cf3a9"
              },
              {
                "reference": "urn:uuid:e84786ad-8f22-49cd-9b4e-3b5ce102fe2e"
              },
              {
                "reference": "urn:uuid:14e3bfdd-9487-4d0e-9854-0d16c59ce2dc"
              },
              {
                "reference": "urn:uuid:37797048-a425-4c11-8975-417074e79c0a"
              },
              {
                "reference": "urn:uuid:a1d34128-abe7-4e2d-84d2-63e3b0186c80"
              },
              {
                "reference": "urn:uuid:d5a3e1c9-b4f8-4f83-9433-6c07bede3abc"
              },
              {
                "reference": "urn:uuid:1c85d4de-d81e-4f05-806a-be665900e4f5"
              },
              {
                "reference": "urn:uuid:9af421e5-7091-44dd-80b3-20171b46afe3"
              },
              {
                "reference": "urn:uuid:670ee7f7-0ae8-4b2e-afab-c388265adf0f"
              }
            ],
            "code": {
              "coding": [
                {
                  "system": "http://loinc.org",
                  "code": "48765-2",
                  "display": "Allergies and adverse reactions Document"
                }
              ]
            },
            "title": "Allergies and Intolerances"
          },
          {
            "text": {
              "status": "generated",
              "div": "<div xmlns=\"http://www.w3.org/1999/xhtml\"><table class=\"hl7__ips\"><tr><td>Laboratory test</td><td>2022-07-11</td><td>-</td></tr><tr><td>Electrocardiographic procedure</td><td>2022-07-11</td><td>-</td></tr><tr><td>Angiography of coronary artery</td><td>2022-07-11</td><td>-</td></tr><tr><td>Diagnostic assessment</td><td>2022-07-11</td><td>-</td></tr><tr><td>Oxygen administration by mask</td><td>2022-07-11</td><td>-</td></tr><tr><td>Plain X-ray of chest</td><td>2022-07-11</td><td>-</td></tr><tr><td>Percutaneous coronary intervention</td><td>2022-07-11</td><td>Acute ST segment elevation myocardial infarction (disorder)</td></tr><tr><td>Transthoracic echocardiography</td><td>2022-07-11</td><td>-</td></tr><tr><td>Consultation for treatment</td><td>2022-07-11</td><td>-</td></tr><tr><td>Assessment of cardiac status using monitoring device</td><td>2022-07-11</td><td>-</td></tr><tr><td>Depression screening</td><td>2017-12-23</td><td>-</td></tr><tr><td>Assessment of health and social care needs</td><td>2017-12-23</td><td>-</td></tr><tr><td>Screening for drug abuse</td><td>2017-12-23</td><td>-</td></tr><tr><td>Assessment of substance use</td><td>2017-12-23</td><td>-</td></tr></table></div>"
            },
            "entry": [
              {
                "reference": "urn:uuid:46d1fb9d-1d6a-4e8d-a2a7-8f045c14f2a3"
              },
              {
                "reference": "urn:uuid:309dfc76-8ada-460a-9708-ece83f2ade85"
              },
              {
                "reference": "urn:uuid:4e6a0af9-6dc4-414f-aa23-ad523fac8846"
              },
              {
                "reference": "urn:uuid:bc9db067-7e74-4153-b040-f3b1ecab9a3b"
              },
              {
                "reference": "urn:uuid:759cb5b1-44ba-4568-a795-bdbe30a2b28e"
              },
              {
                "reference": "urn:uuid:18b427b2-360a-444c-96c8-4297e967ffa0"
              },
              {
                "reference": "urn:uuid:95c7eaf9-c27c-461f-9fd1-eac33f4757e0"
              },
              {
                "reference": "urn:uuid:b359b665-d1af-44bd-a37b-f9d41a5c7608"
              },
              {
                "reference": "urn:uuid:73affc9d-db4f-4916-869e-2e9d67c3aace"
              },
              {
                "reference": "urn:uuid:521d57b2-904a-4e2d-b8f5-a0e494c8be01"
              },
              {
                "reference": "urn:uuid:a354a3e3-cc2a-4e3f-850f-ee0095ec9d9d"
              },
              {
                "reference": "urn:uuid:e1a5dad3-ca68-4ce1-b48f-0a59c5d406f9"
              },
              {
                "reference": "urn:uuid:4158b077-4f6d-4775-8be3-a542dcc58474"
              },
              {
                "reference": "urn:uuid:7cd3cb0f-4e24-4b94-af15-64eed48f298a"
              }
            ],
            "code": {
              "coding": [
                {
                  "system": "http://loinc.org",
                  "code": "47519-4",
                  "display": "History of Procedures Document"
                }
              ]
            },
            "title": "Procedure History list"
          },
          {
            "text": {
              "status": "generated",
              "div": "<div xmlns=\"http://www.w3.org/1999/xhtml\"><table class=\"hl7__ips\"><tr><td>Clostridium tetani toxoid antigen adsorbed only vaccine product</td><td>2025-01-18</td></tr><tr><td>Influenza virus antigen only vaccine product</td><td>2025-01-18</td></tr><tr><td>SARS-CoV-2 mRNA vaccine</td><td>2021-06-19</td></tr></table></div>"
            },
            "entry": [
              {
                "reference": "urn:uuid:c0c22388-d0bc-4d0c-b399-dbff4a592253"
              },
              {
                "reference": "urn:uuid:53e1b5bf-fb43-418a-9fa3-c56373e12110"
              },
              {
                "reference": "urn:uuid:5ed02e60-a623-41e4-b509-2b415b673334"
              }
            ],
            "code": {
              "coding": [
                {
                  "system": "http://loinc.org",
                  "code": "11369-6",
                  "display": "History of Immunization Narrative"
                }
              ]
            },
            "title": "Immunizations list"
          }
        ],
        "title": "European Patient Summary",
        "status": "final",
        "subject": {
          "reference": "urn:uuid:e4e9566c-6da3-42d4-ba37-9932d7074708"
        },
        "custodian": {
          "reference": "urn:uuid:e13a4ce2-91fb-4a34-b07a-7e524781ef89"
        },
        "date": "2025-06-16T17:28:57Z",
        "confidentiality": "N"
      }
    },
    {
      "fullUrl": "urn:uuid:e4e9566c-6da3-42d4-ba37-9932d7074708",
      "resource": {
        "resourceType": "Patient",
        "id": "e4e9566c-6da3-42d4-ba37-9932d7074708",
        "meta": {
          "profile": [
            "http://hl7.eu/fhir/eps/StructureDefinition/patient-eu-eps"
          ]
        },
        "identifier": [
          {
            "type": {
              "coding": [
                {
                  "code": "NI",
                  "system": "http://terminology.hl7.org/CodeSystem/v2-0203"
                }
              ]
            },
            "system": "http://ec.europa.eu/identifier/eci",
            "value": "7881-148846-5"
          },
          {
            "type": {
              "coding": [
                {
                  "code": "MR",
                  "system": "http://terminology.hl7.org/CodeSystem/v2-0203"
                }
              ]
            },
            "system": "http://local.setting.eu/identifier",
            "value": "bed37cba-fdac-83fd-b384-1ec6ce409df3"
          }
        ],
        "name": [
          {
            "given": [
              "Oskar"
            ],
            "family": "Sæther",
            "text": "Oskar Sæther"
          }
        ],
        "address": [
          {
            "line": [
              "Lunde terrasse 228"
            ],
            "use": "home",
            "type": "physical",
            "city": "Porsgrunn",
            "postalCode": "3941",
            "country": "Norway"
          }
        ],
        "telecom": [
          {
            "system": "phone",
            "value": "+47 976 44 157"
          }
        ],
        "gender": "male",
        "birthDate": "1961-02-02"
      }
    },
    {
      "fullUrl": "urn:uuid:ee053991-ae4f-4dbd-8840-565e15687bbe",
      "resource": {
        "resourceType": "PractitionerRole",
        "id": "ee053991-ae4f-4dbd-8840-565e15687bbe",
        "meta": {
          "profile": [
            "http://hl7.eu/fhir/base/StructureDefinition/practitionerRole-eu"
          ]
        },
        "practitioner": {
          "reference": "urn:uuid:06113278-5c05-4ebf-9dc1-825898396d92"
        },
        "organization": {
          "reference": "urn:uuid:e13a4ce2-91fb-4a34-b07a-7e524781ef89"
        }
      }
    },
    {
      "fullUrl": "urn:uuid:06113278-5c05-4ebf-9dc1-825898396d92",
      "resource": {
        "resourceType": "Practitioner",
        "id": "06113278-5c05-4ebf-9dc1-825898396d92",
        "meta": {
          "profile": [
            "http://hl7.eu/fhir/base/StructureDefinition/practitioner-eu"
          ]
        },
        "name": [
          {
            "prefix": [
              "Dr."
            ],
            "given": [
              "Hel"
            ],
            "family": "Ping"
          }
        ]
      }
    },
    {
      "fullUrl": "urn:uuid:6be507c1-7708-49db-9857-cfdca5cd6f5b",
      "resource": {
        "resourceType": "Condition",
        "id": "6be507c1-7708-49db-9857-cfdca5cd6f5b",
        "meta": {
          "profile": [
            "http://hl7.org/fhir/uv/ips/StructureDefinition/Condition-uv-ips"
          ]
        },
        "category": [
          {
            "coding": [
              {
                "code": "problem-list-item",
                "system": "http://terminology.hl7.org/CodeSystem/condition-category",
                "display": "Problem List Item"
              }
            ]
          }
        ],
        "code": {
          "coding": [
            {
              "code": "401303003",
              "system": "http://snomed.info/sct",
              "display": "Acute ST segment elevation myocardial infarction (disorder)"
            }
          ],
          "text": "Acute ST segment elevation myocardial infarction"
        },
        "onsetDateTime": "2022-07-11",
        "clinicalStatus": {
          "coding": [
            {
              "code": "active",
              "system": "http://terminology.hl7.org/CodeSystem/condition-clinical"
            }
          ]
        },
        "subject": {
          "reference": "Patient/e4e9566c-6da3-42d4-ba37-9932d7074708",
          "display": "Oskar Sæther"
        },
        "asserter": {
          "reference": "Practitioner/06113278-5c05-4ebf-9dc1-825898396d92",
          "display": "Dr. Hel Ping"
        }
      }
    },
    {
      "fullUrl": "urn:uuid:c443e6dd-79bc-434d-901c-8c4e271a05a9",
      "resource": {
        "resourceType": "Condition",
        "id": "c443e6dd-79bc-434d-901c-8c4e271a05a9",
        "meta": {
          "profile": [
            "http://hl7.org/fhir/uv/ips/StructureDefinition/Condition-uv-ips"
          ]
        },
        "category": [
          {
            "coding": [
              {
                "code": "problem-list-item",
                "system": "http://terminology.hl7.org/CodeSystem/condition-category",
                "display": "Problem List Item"
              }
            ]
          }
        ],
        "code": {
          "coding": [
            {
              "code": "59621000",
              "system": "http://snomed.info/sct",
              "display": "Essential hypertension (disorder)"
            }
          ],
          "text": "Essential hypertension"
        },
        "onsetDateTime": "2022-01-01",
        "clinicalStatus": {
          "coding": [
            {
              "code": "active",
              "system": "http://terminology.hl7.org/CodeSystem/condition-clinical"
            }
          ]
        },
        "subject": {
          "reference": "Patient/e4e9566c-6da3-42d4-ba37-9932d7074708",
          "display": "Oskar Sæther"
        },
        "asserter": {
          "reference": "Practitioner/06113278-5c05-4ebf-9dc1-825898396d92",
          "display": "Dr. Hel Ping"
        }
      }
    },
    {
      "fullUrl": "urn:uuid:1291dea2-314c-48e8-9c26-ced3ff48081a",
      "resource": {
        "resourceType": "Condition",
        "id": "1291dea2-314c-48e8-9c26-ced3ff48081a",
        "meta": {
          "profile": [
            "http://hl7.org/fhir/uv/ips/StructureDefinition/Condition-uv-ips"
          ]
        },
        "category": [
          {
            "coding": [
              {
                "code": "problem-list-item",
                "system": "http://terminology.hl7.org/CodeSystem/condition-category",
                "display": "Problem List Item"
              }
            ]
          }
        ],
        "code": {
          "coding": [
            {
              "code": "239873007",
              "system": "http://snomed.info/sct",
              "display": "Osteoarthritis of knee (disorder)"
            }
          ],
          "text": "Osteoarthritis of knee"
        },
        "onsetDateTime": "2013-06-08",
        "clinicalStatus": {
          "coding": [
            {
              "code": "active",
              "system": "http://terminology.hl7.org/CodeSystem/condition-clinical"
            }
          ]
        },
        "subject": {
          "reference": "Patient/e4e9566c-6da3-42d4-ba37-9932d7074708",
          "display": "Oskar Sæther"
        },
        "asserter": {
          "reference": "Practitioner/06113278-5c05-4ebf-9dc1-825898396d92",
          "display": "Dr. Hel Ping"
        }
      }
    },
    {
      "fullUrl": "urn:uuid:214da807-b010-44ac-a303-ccc5f2f60c2b",
      "resource": {
        "resourceType": "Condition",
        "id": "214da807-b010-44ac-a303-ccc5f2f60c2b",
        "meta": {
          "profile": [
            "http://hl7.org/fhir/uv/ips/StructureDefinition/Condition-uv-ips"
          ]
        },
        "category": [
          {
            "coding": [
              {
                "code": "problem-list-item",
                "system": "http://terminology.hl7.org/CodeSystem/condition-category",
                "display": "Problem List Item"
              }
            ]
          }
        ],
        "code": {
          "coding": [
            {
              "code": "22298006",
              "system": "http://snomed.info/sct",
              "display": "Myocardial infarction (disorder)"
            }
          ],
          "text": "Myocardial infarction"
        },
        "onsetDateTime": "2022-07-11",
        "clinicalStatus": {
          "coding": [
            {
              "code": "inactive",
              "system": "http://terminology.hl7.org/CodeSystem/condition-clinical"
            }
          ]
        },
        "subject": {
          "reference": "Patient/e4e9566c-6da3-42d4-ba37-9932d7074708",
          "display": "Oskar Sæther"
        },
        "asserter": {
          "reference": "Practitioner/06113278-5c05-4ebf-9dc1-825898396d92",
          "display": "Dr. Hel Ping"
        }
      }
    },
    {
      "fullUrl": "urn:uuid:1d16d8d2-36bf-49a8-91f6-862978b41529",
      "resource": {
        "resourceType": "Condition",
        "id": "1d16d8d2-36bf-49a8-91f6-862978b41529",
        "meta": {
          "profile": [
            "http://hl7.org/fhir/uv/ips/StructureDefinition/Condition-uv-ips"
          ]
        },
        "category": [
          {
            "coding": [
              {
                "code": "problem-list-item",
                "system": "http://terminology.hl7.org/CodeSystem/condition-category",
                "display": "Problem List Item"
              }
            ]
          }
        ],
        "code": {
          "coding": [
            {
              "code": "840539006",
              "system": "http://snomed.info/sct",
              "display": "Disease caused by severe acute respiratory syndrome coronavirus 2 (disorder)"
            }
          ],
          "text": "COVID-19"
        },
        "onsetDateTime": "2021-04-07",
        "clinicalStatus": {
          "coding": [
            {
              "code": "inactive",
              "system": "http://terminology.hl7.org/CodeSystem/condition-clinical"
            }
          ]
        },
        "subject": {
          "reference": "Patient/e4e9566c-6da3-42d4-ba37-9932d7074708",
          "display": "Oskar Sæther"
        },
        "asserter": {
          "reference": "Practitioner/06113278-5c05-4ebf-9dc1-825898396d92",
          "display": "Dr. Hel Ping"
        }
      }
    },
    {
      "fullUrl": "urn:uuid:88f406e6-29b0-4225-84bf-016a0df13185",
      "resource": {
        "resourceType": "Condition",
        "id": "88f406e6-29b0-4225-84bf-016a0df13185",
        "meta": {
          "profile": [
            "http://hl7.org/fhir/uv/ips/StructureDefinition/Condition-uv-ips"
          ]
        },
        "category": [
          {
            "coding": [
              {
                "code": "problem-list-item",
                "system": "http://terminology.hl7.org/CodeSystem/condition-category",
                "display": "Problem List Item"
              }
            ]
          }
        ],
        "code": {
          "coding": [
            {
              "code": "66383009",
              "system": "http://snomed.info/sct",
              "display": "Gingivitis (disorder)"
            }
          ],
          "text": "Gingivitis"
        },
        "onsetDateTime": "2020-12-26",
        "clinicalStatus": {
          "coding": [
            {
              "code": "inactive",
              "system": "http://terminology.hl7.org/CodeSystem/condition-clinical"
            }
          ]
        },
        "subject": {
          "reference": "Patient/e4e9566c-6da3-42d4-ba37-9932d7074708",
          "display": "Oskar Sæther"
        },
        "asserter": {
          "reference": "Practitioner/06113278-5c05-4ebf-9dc1-825898396d92",
          "display": "Dr. Hel Ping"
        }
      }
    },
    {
      "fullUrl": "urn:uuid:7d4ed3c6-54b0-4b5e-9ed7-aeab4cf0feb6",
      "resource": {
        "resourceType": "Condition",
        "id": "7d4ed3c6-54b0-4b5e-9ed7-aeab4cf0feb6",
        "meta": {
          "profile": [
            "http://hl7.org/fhir/uv/ips/StructureDefinition/Condition-uv-ips"
          ]
        },
        "category": [
          {
            "coding": [
              {
                "code": "problem-list-item",
                "system": "http://terminology.hl7.org/CodeSystem/condition-category",
                "display": "Problem List Item"
              }
            ]
          }
        ],
        "code": {
          "coding": [
            {
              "code": "444814009",
              "system": "http://snomed.info/sct",
              "display": "Viral sinusitis (disorder)"
            }
          ],
          "text": "Viral sinusitis"
        },
        "onsetDateTime": "2017-12-15",
        "clinicalStatus": {
          "coding": [
            {
              "code": "inactive",
              "system": "http://terminology.hl7.org/CodeSystem/condition-clinical"
            }
          ]
        },
        "subject": {
          "reference": "Patient/e4e9566c-6da3-42d4-ba37-9932d7074708",
          "display": "Oskar Sæther"
        },
        "asserter": {
          "reference": "Practitioner/06113278-5c05-4ebf-9dc1-825898396d92",
          "display": "Dr. Hel Ping"
        }
      }
    },
    {
      "fullUrl": "urn:uuid:6e16496a-47fa-4e47-8f41-7fd3773566cf",
      "resource": {
        "resourceType": "Medication",
        "id": "6e16496a-47fa-4e47-8f41-7fd3773566cf",
        "meta": {
          "profile": [
            "http://hl7.org/fhir/uv/ips/StructureDefinition/Medication-uv-ips"
          ]
        },
        "code": {
          "coding": [
            {
              "code": "310798",
              "system": "http://www.nlm.nih.gov/research/umls/rxnorm",
              "display": "hydrochlorothiazide 25 MG Oral Tablet"
            },
            {
              "code": "376209006",
              "system": "http://snomed.info/sct",
              "display": "Product containing precisely hydrochlorothiazide 25 milligram/1 each conventional release oral tablet (clinical drug)"
            }
          ],
          "text": "Hydrochlorothiazide 25 mg oral tablet"
        },
        "form": {
          "coding": [
            {
              "code": "421026006",
              "system": "http://snomed.info/sct",
              "display": "Oral tablet"
            }
          ]
        },
        "ingredient": [
          {
            "itemCodeableConcept": {
              "coding": [
                {
                  "code": "387525002",
                  "system": "http://snomed.info/sct",
                  "display": "Hydrochlorothiazide"
                }
              ]
            },
            "isActive": true
          }
        ]
      }
    },
    {
      "fullUrl": "urn:uuid:03fca58b-3147-4f27-b312-2a57530ee841",
      "resource": {
        "resourceType": "MedicationStatement",
        "id": "03fca58b-3147-4f27-b312-2a57530ee841",
        "effectivePeriod": {
          "start": "2025-01-18"
        },
        "dosage": [
          {
            "doseAndRate": [
              {
                "doseQuantity": {
                  "value": 1,
                  "unit": "{tbl}",
                  "code": "{tbl}"
                }
              }
            ],
            "timing": {
              "repeat": {
                "frequency": 1,
                "period": 1,
                "periodUnit": "d"
              }
            },
            "text": "1 tablet (25 mg) by mouth once daily",
            "asNeededBoolean": false
          }
        ],
        "reasonCode": [
          {
            "coding": [
              {
                "code": "59621000",
                "system": "http://snomed.info/sct",
                "display": "Essential hypertension (disorder)"
              }
            ]
          }
        ],
        "status": "active",
        "medicationReference": {
          "reference": "Medication/6e16496a-47fa-4e47-8f41-7fd3773566cf",
          "display": "Hydrochlorothiazide 25 mg oral tablet"
        },
        "subject": {
          "reference": "Patient/e4e9566c-6da3-42d4-ba37-9932d7074708",
          "display": "Oskar Sæther"
        }
      }
    },
    {
      "fullUrl": "urn:uuid:2612fc1a-3b74-4ad1-a573-4ec594d50c42",
      "resource": {
        "resourceType": "Medication",
        "id": "2612fc1a-3b74-4ad1-a573-4ec594d50c42",
        "meta": {
          "profile": [
            "http://hl7.org/fhir/uv/ips/StructureDefinition/Medication-uv-ips"
          ]
        },
        "code": {
          "coding": [
            {
              "code": "351137",
              "system": "http://www.nlm.nih.gov/research/umls/rxnorm",
              "display": "albuterol 0.21 MG/ML Inhalation Solution"
            },
            {
              "code": "375336001",
              "system": "http://snomed.info/sct",
              "display": "Product containing precisely salbutamol (as salbutamol sulfate) 210 microgram/1 milliliter conventional release solution for inhalation (clinical drug)"
            }
          ],
          "text": "Albuterol (as albuterol sulfate) 210 microgram/mL solution for inhalation"
        },
        "form": {
          "coding": [
            {
              "code": "420641004",
              "system": "http://snomed.info/sct",
              "display": "Solution for inhalation"
            }
          ]
        },
        "ingredient": [
          {
            "itemCodeableConcept": {
              "coding": [
                {
                  "code": "48474002",
                  "system": "http://snomed.info/sct",
                  "display": "Albuterol sulfate"
                }
              ]
            },
            "isActive": true
          }
        ]
      }
    },
    {
      "fullUrl": "urn:uuid:f3a4072e-d127-409c-aec6-c4cba2a54520",
      "resource": {
        "resourceType": "MedicationStatement",
        "id": "f3a4072e-d127-409c-aec6-c4cba2a54520",
        "effectivePeriod": {
          "start": "2025-01-18"
        },
        "dosage": [
          {
            "doseAndRate": [
              {
                "doseQuantity": {
                  "value": 420,
                  "unit": "microgram",
                  "code": "ug"
                }
              }
            ],
            "timing": {
              "repeat": {
                "frequency": 1,
                "period": 4,
                "periodUnit": "h"
              }
            },
            "text": "2 puffs (420 micrograms) every 4 to 6 hours as needed",
            "asNeededBoolean": true
          }
        ],
        "reasonCode": [
          {
            "coding": [
              {
                "code": "233678006",
                "system": "http://snomed.info/sct",
                "display": "Childhood asthma (disorder)"
              }
            ]
          }
        ],
        "status": "active",
        "medicationReference": {
          "reference": "Medication/2612fc1a-3b74-4ad1-a573-4ec594d50c42",
          "display": "Albuterol (as albuterol sulfate) 210 microgram/mL solution for inhalation"
        },
        "subject": {
          "reference": "Patient/e4e9566c-6da3-42d4-ba37-9932d7074708",
          "display": "Oskar Sæther"
        }
      }
    },
    {
      "fullUrl": "urn:uuid:257f6f6e-f1d7-43eb-a541-8bac8bf4daae",
      "resource": {
        "resourceType": "Medication",
        "id": "257f6f6e-f1d7-43eb-a541-8bac8bf4daae",
        "meta": {
          "profile": [
            "http://hl7.org/fhir/uv/ips/StructureDefinition/Medication-uv-ips"
          ]
        },
        "code": {
          "coding": [
            {
              "code": "895996",
              "system": "http://www.nlm.nih.gov/research/umls/rxnorm",
              "display": "120 ACTUAT fluticasone propionate 0.044 MG/ACTUAT Metered Dose Inhaler [Flovent]"
            }
          ],
          "text": "120 ACTUAT fluticasone propionate 0.044 MG/ACTUAT Metered Dose Inhaler [Flovent]"
        }
      }
    },
    {
      "fullUrl": "urn:uuid:842ab700-0eef-4ada-b2f0-6d3176e74f19",
      "resource": {
        "resourceType": "MedicationStatement",
        "id": "842ab700-0eef-4ada-b2f0-6d3176e74f19",
        "effectivePeriod": {
          "start": "2025-01-18"
        },
        "dosage": [
          {
            "doseAndRate": [
              {
                "doseQuantity": {
                  "value": 88,
                  "unit": "mcg",
                  "code": "mcg"
                }
              }
            ],
            "timing": {
              "repeat": {
                "frequency": 2,
                "period": 1,
                "periodUnit": "d"
              }
            },
            "text": "44 mcg per actuation, 2 actuations twice daily",
            "asNeededBoolean": false
          }
        ],
        "reasonCode": [
          {
            "coding": [
              {
                "code": "233678006",
                "system": "http://snomed.info/sct",
                "display": "Childhood asthma (disorder)"
              }
            ]
          }
        ],
        "status": "active",
        "medicationReference": {
          "reference": "Medication/257f6f6e-f1d7-43eb-a541-8bac8bf4daae",
          "display": "120 ACTUAT fluticasone propionate 0.044 MG/ACTUAT Metered Dose Inhaler [Flovent]"
        },
        "subject": {
          "reference": "Patient/e4e9566c-6da3-42d4-ba37-9932d7074708",
          "display": "Oskar Sæther"
        }
      }
    },
    {
      "fullUrl": "urn:uuid:da7821d0-29bf-47c7-a1d2-e89b1cceab71",
      "resource": {
        "resourceType": "Medication",
        "id": "da7821d0-29bf-47c7-a1d2-e89b1cceab71",
        "meta": {
          "profile": [
            "http://hl7.org/fhir/uv/ips/StructureDefinition/Medication-uv-ips"
          ]
        },
        "code": {
          "coding": [
            {
              "code": "243670",
              "system": "http://www.nlm.nih.gov/research/umls/rxnorm",
              "display": "aspirin 81 MG Oral Tablet"
            }
          ],
          "text": "aspirin 81 MG Oral Tablet"
        }
      }
    },
    {
      "fullUrl": "urn:uuid:c0b0b9aa-6ef6-44c2-9a90-d7bb148aac97",
      "resource": {
        "resourceType": "MedicationStatement",
        "id": "c0b0b9aa-6ef6-44c2-9a90-d7bb148aac97",
        "effectivePeriod": {
          "start": "2022-07-11"
        },
        "dosage": [
          {
            "doseAndRate": [
              {
                "doseQuantity": {
                  "value": 1,
                  "unit": "{tbl}",
                  "code": "{tbl}"
                }
              }
            ],
            "timing": {
              "repeat": {
                "frequency": 1,
                "period": 1,
                "periodUnit": "d"
              }
            },
            "text": "1 tablet (81 mg) once daily",
            "asNeededBoolean": false
          }
        ],
        "status": "active",
        "medicationReference": {
          "reference": "Medication/da7821d0-29bf-47c7-a1d2-e89b1cceab71",
          "display": "aspirin 81 MG Oral Tablet"
        },
        "subject": {
          "reference": "Patient/e4e9566c-6da3-42d4-ba37-9932d7074708",
          "display": "Oskar Sæther"
        }
      }
    },
    {
      "fullUrl": "urn:uuid:d617bd3d-ad6e-4ac6-99a0-65e94fb43815",
      "resource": {
        "resourceType": "Medication",
        "id": "d617bd3d-ad6e-4ac6-99a0-65e94fb43815",
        "meta": {
          "profile": [
            "http://hl7.org/fhir/uv/ips/StructureDefinition/Medication-uv-ips"
          ]
        },
        "code": {
          "coding": [
            {
              "code": "866514",
              "system": "http://www.nlm.nih.gov/research/umls/rxnorm",
              "display": "metoprolol tartrate 50 MG Oral Tablet"
            },
            {
              "code": "318475005",
              "system": "http://snomed.info/sct",
              "display": "Product containing precisely metoprolol tartrate 50 milligram/1 each conventional release oral tablet (clinical drug)"
            }
          ],
          "text": "Metoprolol tartrate 50 mg oral tablet"
        },
        "form": {
          "coding": [
            {
              "code": "421026006",
              "system": "http://snomed.info/sct",
              "display": "Oral tablet"
            }
          ]
        },
        "ingredient": [
          {
            "itemCodeableConcept": {
              "coding": [
                {
                  "code": "72770009",
                  "system": "http://snomed.info/sct",
                  "display": "Metoprolol tartrate"
                }
              ]
            },
            "isActive": true
          }
        ]
      }
    },
    {
      "fullUrl": "urn:uuid:4f42daab-3b2e-4236-a3d3-3a56202d0471",
      "resource": {
        "resourceType": "MedicationStatement",
        "id": "4f42daab-3b2e-4236-a3d3-3a56202d0471",
        "effectivePeriod": {
          "start": "2022-07-11"
        },
        "dosage": [
          {
            "doseAndRate": [
              {
                "doseQuantity": {
                  "value": 1,
                  "unit": "{tbl}",
                  "code": "{tbl}"
                }
              }
            ],
            "timing": {
              "repeat": {
                "frequency": 2,
                "period": 1,
                "periodUnit": "d"
              }
            },
            "text": "1 tablet (50 mg) twice daily",
            "asNeededBoolean": false
          }
        ],
        "status": "active",
        "medicationReference": {
          "reference": "Medication/d617bd3d-ad6e-4ac6-99a0-65e94fb43815",
          "display": "Metoprolol tartrate 50 mg oral tablet"
        },
        "subject": {
          "reference": "Patient/e4e9566c-6da3-42d4-ba37-9932d7074708",
          "display": "Oskar Sæther"
        }
      }
    },
    {
      "fullUrl": "urn:uuid:883b7234-1b9c-4ab4-a7dd-39a7981559e4",
      "resource": {
        "resourceType": "Medication",
        "id": "883b7234-1b9c-4ab4-a7dd-39a7981559e4",
        "meta": {
          "profile": [
            "http://hl7.org/fhir/uv/ips/StructureDefinition/Medication-uv-ips"
          ]
        },
        "code": {
          "coding": [
            {
              "code": "904475",
              "system": "http://www.nlm.nih.gov/research/umls/rxnorm",
              "display": "pravastatin sodium 40 MG Oral Tablet"
            },
            {
              "code": "320014009",
              "system": "http://snomed.info/sct",
              "display": "Product containing precisely pravastatin sodium 40 milligram/1 each conventional release oral tablet (clinical drug)"
            }
          ],
          "text": "Pravastatin sodium 40 mg oral tablet"
        },
        "form": {
          "coding": [
            {
              "code": "421026006",
              "system": "http://snomed.info/sct",
              "display": "Oral tablet"
            }
          ]
        },
        "ingredient": [
          {
            "itemCodeableConcept": {
              "coding": [
                {
                  "code": "96306007",
                  "system": "http://snomed.info/sct",
                  "display": "Pravastatin sodium"
                }
              ]
            },
            "isActive": true
          }
        ]
      }
    },
    {
      "fullUrl": "urn:uuid:83386a51-94e6-41d5-8095-1a3ee147d4a0",
      "resource": {
        "resourceType": "MedicationStatement",
        "id": "83386a51-94e6-41d5-8095-1a3ee147d4a0",
        "effectivePeriod": {
          "start": "2022-07-11"
        },
        "dosage": [
          {
            "doseAndRate": [
              {
                "doseQuantity": {
                  "value": 1,
                  "unit": "{tbl}",
                  "code": "{tbl}"
                }
              }
            ],
            "timing": {
              "repeat": {
                "frequency": 1,
                "period": 1,
                "periodUnit": "d"
              }
            },
            "text": "1 tablet (40 mg) by mouth once daily",
            "asNeededBoolean": false
          }
        ],
        "status": "active",
        "medicationReference": {
          "reference": "Medication/883b7234-1b9c-4ab4-a7dd-39a7981559e4",
          "display": "Pravastatin sodium 40 mg oral tablet"
        },
        "subject": {
          "reference": "Patient/e4e9566c-6da3-42d4-ba37-9932d7074708",
          "display": "Oskar Sæther"
        }
      }
    },
    {
      "fullUrl": "urn:uuid:3592aa3a-4ec8-42ac-bdc4-7901411eba0c",
      "resource": {
        "resourceType": "Medication",
        "id": "3592aa3a-4ec8-42ac-bdc4-7901411eba0c",
        "meta": {
          "profile": [
            "http://hl7.org/fhir/uv/ips/StructureDefinition/Medication-uv-ips"
          ]
        },
        "code": {
          "coding": [
            {
              "code": "979492",
              "system": "http://www.nlm.nih.gov/research/umls/rxnorm",
              "display": "losartan potassium 50 MG Oral Tablet"
            },
            {
              "code": "318956006",
              "system": "http://snomed.info/sct",
              "display": "Product containing precisely losartan potassium 50 milligram/1 each conventional release oral tablet (clinical drug)"
            }
          ],
          "text": "Losartan potassium 50 mg oral tablet"
        },
        "form": {
          "coding": [
            {
              "code": "421026006",
              "system": "http://snomed.info/sct",
              "display": "Oral tablet"
            }
          ]
        },
        "ingredient": [
          {
            "itemCodeableConcept": {
              "coding": [
                {
                  "code": "108582002",
                  "system": "http://snomed.info/sct",
                  "display": "Losartan potassium"
                }
              ]
            },
            "isActive": true
          }
        ]
      }
    },
    {
      "fullUrl": "urn:uuid:a766f1a6-7f6b-401b-8561-8568fc8e6941",
      "resource": {
        "resourceType": "MedicationStatement",
        "id": "a766f1a6-7f6b-401b-8561-8568fc8e6941",
        "effectivePeriod": {
          "start": "2022-07-11"
        },
        "dosage": [
          {
            "doseAndRate": [
              {
                "doseQuantity": {
                  "value": 1,
                  "unit": "{tbl}",
                  "code": "{tbl}"
                }
              }
            ],
            "timing": {
              "repeat": {
                "frequency": 1,
                "period": 1,
                "periodUnit": "d"
              }
            },
            "text": "1 tablet (50 mg) by mouth once daily",
            "asNeededBoolean": false
          }
        ],
        "status": "active",
        "medicationReference": {
          "reference": "Medication/3592aa3a-4ec8-42ac-bdc4-7901411eba0c",
          "display": "Losartan potassium 50 mg oral tablet"
        },
        "subject": {
          "reference": "Patient/e4e9566c-6da3-42d4-ba37-9932d7074708",
          "display": "Oskar Sæther"
        }
      }
    },
    {
      "fullUrl": "urn:uuid:07f25d8e-e800-4994-8c9a-bd839dd7228a",
      "resource": {
        "resourceType": "Medication",
        "id": "07f25d8e-e800-4994-8c9a-bd839dd7228a",
        "meta": {
          "profile": [
            "http://hl7.org/fhir/uv/ips/StructureDefinition/Medication-uv-ips"
          ]
        },
        "code": {
          "coding": [
            {
              "code": "849574",
              "system": "http://www.nlm.nih.gov/research/umls/rxnorm",
              "display": "Naproxen sodium 220 MG Oral Tablet"
            }
          ],
          "text": "Naproxen sodium 220 MG Oral Tablet"
        }
      }
    },
    {
      "fullUrl": "urn:uuid:fcb06a15-87fd-4ccd-bf7e-a9bc38620622",
      "resource": {
        "resourceType": "MedicationStatement",
        "id": "fcb06a15-87fd-4ccd-bf7e-a9bc38620622",
        "effectivePeriod": {
          "start": "2013-06-08"
        },
        "dosage": [
          {
            "doseAndRate": [
              {
                "doseQuantity": {
                  "value": 1,
                  "unit": "{tbl}",
                  "code": "{tbl}"
                }
              }
            ],
            "timing": {
              "repeat": {
                "frequency": 1,
                "period": 8,
                "periodUnit": "h"
              }
            },
            "text": "1 tablet (220 mg) every 8 to 12 hours as needed",
            "asNeededBoolean": true
          }
        ],
        "reasonCode": [
          {
            "coding": [
              {
                "code": "239873007",
                "system": "http://snomed.info/sct",
                "display": "Osteoarthritis of knee (disorder)"
              }
            ]
          }
        ],
        "status": "active",
        "medicationReference": {
          "reference": "Medication/07f25d8e-e800-4994-8c9a-bd839dd7228a",
          "display": "Naproxen sodium 220 MG Oral Tablet"
        },
        "subject": {
          "reference": "Patient/e4e9566c-6da3-42d4-ba37-9932d7074708",
          "display": "Oskar Sæther"
        }
      }
    },
    {
      "fullUrl": "urn:uuid:d4f579e7-ac07-487c-9e86-1fd938cfce50",
      "resource": {
        "resourceType": "Medication",
        "id": "d4f579e7-ac07-487c-9e86-1fd938cfce50",
        "meta": {
          "profile": [
            "http://hl7.org/fhir/uv/ips/StructureDefinition/Medication-uv-ips"
          ]
        },
        "code": {
          "coding": [
            {
              "code": "1049630",
              "system": "http://www.nlm.nih.gov/research/umls/rxnorm",
              "display": "diphenhydramine hydrochloride 25 MG Oral Tablet"
            },
            {
              "code": "320726008",
              "system": "http://snomed.info/sct",
              "display": "Product containing precisely diphenhydramine hydrochloride 25 milligram/1 each conventional release oral tablet (clinical drug)"
            }
          ],
          "text": "Diphenhydramine hydrochloride 25 mg oral tablet"
        },
        "form": {
          "coding": [
            {
              "code": "421026006",
              "system": "http://snomed.info/sct",
              "display": "Oral tablet"
            }
          ]
        },
        "ingredient": [
          {
            "itemCodeableConcept": {
              "coding": [
                {
                  "code": "19510001",
                  "system": "http://snomed.info/sct",
                  "display": "Diphenhydramine hydrochloride"
                }
              ]
            },
            "isActive": true
          }
        ]
      }
    },
    {
      "fullUrl": "urn:uuid:b99afeaf-7f9b-48d8-a77b-7f9d568d6952",
      "resource": {
        "resourceType": "MedicationStatement",
        "id": "b99afeaf-7f9b-48d8-a77b-7f9d568d6952",
        "effectivePeriod": {
          "start": "1966-04-13"
        },
        "dosage": [
          {
            "doseAndRate": [
              {
                "doseQuantity": {
                  "value": 1,
                  "unit": "{tbl}",
                  "code": "{tbl}"
                }
              }
            ],
            "timing": {
              "repeat": {
                "frequency": 4,
                "period": 1,
                "periodUnit": "d"
              }
            },
            "text": "1 tablet (25 mg) by mouth every 6 hours as needed",
            "asNeededBoolean": true
          }
        ],
        "status": "active",
        "medicationReference": {
          "reference": "Medication/d4f579e7-ac07-487c-9e86-1fd938cfce50",
          "display": "Diphenhydramine hydrochloride 25 mg oral tablet"
        },
        "subject": {
          "reference": "Patient/e4e9566c-6da3-42d4-ba37-9932d7074708",
          "display": "Oskar Sæther"
        }
      }
    },
    {
      "fullUrl": "urn:uuid:e854a31f-d6a6-4510-a2c9-3abd4ec64341",
      "resource": {
        "resourceType": "AllergyIntolerance",
        "id": "e854a31f-d6a6-4510-a2c9-3abd4ec64341",
        "meta": {
          "profile": [
            "http://hl7.eu/fhir/eps/StructureDefinition/allergyIntolerance-eu-eps"
          ]
        },
        "code": {
          "coding": [
            {
              "code": "3718001",
              "system": "http://snomed.info/sct",
              "display": "Cow's milk (substance)"
            }
          ],
          "text": "Cow's milk"
        },
        "category": [
          "food"
        ],
        "reaction": [
          {
            "manifestation": [
              {
                "coding": [
                  {
                    "code": "247472004",
                    "system": "http://snomed.info/sct",
                    "display": "Wheal (finding)"
                  }
                ]
              }
            ]
          }
        ],
        "verificationStatus": {
          "coding": [
            {
              "code": "confirmed"
            }
          ]
        },
        "type": "allergy",
        "onsetDateTime": "1964-03-27",
        "clinicalStatus": {
          "coding": [
            {
              "code": "active"
            }
          ]
        },
        "patient": {
          "reference": "Patient/e4e9566c-6da3-42d4-ba37-9932d7074708",
          "display": "Oskar Sæther"
        }
      }
    },
    {
      "fullUrl": "urn:uuid:17bb5982-a915-414d-a128-fa2c96e293fb",
      "resource": {
        "resourceType": "AllergyIntolerance",
        "id": "17bb5982-a915-414d-a128-fa2c96e293fb",
        "meta": {
          "profile": [
            "http://hl7.eu/fhir/eps/StructureDefinition/allergyIntolerance-eu-eps"
          ]
        },
        "code": {
          "coding": [
            {
              "code": "84489001",
              "system": "http://snomed.info/sct",
              "display": "Mold (organism)"
            }
          ],
          "text": "Mold"
        },
        "category": [
          "environment"
        ],
        "verificationStatus": {
          "coding": [
            {
              "code": "confirmed"
            }
          ]
        },
        "type": "allergy",
        "onsetDateTime": "1964-03-27",
        "clinicalStatus": {
          "coding": [
            {
              "code": "active"
            }
          ]
        },
        "patient": {
          "reference": "Patient/e4e9566c-6da3-42d4-ba37-9932d7074708",
          "display": "Oskar Sæther"
        }
      }
    },
    {
      "fullUrl": "urn:uuid:406712dd-da67-46cc-925f-4108c35cf3a9",
      "resource": {
        "resourceType": "AllergyIntolerance",
        "id": "406712dd-da67-46cc-925f-4108c35cf3a9",
        "meta": {
          "profile": [
            "http://hl7.eu/fhir/eps/StructureDefinition/allergyIntolerance-eu-eps"
          ]
        },
        "code": {
          "coding": [
            {
              "code": "256277009",
              "system": "http://snomed.info/sct",
              "display": "Grass pollen (substance)"
            }
          ],
          "text": "Grass pollen"
        },
        "category": [
          "environment"
        ],
        "verificationStatus": {
          "coding": [
            {
              "code": "confirmed"
            }
          ]
        },
        "type": "allergy",
        "onsetDateTime": "1964-03-27",
        "clinicalStatus": {
          "coding": [
            {
              "code": "active"
            }
          ]
        },
        "patient": {
          "reference": "Patient/e4e9566c-6da3-42d4-ba37-9932d7074708",
          "display": "Oskar Sæther"
        }
      }
    },
    {
      "fullUrl": "urn:uuid:e84786ad-8f22-49cd-9b4e-3b5ce102fe2e",
      "resource": {
        "resourceType": "AllergyIntolerance",
        "id": "e84786ad-8f22-49cd-9b4e-3b5ce102fe2e",
        "meta": {
          "profile": [
            "http://hl7.eu/fhir/eps/StructureDefinition/allergyIntolerance-eu-eps"
          ]
        },
        "code": {
          "coding": [
            {
              "code": "260147004",
              "system": "http://snomed.info/sct",
              "display": "House dust mite (organism)"
            }
          ],
          "text": "House dust mite"
        },
        "category": [
          "environment"
        ],
        "verificationStatus": {
          "coding": [
            {
              "code": "confirmed"
            }
          ]
        },
        "type": "allergy",
        "onsetDateTime": "1964-03-27",
        "clinicalStatus": {
          "coding": [
            {
              "code": "active"
            }
          ]
        },
        "patient": {
          "reference": "Patient/e4e9566c-6da3-42d4-ba37-9932d7074708",
          "display": "Oskar Sæther"
        }
      }
    },
    {
      "fullUrl": "urn:uuid:14e3bfdd-9487-4d0e-9854-0d16c59ce2dc",
      "resource": {
        "resourceType": "AllergyIntolerance",
        "id": "14e3bfdd-9487-4d0e-9854-0d16c59ce2dc",
        "meta": {
          "profile": [
            "http://hl7.eu/fhir/eps/StructureDefinition/allergyIntolerance-eu-eps"
          ]
        },
        "code": {
          "coding": [
            {
              "code": "264287008",
              "system": "http://snomed.info/sct",
              "display": "Animal dander (substance)"
            }
          ],
          "text": "Animal dander"
        },
        "category": [
          "environment"
        ],
        "reaction": [
          {
            "manifestation": [
              {
                "coding": [
                  {
                    "code": "271807003",
                    "system": "http://snomed.info/sct",
                    "display": "Eruption of skin (disorder)"
                  }
                ]
              }
            ]
          }
        ],
        "verificationStatus": {
          "coding": [
            {
              "code": "confirmed"
            }
          ]
        },
        "type": "allergy",
        "onsetDateTime": "1964-03-27",
        "clinicalStatus": {
          "coding": [
            {
              "code": "active"
            }
          ]
        },
        "patient": {
          "reference": "Patient/e4e9566c-6da3-42d4-ba37-9932d7074708",
          "display": "Oskar Sæther"
        }
      }
    },
    {
      "fullUrl": "urn:uuid:37797048-a425-4c11-8975-417074e79c0a",
      "resource": {
        "resourceType": "AllergyIntolerance",
        "id": "37797048-a425-4c11-8975-417074e79c0a",
        "meta": {
          "profile": [
            "http://hl7.eu/fhir/eps/StructureDefinition/allergyIntolerance-eu-eps"
          ]
        },
        "code": {
          "coding": [
            {
              "code": "288328004",
              "system": "http://snomed.info/sct",
              "display": "Bee venom (substance)"
            }
          ],
          "text": "Bee venom"
        },
        "category": [
          "environment"
        ],
        "reaction": [
          {
            "manifestation": [
              {
                "coding": [
                  {
                    "code": "271807003",
                    "system": "http://snomed.info/sct",
                    "display": "Eruption of skin (disorder)"
                  }
                ]
              }
            ]
          }
        ],
        "verificationStatus": {
          "coding": [
            {
              "code": "confirmed"
            }
          ]
        },
        "type": "allergy",
        "onsetDateTime": "1964-03-27",
        "clinicalStatus": {
          "coding": [
            {
              "code": "active"
            }
          ]
        },
        "patient": {
          "reference": "Patient/e4e9566c-6da3-42d4-ba37-9932d7074708",
          "display": "Oskar Sæther"
        }
      }
    },
    {
      "fullUrl": "urn:uuid:a1d34128-abe7-4e2d-84d2-63e3b0186c80",
      "resource": {
        "resourceType": "AllergyIntolerance",
        "id": "a1d34128-abe7-4e2d-84d2-63e3b0186c80",
        "meta": {
          "profile": [
            "http://hl7.eu/fhir/eps/StructureDefinition/allergyIntolerance-eu-eps"
          ]
        },
        "code": {
          "coding": [
            {
              "code": "412071004",
              "system": "http://snomed.info/sct",
              "display": "Wheat (substance)"
            }
          ],
          "text": "Wheat"
        },
        "category": [
          "food"
        ],
        "reaction": [
          {
            "manifestation": [
              {
                "coding": [
                  {
                    "code": "62315008",
                    "system": "http://snomed.info/sct",
                    "display": "Diarrhea (finding)"
                  }
                ]
              }
            ]
          }
        ],
        "verificationStatus": {
          "coding": [
            {
              "code": "confirmed"
            }
          ]
        },
        "type": "allergy",
        "onsetDateTime": "1964-03-27",
        "clinicalStatus": {
          "coding": [
            {
              "code": "active"
            }
          ]
        },
        "patient": {
          "reference": "Patient/e4e9566c-6da3-42d4-ba37-9932d7074708",
          "display": "Oskar Sæther"
        }
      }
    },
    {
      "fullUrl": "urn:uuid:d5a3e1c9-b4f8-4f83-9433-6c07bede3abc",
      "resource": {
        "resourceType": "AllergyIntolerance",
        "id": "d5a3e1c9-b4f8-4f83-9433-6c07bede3abc",
        "meta": {
          "profile": [
            "http://hl7.eu/fhir/eps/StructureDefinition/allergyIntolerance-eu-eps"
          ]
        },
        "code": {
          "coding": [
            {
              "code": "609328004",
              "system": "http://snomed.info/sct",
              "display": "Allergic disposition (finding)"
            }
          ],
          "text": "Allergic disposition"
        },
        "category": [
          "environment"
        ],
        "verificationStatus": {
          "coding": [
            {
              "code": "confirmed"
            }
          ]
        },
        "type": "allergy",
        "onsetDateTime": "1964-03-27",
        "clinicalStatus": {
          "coding": [
            {
              "code": "active"
            }
          ]
        },
        "patient": {
          "reference": "Patient/e4e9566c-6da3-42d4-ba37-9932d7074708",
          "display": "Oskar Sæther"
        }
      }
    },
    {
      "fullUrl": "urn:uuid:1c85d4de-d81e-4f05-806a-be665900e4f5",
      "resource": {
        "resourceType": "AllergyIntolerance",
        "id": "1c85d4de-d81e-4f05-806a-be665900e4f5",
        "meta": {
          "profile": [
            "http://hl7.eu/fhir/eps/StructureDefinition/allergyIntolerance-eu-eps"
          ]
        },
        "code": {
          "coding": [
            {
              "code": "735971005",
              "system": "http://snomed.info/sct",
              "display": "Fish (substance)"
            }
          ],
          "text": "Fish"
        },
        "category": [
          "food"
        ],
        "reaction": [
          {
            "manifestation": [
              {
                "coding": [
                  {
                    "code": "271807003",
                    "system": "http://snomed.info/sct",
                    "display": "Eruption of skin (disorder)"
                  }
                ]
              }
            ]
          }
        ],
        "verificationStatus": {
          "coding": [
            {
              "code": "confirmed"
            }
          ]
        },
        "type": "allergy",
        "onsetDateTime": "1964-03-27",
        "clinicalStatus": {
          "coding": [
            {
              "code": "active"
            }
          ]
        },
        "patient": {
          "reference": "Patient/e4e9566c-6da3-42d4-ba37-9932d7074708",
          "display": "Oskar Sæther"
        }
      }
    },
    {
      "fullUrl": "urn:uuid:9af421e5-7091-44dd-80b3-20171b46afe3",
      "resource": {
        "resourceType": "AllergyIntolerance",
        "id": "9af421e5-7091-44dd-80b3-20171b46afe3",
        "meta": {
          "profile": [
            "http://hl7.eu/fhir/eps/StructureDefinition/allergyIntolerance-eu-eps"
          ]
        },
        "code": {
          "coding": [
            {
              "code": "762952008",
              "system": "http://snomed.info/sct",
              "display": "Peanut (substance)"
            }
          ],
          "text": "Peanut"
        },
        "category": [
          "food"
        ],
        "reaction": [
          {
            "manifestation": [
              {
                "coding": [
                  {
                    "code": "271807003",
                    "system": "http://snomed.info/sct",
                    "display": "Eruption of skin (disorder)"
                  }
                ]
              }
            ]
          }
        ],
        "verificationStatus": {
          "coding": [
            {
              "code": "confirmed"
            }
          ]
        },
        "type": "allergy",
        "onsetDateTime": "1964-03-27",
        "clinicalStatus": {
          "coding": [
            {
              "code": "active"
            }
          ]
        },
        "patient": {
          "reference": "Patient/e4e9566c-6da3-42d4-ba37-9932d7074708",
          "display": "Oskar Sæther"
        }
      }
    },
    {
      "fullUrl": "urn:uuid:670ee7f7-0ae8-4b2e-afab-c388265adf0f",
      "resource": {
        "resourceType": "AllergyIntolerance",
        "id": "670ee7f7-0ae8-4b2e-afab-c388265adf0f",
        "meta": {
          "profile": [
            "http://hl7.eu/fhir/eps/StructureDefinition/allergyIntolerance-eu-eps"
          ]
        },
        "code": {
          "coding": [
            {
              "code": "782576004",
              "system": "http://snomed.info/sct",
              "display": "Tree pollen (substance)"
            }
          ],
          "text": "Tree pollen"
        },
        "category": [
          "environment"
        ],
        "verificationStatus": {
          "coding": [
            {
              "code": "confirmed"
            }
          ]
        },
        "type": "allergy",
        "onsetDateTime": "1964-03-27",
        "clinicalStatus": {
          "coding": [
            {
              "code": "active"
            }
          ]
        },
        "patient": {
          "reference": "Patient/e4e9566c-6da3-42d4-ba37-9932d7074708",
          "display": "Oskar Sæther"
        }
      }
    },
    {
      "fullUrl": "urn:uuid:46d1fb9d-1d6a-4e8d-a2a7-8f045c14f2a3",
      "resource": {
        "resourceType": "Procedure",
        "id": "46d1fb9d-1d6a-4e8d-a2a7-8f045c14f2a3",
        "meta": {
          "profile": [
            "http://hl7.org/fhir/uv/ips/StructureDefinition/Procedure-uv-ips"
          ]
        },
        "code": {
          "coding": [
            {
              "code": "15220000",
              "system": "http://snomed.info/sct",
              "display": "Laboratory test (procedure)"
            }
          ],
          "text": "Laboratory test"
        },
        "status": "completed",
        "subject": {
          "reference": "Patient/e4e9566c-6da3-42d4-ba37-9932d7074708",
          "display": "Oskar Sæther"
        },
        "performedDateTime": "2022-07-11"
      }
    },
    {
      "fullUrl": "urn:uuid:309dfc76-8ada-460a-9708-ece83f2ade85",
      "resource": {
        "resourceType": "Procedure",
        "id": "309dfc76-8ada-460a-9708-ece83f2ade85",
        "meta": {
          "profile": [
            "http://hl7.org/fhir/uv/ips/StructureDefinition/Procedure-uv-ips"
          ]
        },
        "code": {
          "coding": [
            {
              "code": "29303009",
              "system": "http://snomed.info/sct",
              "display": "Electrocardiographic procedure (procedure)"
            }
          ],
          "text": "Electrocardiographic procedure"
        },
        "status": "completed",
        "subject": {
          "reference": "Patient/e4e9566c-6da3-42d4-ba37-9932d7074708",
          "display": "Oskar Sæther"
        },
        "performedDateTime": "2022-07-11"
      }
    },
    {
      "fullUrl": "urn:uuid:4e6a0af9-6dc4-414f-aa23-ad523fac8846",
      "resource": {
        "resourceType": "Procedure",
        "id": "4e6a0af9-6dc4-414f-aa23-ad523fac8846",
        "meta": {
          "profile": [
            "http://hl7.org/fhir/uv/ips/StructureDefinition/Procedure-uv-ips"
          ]
        },
        "code": {
          "coding": [
            {
              "code": "33367005",
              "system": "http://snomed.info/sct",
              "display": "Angiography of coronary artery (procedure)"
            }
          ],
          "text": "Angiography of coronary artery"
        },
        "status": "completed",
        "subject": {
          "reference": "Patient/e4e9566c-6da3-42d4-ba37-9932d7074708",
          "display": "Oskar Sæther"
        },
        "performedDateTime": "2022-07-11"
      }
    },
    {
      "fullUrl": "urn:uuid:bc9db067-7e74-4153-b040-f3b1ecab9a3b",
      "resource": {
        "resourceType": "Procedure",
        "id": "bc9db067-7e74-4153-b040-f3b1ecab9a3b",
        "meta": {
          "profile": [
            "http://hl7.org/fhir/uv/ips/StructureDefinition/Procedure-uv-ips"
          ]
        },
        "code": {
          "coding": [
            {
              "code": "165197003",
              "system": "http://snomed.info/sct",
              "display": "Diagnostic assessment (procedure)"
            }
          ],
          "text": "Diagnostic assessment"
        },
        "status": "completed",
        "subject": {
          "reference": "Patient/e4e9566c-6da3-42d4-ba37-9932d7074708",
          "display": "Oskar Sæther"
        },
        "performedDateTime": "2022-07-11"
      }
    },
    {
      "fullUrl": "urn:uuid:759cb5b1-44ba-4568-a795-bdbe30a2b28e",
      "resource": {
        "resourceType": "Procedure",
        "id": "759cb5b1-44ba-4568-a795-bdbe30a2b28e",
        "meta": {
          "profile": [
            "http://hl7.org/fhir/uv/ips/StructureDefinition/Procedure-uv-ips"
          ]
        },
        "code": {
          "coding": [
            {
              "code": "371908008",
              "system": "http://snomed.info/sct",
              "display": "Oxygen administration by mask (procedure)"
            }
          ],
          "text": "Oxygen administration by mask"
        },
        "status": "completed",
        "subject": {
          "reference": "Patient/e4e9566c-6da3-42d4-ba37-9932d7074708",
          "display": "Oskar Sæther"
        },
        "performedDateTime": "2022-07-11"
      }
    },
    {
      "fullUrl": "urn:uuid:18b427b2-360a-444c-96c8-4297e967ffa0",
      "resource": {
        "resourceType": "Procedure",
        "id": "18b427b2-360a-444c-96c8-4297e967ffa0",
        "meta": {
          "profile": [
            "http://hl7.org/fhir/uv/ips/StructureDefinition/Procedure-uv-ips"
          ]
        },
        "code": {
          "coding": [
            {
              "code": "399208008",
              "system": "http://snomed.info/sct",
              "display": "Plain X-ray of chest (procedure)"
            }
          ],
          "text": "Plain X-ray of chest"
        },
        "status": "completed",
        "subject": {
          "reference": "Patient/e4e9566c-6da3-42d4-ba37-9932d7074708",
          "display": "Oskar Sæther"
        },
        "performedDateTime": "2022-07-11"
      }
    },
    {
      "fullUrl": "urn:uuid:95c7eaf9-c27c-461f-9fd1-eac33f4757e0",
      "resource": {
        "resourceType": "Procedure",
        "id": "95c7eaf9-c27c-461f-9fd1-eac33f4757e0",
        "meta": {
          "profile": [
            "http://hl7.org/fhir/uv/ips/StructureDefinition/Procedure-uv-ips"
          ]
        },
        "code": {
          "coding": [
            {
              "code": "415070008",
              "system": "http://snomed.info/sct",
              "display": "Percutaneous coronary intervention (procedure)"
            }
          ],
          "text": "Percutaneous coronary intervention"
        },
        "reasonCode": [
          {
            "coding": [
              {
                "code": "401303003",
                "system": "http://snomed.info/sct",
                "display": "Acute ST segment elevation myocardial infarction (disorder)"
              }
            ]
          }
        ],
        "status": "completed",
        "subject": {
          "reference": "Patient/e4e9566c-6da3-42d4-ba37-9932d7074708",
          "display": "Oskar Sæther"
        },
        "performedDateTime": "2022-07-11"
      }
    },
    {
      "fullUrl": "urn:uuid:b359b665-d1af-44bd-a37b-f9d41a5c7608",
      "resource": {
        "resourceType": "Procedure",
        "id": "b359b665-d1af-44bd-a37b-f9d41a5c7608",
        "meta": {
          "profile": [
            "http://hl7.org/fhir/uv/ips/StructureDefinition/Procedure-uv-ips"
          ]
        },
        "code": {
          "coding": [
            {
              "code": "433236007",
              "system": "http://snomed.info/sct",
              "display": "Transthoracic echocardiography (procedure)"
            }
          ],
          "text": "Transthoracic echocardiography"
        },
        "status": "completed",
        "subject": {
          "reference": "Patient/e4e9566c-6da3-42d4-ba37-9932d7074708",
          "display": "Oskar Sæther"
        },
        "performedDateTime": "2022-07-11"
      }
    },
    {
      "fullUrl": "urn:uuid:73affc9d-db4f-4916-869e-2e9d67c3aace",
      "resource": {
        "resourceType": "Procedure",
        "id": "73affc9d-db4f-4916-869e-2e9d67c3aace",
        "meta": {
          "profile": [
            "http://hl7.org/fhir/uv/ips/StructureDefinition/Procedure-uv-ips"
          ]
        },
        "code": {
          "coding": [
            {
              "code": "698314001",
              "system": "http://snomed.info/sct",
              "display": "Consultation for treatment (procedure)"
            }
          ],
          "text": "Consultation for treatment"
        },
        "status": "completed",
        "subject": {
          "reference": "Patient/e4e9566c-6da3-42d4-ba37-9932d7074708",
          "display": "Oskar Sæther"
        },
        "performedDateTime": "2022-07-11"
      }
    },
    {
      "fullUrl": "urn:uuid:521d57b2-904a-4e2d-b8f5-a0e494c8be01",
      "resource": {
        "resourceType": "Procedure",
        "id": "521d57b2-904a-4e2d-b8f5-a0e494c8be01",
        "meta": {
          "profile": [
            "http://hl7.org/fhir/uv/ips/StructureDefinition/Procedure-uv-ips"
          ]
        },
        "code": {
          "coding": [
            {
              "code": "710839006",
              "system": "http://snomed.info/sct",
              "display": "Assessment of cardiac status using monitoring device (procedure)"
            }
          ],
          "text": "Assessment of cardiac status using monitoring device"
        },
        "status": "completed",
        "subject": {
          "reference": "Patient/e4e9566c-6da3-42d4-ba37-9932d7074708",
          "display": "Oskar Sæther"
        },
        "performedDateTime": "2022-07-11"
      }
    },
    {
      "fullUrl": "urn:uuid:a354a3e3-cc2a-4e3f-850f-ee0095ec9d9d",
      "resource": {
        "resourceType": "Procedure",
        "id": "a354a3e3-cc2a-4e3f-850f-ee0095ec9d9d",
        "meta": {
          "profile": [
            "http://hl7.org/fhir/uv/ips/StructureDefinition/Procedure-uv-ips"
          ]
        },
        "code": {
          "coding": [
            {
              "code": "171207006",
              "system": "http://snomed.info/sct",
              "display": "Depression screening (procedure)"
            }
          ],
          "text": "Depression screening"
        },
        "status": "completed",
        "subject": {
          "reference": "Patient/e4e9566c-6da3-42d4-ba37-9932d7074708",
          "display": "Oskar Sæther"
        },
        "performedDateTime": "2017-12-23"
      }
    },
    {
      "fullUrl": "urn:uuid:e1a5dad3-ca68-4ce1-b48f-0a59c5d406f9",
      "resource": {
        "resourceType": "Procedure",
        "id": "e1a5dad3-ca68-4ce1-b48f-0a59c5d406f9",
        "meta": {
          "profile": [
            "http://hl7.org/fhir/uv/ips/StructureDefinition/Procedure-uv-ips"
          ]
        },
        "code": {
          "coding": [
            {
              "code": "710824005",
              "system": "http://snomed.info/sct",
              "display": "Assessment of health and social care needs (procedure)"
            }
          ],
          "text": "Assessment of health and social care needs"
        },
        "status": "completed",
        "subject": {
          "reference": "Patient/e4e9566c-6da3-42d4-ba37-9932d7074708",
          "display": "Oskar Sæther"
        },
        "performedDateTime": "2017-12-23"
      }
    },
    {
      "fullUrl": "urn:uuid:4158b077-4f6d-4775-8be3-a542dcc58474",
      "resource": {
        "resourceType": "Procedure",
        "id": "4158b077-4f6d-4775-8be3-a542dcc58474",
        "meta": {
          "profile": [
            "http://hl7.org/fhir/uv/ips/StructureDefinition/Procedure-uv-ips"
          ]
        },
        "code": {
          "coding": [
            {
              "code": "713106006",
              "system": "http://snomed.info/sct",
              "display": "Screening for drug abuse (procedure)"
            }
          ],
          "text": "Screening for drug abuse"
        },
        "status": "completed",
        "subject": {
          "reference": "Patient/e4e9566c-6da3-42d4-ba37-9932d7074708",
          "display": "Oskar Sæther"
        },
        "performedDateTime": "2017-12-23"
      }
    },
    {
      "fullUrl": "urn:uuid:7cd3cb0f-4e24-4b94-af15-64eed48f298a",
      "resource": {
        "resourceType": "Procedure",
        "id": "7cd3cb0f-4e24-4b94-af15-64eed48f298a",
        "meta": {
          "profile": [
            "http://hl7.org/fhir/uv/ips/StructureDefinition/Procedure-uv-ips"
          ]
        },
        "code": {
          "coding": [
            {
              "code": "428211000124100",
              "system": "http://snomed.info/sct",
              "display": "Assessment of substance use (procedure)"
            }
          ],
          "text": "Assessment of substance use"
        },
        "status": "completed",
        "subject": {
          "reference": "Patient/e4e9566c-6da3-42d4-ba37-9932d7074708",
          "display": "Oskar Sæther"
        },
        "performedDateTime": "2017-12-23"
      }
    },
    {
      "fullUrl": "urn:uuid:c0c22388-d0bc-4d0c-b399-dbff4a592253",
      "resource": {
        "resourceType": "Immunization",
        "id": "c0c22388-d0bc-4d0c-b399-dbff4a592253",
        "meta": {
          "profile": [
            "http://hl7.org/fhir/uv/ips/StructureDefinition/Immunization-uv-ips"
          ]
        },
        "vaccineCode": {
          "coding": [
            {
              "code": "777725002",
              "system": "http://snomed.info/sct",
              "display": "Vaccine product containing only Clostridium tetani toxoid antigen adsorbed"
            },
            {
              "code": "J07AM51",
              "system": "http://www.whocc.no/atc",
              "display": "Diphtheria-tetanus vaccines, adult type"
            },
            {
              "code": "113",
              "system": "http://hl7.org/fhir/sid/cvx",
              "display": "Td (adult)  5 Lf tetanus toxoid  preservative free  adsorbed"
            }
          ],
          "text": "Clostridium tetani toxoid antigen adsorbed only vaccine product"
        },
        "site": {
          "coding": [
            {
              "code": "73776007",
              "system": "http://snomed.info/sct",
              "display": "Structure of muscle of upper arm"
            }
          ],
          "text": "Structure of muscle of upper arm"
        },
        "route": {
          "coding": [
            {
              "code": "78421000",
              "system": "http://snomed.info/sct",
              "display": "Intramuscular route"
            }
          ],
          "text": "Intramuscular route"
        },
        "status": "completed",
        "patient": {
          "reference": "Patient/e4e9566c-6da3-42d4-ba37-9932d7074708",
          "display": "Oskar Sæther"
        },
        "occurrenceDateTime": "2025-01-18",
        "lotNumber": "ML-yqTwe",
        "expirationDate": "2025-08-05"
      }
    },
    {
      "fullUrl": "urn:uuid:53e1b5bf-fb43-418a-9fa3-c56373e12110",
      "resource": {
        "resourceType": "Immunization",
        "id": "53e1b5bf-fb43-418a-9fa3-c56373e12110",
        "meta": {
          "profile": [
            "http://hl7.org/fhir/uv/ips/StructureDefinition/Immunization-uv-ips"
          ]
        },
        "vaccineCode": {
          "coding": [
            {
              "code": "1181000221105",
              "system": "http://snomed.info/sct",
              "display": "Vaccine product containing Influenza virus antigen"
            },
            {
              "code": "J07BB02",
              "system": "http://www.whocc.no/atc",
              "display": "Influenza, inactivated, split virus"
            },
            {
              "code": "140",
              "system": "http://hl7.org/fhir/sid/cvx",
              "display": "Influenza  seasonal  injectable  preservative free"
            }
          ],
          "text": "Influenza virus antigen only vaccine product"
        },
        "site": {
          "coding": [
            {
              "code": "73776007",
              "system": "http://snomed.info/sct",
              "display": "Structure of muscle of upper arm"
            }
          ],
          "text": "Structure of muscle of upper arm"
        },
        "route": {
          "coding": [
            {
              "code": "78421000",
              "system": "http://snomed.info/sct",
              "display": "Intramuscular route"
            }
          ],
          "text": "Intramuscular route"
        },
        "status": "completed",
        "patient": {
          "reference": "Patient/e4e9566c-6da3-42d4-ba37-9932d7074708",
          "display": "Oskar Sæther"
        },
        "occurrenceDateTime": "2025-01-18",
        "lotNumber": "IP-B5iQXXkY",
        "expirationDate": "2025-11-05"
      }
    },
    {
      "fullUrl": "urn:uuid:5ed02e60-a623-41e4-b509-2b415b673334",
      "resource": {
        "resourceType": "Immunization",
        "id": "5ed02e60-a623-41e4-b509-2b415b673334",
        "meta": {
          "profile": [
            "http://hl7.org/fhir/uv/ips/StructureDefinition/Immunization-uv-ips"
          ]
        },
        "vaccineCode": {
          "coding": [
            {
              "code": "1119349007",
              "system": "http://snomed.info/sct",
              "display": "Vaccine product containing SARS-CoV-2 mRNA"
            },
            {
              "code": "J07BX03",
              "system": "http://www.whocc.no/atc",
              "display": "COVID-19 mRNA vaccines"
            },
            {
              "code": "207",
              "system": "http://hl7.org/fhir/sid/cvx",
              "display": "COVID-19  mRNA  LNP-S  PF  100 mcg/0.5mL dose or 50 mcg/0.25mL dose"
            }
          ],
          "text": "SARS-CoV-2 mRNA vaccine"
        },
        "site": {
          "coding": [
            {
              "code": "73776007",
              "system": "http://snomed.info/sct",
              "display": "Structure of muscle of upper arm"
            }
          ],
          "text": "Structure of muscle of upper arm"
        },
        "route": {
          "coding": [
            {
              "code": "78421000",
              "system": "http://snomed.info/sct",
              "display": "Intramuscular route"
            }
          ],
          "text": "Intramuscular route"
        },
        "status": "completed",
        "patient": {
          "reference": "Patient/e4e9566c-6da3-42d4-ba37-9932d7074708",
          "display": "Oskar Sæther"
        },
        "occurrenceDateTime": "2021-06-19",
        "lotNumber": "FV-k2m1uTQQa",
        "expirationDate": "2021-08-05"
      }
    }
  ],
  "type": "document",
  "timestamp": "2025-06-16T17:28:57Z"
}
