{
  "resourceType": "Bundle",
  "id": "Instance-Bundle-19c383d5-bc31-4e2e-88ef-bc14db6bb199",
  "meta": {
    "profile": [
      "http://hl7.eu/fhir/eps/StructureDefinition/bundle-eu-eps"
    ]
  },
  "identifier": {
    "assigner": {
      "display": "HL7 Europe"
    },
    "system": "urn:oid:2.16.840.1.113883.2.51.999",
    "value": "a9646326-35a4-4695-a809-e0259039faff"
  },
  "entry": [
    {
      "fullUrl": "urn:uuid:d175ec80-db1d-400a-a691-f041215bd6b0",
      "resource": {
        "resourceType": "Composition",
        "id": "d175ec80-db1d-400a-a691-f041215bd6b0",
        "meta": {
          "profile": [
            "http://hl7.eu/fhir/eps/StructureDefinition/composition-eu-eps"
          ]
        },
        "identifier": {
          "assigner": {
            "display": "HL7 Europe"
          },
          "system": "urn:oid:2.16.840.1.113883.2.51.999",
          "value": "9e2ea6d6-0f61-44a4-97dd-288be18be4db"
        },
        "type": {
          "coding": [
            {
              "system": "http://loinc.org",
              "code": "60591-5",
              "display": "European Patient Summary"
            }
          ],
          "text": "European Patient Summary"
        },
        "author": [
          {
            "reference": "urn:uuid:61d2afba-04a8-4405-a129-f52e83feacdc"
          }
        ],
        "section": [
          {
            "text": {
              "status": "generated",
              "div": "<div xmlns=\"http://www.w3.org/1999/xhtml\"><table class=\"hl7__ips\"><tr><td>Alzheimer's disease</td><td>2021-04-16</td><td>active</td></tr><tr><td>Chronic sinusitis</td><td>2010-06-18</td><td>active</td></tr><tr><td>Gout</td><td>2009-12-24</td><td>active</td></tr><tr><td>Loss of teeth</td><td>2009-02-27</td><td>active</td></tr><tr><td>Hyperlipidemia</td><td>2007-01-05</td><td>active</td></tr><tr><td>Bleeding from anus</td><td>2001-03-15</td><td>active</td></tr><tr><td>Ischemic heart disease</td><td>1998-11-20</td><td>active</td></tr><tr><td>Dependent drug abuse</td><td>1994-05-24</td><td>active</td></tr><tr><td>Impacted molars</td><td>1990-05-10</td><td>active</td></tr><tr><td>Chronic intractable migraine without aura</td><td>1990-03-20</td><td>active</td></tr><tr><td>Anemia</td><td>1978-01-06</td><td>active</td></tr><tr><td>Gingival disease</td><td>2024-12-13</td><td>inactive</td></tr><tr><td>Gingivitis</td><td>2024-11-29</td><td>inactive</td></tr><tr><td>Gingivitis</td><td>2024-05-03</td><td>inactive</td></tr><tr><td>Gingivitis</td><td>2024-01-05</td><td>inactive</td></tr><tr><td>Gingivitis</td><td>2023-06-23</td><td>inactive</td></tr><tr><td>Gingival disease</td><td>2022-03-26</td><td>inactive</td></tr><tr><td>Gingivitis</td><td>2021-09-24</td><td>inactive</td></tr><tr><td>Gingivitis</td><td>2019-04-05</td><td>inactive</td></tr><tr><td>Gingivitis</td><td>2018-03-30</td><td>inactive</td></tr><tr><td>Laceration - injury</td><td>2016-12-11</td><td>inactive</td></tr><tr><td>Facial laceration</td><td>2016-12-11</td><td>inactive</td></tr><tr><td>Overdose</td><td>2015-09-26</td><td>inactive</td></tr></table></div>"
            },
            "entry": [
              {
                "reference": "urn:uuid:5ccc2183-4011-4eee-ac5d-3ea3d7cde31f"
              },
              {
                "reference": "urn:uuid:73616619-e53a-45db-baeb-df2141a57746"
              },
              {
                "reference": "urn:uuid:4ecd68c2-9885-4c04-a32e-64beaa6e8780"
              },
              {
                "reference": "urn:uuid:987a24bf-59b1-4318-a997-610613f87c44"
              },
              {
                "reference": "urn:uuid:5200b22b-9ca0-4a36-a945-f6337e061099"
              },
              {
                "reference": "urn:uuid:6cbfb17c-7f05-4e7e-9e23-fac02e1f9353"
              },
              {
                "reference": "urn:uuid:48638402-5cef-4862-badd-641c4d7b51db"
              },
              {
                "reference": "urn:uuid:b83f8bd2-83ea-4d34-817c-1f79fb582a55"
              },
              {
                "reference": "urn:uuid:282c27e4-0b4e-4aa4-87f8-034b8cd584ec"
              },
              {
                "reference": "urn:uuid:5b84291a-32a6-4b7e-8bc5-a909330626aa"
              },
              {
                "reference": "urn:uuid:cf5768c5-5418-4dcb-8640-3e3f0b23b10f"
              },
              {
                "reference": "urn:uuid:c51daa7c-2e5a-4b06-8bd7-75e2c7e2689c"
              },
              {
                "reference": "urn:uuid:9b11ce89-d974-4a0c-93e6-975e0f5cf94e"
              },
              {
                "reference": "urn:uuid:afd2eb98-5b32-488f-b24c-b7f29f7ae94f"
              },
              {
                "reference": "urn:uuid:de5c8b0b-7f72-48b6-a624-82492d838192"
              },
              {
                "reference": "urn:uuid:f77926e2-f606-4e40-b269-5bfc380dfe79"
              },
              {
                "reference": "urn:uuid:f70b0d2d-8b60-45fb-b805-55316ad14557"
              },
              {
                "reference": "urn:uuid:1949385a-9a29-4943-8054-4fa58c8e4f8e"
              },
              {
                "reference": "urn:uuid:f10d5222-8b33-40bc-ac9e-2e684a2fa383"
              },
              {
                "reference": "urn:uuid:30cf1f8c-a352-4c10-8006-f180be0713de"
              },
              {
                "reference": "urn:uuid:26223381-2aa9-4fe5-98a0-c868ba148ec8"
              },
              {
                "reference": "urn:uuid:317d282a-23a8-44b4-a724-195acbd4ac46"
              },
              {
                "reference": "urn:uuid:c350ed87-9e3a-43ac-bb6d-c3a805a5371b"
              }
            ],
            "code": {
              "coding": [
                {
                  "system": "http://loinc.org",
                  "code": "11450-4",
                  "display": "Problem list - Reported"
                }
              ]
            },
            "title": "Problem list"
          },
          {
            "text": {
              "status": "generated",
              "div": "<div xmlns=\"http://www.w3.org/1999/xhtml\"><table class=\"hl7__ips\"><tr><td>Simvastatin 10 mg oral tablet</td><td>2025-01-21</td><td>Oral tablet</td><td>1 tablet (10 mg) by mouth once daily\"</td><td>Reason: Hyperlipidemia (disorder)</td></tr><tr><td>Galantamine (as galantamine hydrobromide) 4 mg oral tablet</td><td>2021-04-16</td><td>Oral tablet</td><td>1 tablet (4 mg) once daily\"</td><td>Reason: Alzheimer's disease (disorder)</td></tr><tr><td>Clopidogrel (as clopidogrel bisulfate) 75 mg oral tablet</td><td>1998-11-27</td><td>Oral tablet</td><td>1 tablet (75 mg) once daily\"</td><td></td></tr><tr><td>Simvastatin 20 mg oral tablet</td><td>1998-11-27</td><td>Oral tablet</td><td>1 tablet (20 mg) by mouth once daily\"</td><td></td></tr><tr><td>Nitroglycerin 400 microgram/actuation sublingual spray</td><td>1998-11-27</td><td>Sublingual spray</td><td>1 spray (400 micrograms) under the tongue as needed for chest pain, may repeat every 5 minutes as needed, up to 3 sprays in 15 minutes\"</td><td></td></tr><tr><td>Metoprolol tartrate (as metoprolol succinate) 100 mg prolonged-release oral tablet</td><td>1998-11-27</td><td>Prolonged-release oral tablet</td><td>1 tablet (100 mg) once daily\"</td><td></td></tr></table></div>"
            },
            "entry": [
              {
                "reference": "urn:uuid:f04cc2a6-2e20-4817-9e78-ae60d8c72b38"
              },
              {
                "reference": "urn:uuid:dff8565e-e5dd-44ee-89e3-ce6a5fc68fed"
              },
              {
                "reference": "urn:uuid:9487f8bb-e010-4cde-ba61-b9e774779c0f"
              },
              {
                "reference": "urn:uuid:94e748af-1d72-4f95-860d-5dc411575025"
              },
              {
                "reference": "urn:uuid:84d516b3-5c6c-4809-b293-471cd86628ca"
              },
              {
                "reference": "urn:uuid:f810ff56-fd4b-44b2-bc13-9fcae12c2d1a"
              }
            ],
            "code": {
              "coding": [
                {
                  "system": "http://loinc.org",
                  "code": "10160-0",
                  "display": "History of Medication use Narrative"
                }
              ]
            },
            "title": "Medication list"
          },
          {
            "text": {
              "status": "generated",
              "div": "<div xmlns=\"http://www.w3.org/1999/xhtml\"><table class=\"hl7__ips\"><tr><td>No known allergies or intolerances</td></tr></table></div>"
            },
            "entry": [
              {
                "reference": "urn:uuid:b7277a19-d981-455f-90a6-c1f17e4ab220"
              }
            ],
            "code": {
              "coding": [
                {
                  "system": "http://loinc.org",
                  "code": "48765-2",
                  "display": "Allergies and adverse reactions Document"
                }
              ]
            },
            "title": "Allergies and Intolerances"
          },
          {
            "text": {
              "status": "generated",
              "div": "<div xmlns=\"http://www.w3.org/1999/xhtml\"><table class=\"hl7__ips\"><tr><td>Patient referral for dental care</td><td>2021-09-24</td><td>Gingivitis (disorder)</td></tr><tr><td>Depression screening</td><td>2021-09-24</td><td>-</td></tr><tr><td>Medication reconciliation</td><td>2021-09-24</td><td>-</td></tr><tr><td>Assessment of health and social care needs</td><td>2021-09-24</td><td>-</td></tr><tr><td>Assessment of anxiety</td><td>2021-09-24</td><td>-</td></tr><tr><td>Assessment using Morse Fall Scale</td><td>2021-09-24</td><td>-</td></tr><tr><td>Patient discharge</td><td>2018-11-09</td><td>-</td></tr><tr><td>Hospice care</td><td>2018-11-08</td><td>-</td></tr><tr><td>Notifications</td><td>2018-10-26</td><td>-</td></tr><tr><td>Certification procedure</td><td>2018-10-26</td><td>-</td></tr><tr><td>Initial patient assessment</td><td>2018-10-26</td><td>-</td></tr><tr><td>Development of individualized plan of care</td><td>2018-10-26</td><td>-</td></tr><tr><td>Suture open wound</td><td>2016-12-11</td><td>Facial laceration (disorder)</td></tr></table></div>"
            },
            "entry": [
              {
                "reference": "urn:uuid:7d9f395f-10c8-4b8b-ac70-b838b2141e39"
              },
              {
                "reference": "urn:uuid:ec9b4fe4-1690-428f-a39f-e8da8a4c24ea"
              },
              {
                "reference": "urn:uuid:2217d27c-6a9a-4fce-a333-300b8ee316a2"
              },
              {
                "reference": "urn:uuid:eafca5af-1e4d-45c0-baaa-9b64e6be4df9"
              },
              {
                "reference": "urn:uuid:7f431d89-fce0-46e2-a8b4-3fb72c8f9fc1"
              },
              {
                "reference": "urn:uuid:dbd2b833-7719-445a-a393-cee451f99950"
              },
              {
                "reference": "urn:uuid:16724abb-7823-40c1-8953-19b4b29c24b7"
              },
              {
                "reference": "urn:uuid:18f4b0d4-35e9-4974-bc2f-2de84e4ed161"
              },
              {
                "reference": "urn:uuid:56a5bb7e-f7f6-4a81-a292-32ba6ec57276"
              },
              {
                "reference": "urn:uuid:634a4942-2329-48c0-a112-2faba46b4485"
              },
              {
                "reference": "urn:uuid:9ba7fd14-eefd-41b4-8429-55a917b5253d"
              },
              {
                "reference": "urn:uuid:3e62e702-e1a8-4743-8846-aaccdb7880d9"
              },
              {
                "reference": "urn:uuid:1d4db454-377d-40e1-9f90-de0b327deb0a"
              }
            ],
            "code": {
              "coding": [
                {
                  "system": "http://loinc.org",
                  "code": "47519-4",
                  "display": "History of Procedures Document"
                }
              ]
            },
            "title": "Procedure History list"
          },
          {
            "text": {
              "status": "generated",
              "div": "<div xmlns=\"http://www.w3.org/1999/xhtml\"><table class=\"hl7__ips\"><tr><td>Clostridium tetani toxoid antigen adsorbed only vaccine product</td><td>2024-11-29</td></tr><tr><td>Influenza virus antigen only vaccine product</td><td>2024-05-03</td></tr><tr><td>SARS-CoV-2 mRNA vaccine</td><td>2021-02-19</td></tr></table></div>"
            },
            "entry": [
              {
                "reference": "urn:uuid:74bbc414-822a-47f9-a437-12358c2d2f95"
              },
              {
                "reference": "urn:uuid:83ab8c71-bb9c-44ee-b1f4-5e1ed4380a05"
              },
              {
                "reference": "urn:uuid:a4a64f2a-3712-491e-8781-f87738402a28"
              }
            ],
            "code": {
              "coding": [
                {
                  "system": "http://loinc.org",
                  "code": "11369-6",
                  "display": "History of Immunization Narrative"
                }
              ]
            },
            "title": "Immunizations list"
          }
        ],
        "title": "European Patient Summary",
        "status": "final",
        "subject": {
          "reference": "urn:uuid:ff442a16-8262-4191-b63d-4bc265da2466"
        },
        "custodian": {
          "reference": "urn:uuid:9cc93a02-3481-4ed6-8ac7-f2fbfe5cf4fd"
        },
        "date": "2025-06-16T17:28:57Z",
        "confidentiality": "N"
      }
    },
    {
      "fullUrl": "urn:uuid:ff442a16-8262-4191-b63d-4bc265da2466",
      "resource": {
        "resourceType": "Patient",
        "id": "ff442a16-8262-4191-b63d-4bc265da2466",
        "meta": {
          "profile": [
            "http://hl7.eu/fhir/eps/StructureDefinition/patient-eu-eps"
          ]
        },
        "identifier": [
          {
            "type": {
              "coding": [
                {
                  "code": "NI",
                  "system": "http://terminology.hl7.org/CodeSystem/v2-0203"
                }
              ]
            },
            "system": "http://ec.europa.eu/identifier/eci",
            "value": "8212-076428-5"
          },
          {
            "type": {
              "coding": [
                {
                  "code": "MR",
                  "system": "http://terminology.hl7.org/CodeSystem/v2-0203"
                }
              ]
            },
            "system": "http://local.setting.eu/identifier",
            "value": "ecb49d9e-4eb1-4743-237d-d8020ecd4f86"
          }
        ],
        "name": [
          {
            "given": [
              "Ida"
            ],
            "family": "Brommer",
            "text": "Ida Brommer"
          }
        ],
        "address": [
          {
            "line": [
              "Jacob van Ruysdaelstraat 100"
            ],
            "use": "home",
            "type": "physical",
            "city": "Waalwijk",
            "postalCode": "5143 GM",
            "country": "Netherlands"
          }
        ],
        "telecom": [
          {
            "system": "phone",
            "value": "+31 06-39307468"
          }
        ],
        "gender": "female",
        "birthDate": "1944-04-22"
      }
    },
    {
      "fullUrl": "urn:uuid:61d2afba-04a8-4405-a129-f52e83feacdc",
      "resource": {
        "resourceType": "PractitionerRole",
        "id": "61d2afba-04a8-4405-a129-f52e83feacdc",
        "meta": {
          "profile": [
            "http://hl7.eu/fhir/base/StructureDefinition/practitionerRole-eu"
          ]
        },
        "practitioner": {
          "reference": "urn:uuid:91ea1450-4b79-42bc-8d93-5c94987ec44c"
        },
        "organization": {
          "reference": "urn:uuid:9cc93a02-3481-4ed6-8ac7-f2fbfe5cf4fd"
        }
      }
    },
    {
      "fullUrl": "urn:uuid:91ea1450-4b79-42bc-8d93-5c94987ec44c",
      "resource": {
        "resourceType": "Practitioner",
        "id": "91ea1450-4b79-42bc-8d93-5c94987ec44c",
        "meta": {
          "profile": [
            "http://hl7.eu/fhir/base/StructureDefinition/practitioner-eu"
          ]
        },
        "name": [
          {
            "prefix": [
              "Dr."
            ],
            "given": [
              "Hel"
            ],
            "family": "Ping"
          }
        ]
      }
    },
    {
      "fullUrl": "urn:uuid:5ccc2183-4011-4eee-ac5d-3ea3d7cde31f",
      "resource": {
        "resourceType": "Condition",
        "id": "5ccc2183-4011-4eee-ac5d-3ea3d7cde31f",
        "meta": {
          "profile": [
            "http://hl7.org/fhir/uv/ips/StructureDefinition/Condition-uv-ips"
          ]
        },
        "category": [
          {
            "coding": [
              {
                "code": "problem-list-item",
                "system": "http://terminology.hl7.org/CodeSystem/condition-category",
                "display": "Problem List Item"
              }
            ]
          }
        ],
        "code": {
          "coding": [
            {
              "code": "26929004",
              "system": "http://snomed.info/sct",
              "display": "Alzheimer's disease (disorder)"
            }
          ],
          "text": "Alzheimer's disease"
        },
        "onsetDateTime": "2021-04-16",
        "clinicalStatus": {
          "coding": [
            {
              "code": "active",
              "system": "http://terminology.hl7.org/CodeSystem/condition-clinical"
            }
          ]
        },
        "subject": {
          "reference": "Patient/ff442a16-8262-4191-b63d-4bc265da2466",
          "display": "Ida Brommer"
        },
        "asserter": {
          "reference": "Practitioner/91ea1450-4b79-42bc-8d93-5c94987ec44c",
          "display": "Dr. Hel Ping"
        }
      }
    },
    {
      "fullUrl": "urn:uuid:73616619-e53a-45db-baeb-df2141a57746",
      "resource": {
        "resourceType": "Condition",
        "id": "73616619-e53a-45db-baeb-df2141a57746",
        "meta": {
          "profile": [
            "http://hl7.org/fhir/uv/ips/StructureDefinition/Condition-uv-ips"
          ]
        },
        "category": [
          {
            "coding": [
              {
                "code": "problem-list-item",
                "system": "http://terminology.hl7.org/CodeSystem/condition-category",
                "display": "Problem List Item"
              }
            ]
          }
        ],
        "code": {
          "coding": [
            {
              "code": "40055000",
              "system": "http://snomed.info/sct",
              "display": "Chronic sinusitis (disorder)"
            }
          ],
          "text": "Chronic sinusitis"
        },
        "onsetDateTime": "2010-06-18",
        "clinicalStatus": {
          "coding": [
            {
              "code": "active",
              "system": "http://terminology.hl7.org/CodeSystem/condition-clinical"
            }
          ]
        },
        "subject": {
          "reference": "Patient/ff442a16-8262-4191-b63d-4bc265da2466",
          "display": "Ida Brommer"
        },
        "asserter": {
          "reference": "Practitioner/91ea1450-4b79-42bc-8d93-5c94987ec44c",
          "display": "Dr. Hel Ping"
        }
      }
    },
    {
      "fullUrl": "urn:uuid:4ecd68c2-9885-4c04-a32e-64beaa6e8780",
      "resource": {
        "resourceType": "Condition",
        "id": "4ecd68c2-9885-4c04-a32e-64beaa6e8780",
        "meta": {
          "profile": [
            "http://hl7.org/fhir/uv/ips/StructureDefinition/Condition-uv-ips"
          ]
        },
        "category": [
          {
            "coding": [
              {
                "code": "problem-list-item",
                "system": "http://terminology.hl7.org/CodeSystem/condition-category",
                "display": "Problem List Item"
              }
            ]
          }
        ],
        "code": {
          "coding": [
            {
              "code": "90560007",
              "system": "http://snomed.info/sct",
              "display": "Inflammatory disorder due to increased blood urate level (disorder)"
            }
          ],
          "text": "Gout"
        },
        "onsetDateTime": "2009-12-24",
        "clinicalStatus": {
          "coding": [
            {
              "code": "active",
              "system": "http://terminology.hl7.org/CodeSystem/condition-clinical"
            }
          ]
        },
        "subject": {
          "reference": "Patient/ff442a16-8262-4191-b63d-4bc265da2466",
          "display": "Ida Brommer"
        },
        "asserter": {
          "reference": "Practitioner/91ea1450-4b79-42bc-8d93-5c94987ec44c",
          "display": "Dr. Hel Ping"
        }
      }
    },
    {
      "fullUrl": "urn:uuid:987a24bf-59b1-4318-a997-610613f87c44",
      "resource": {
        "resourceType": "Condition",
        "id": "987a24bf-59b1-4318-a997-610613f87c44",
        "meta": {
          "profile": [
            "http://hl7.org/fhir/uv/ips/StructureDefinition/Condition-uv-ips"
          ]
        },
        "category": [
          {
            "coding": [
              {
                "code": "problem-list-item",
                "system": "http://terminology.hl7.org/CodeSystem/condition-category",
                "display": "Problem List Item"
              }
            ]
          }
        ],
        "code": {
          "coding": [
            {
              "code": "37320007",
              "system": "http://snomed.info/sct",
              "display": "Loss of teeth (disorder)"
            }
          ],
          "text": "Loss of teeth"
        },
        "onsetDateTime": "2009-02-27",
        "clinicalStatus": {
          "coding": [
            {
              "code": "active",
              "system": "http://terminology.hl7.org/CodeSystem/condition-clinical"
            }
          ]
        },
        "subject": {
          "reference": "Patient/ff442a16-8262-4191-b63d-4bc265da2466",
          "display": "Ida Brommer"
        },
        "asserter": {
          "reference": "Practitioner/91ea1450-4b79-42bc-8d93-5c94987ec44c",
          "display": "Dr. Hel Ping"
        }
      }
    },
    {
      "fullUrl": "urn:uuid:5200b22b-9ca0-4a36-a945-f6337e061099",
      "resource": {
        "resourceType": "Condition",
        "id": "5200b22b-9ca0-4a36-a945-f6337e061099",
        "meta": {
          "profile": [
            "http://hl7.org/fhir/uv/ips/StructureDefinition/Condition-uv-ips"
          ]
        },
        "category": [
          {
            "coding": [
              {
                "code": "problem-list-item",
                "system": "http://terminology.hl7.org/CodeSystem/condition-category",
                "display": "Problem List Item"
              }
            ]
          }
        ],
        "code": {
          "coding": [
            {
              "code": "55822004",
              "system": "http://snomed.info/sct",
              "display": "Hyperlipidemia (disorder)"
            }
          ],
          "text": "Hyperlipidemia"
        },
        "onsetDateTime": "2007-01-05",
        "clinicalStatus": {
          "coding": [
            {
              "code": "active",
              "system": "http://terminology.hl7.org/CodeSystem/condition-clinical"
            }
          ]
        },
        "subject": {
          "reference": "Patient/ff442a16-8262-4191-b63d-4bc265da2466",
          "display": "Ida Brommer"
        },
        "asserter": {
          "reference": "Practitioner/91ea1450-4b79-42bc-8d93-5c94987ec44c",
          "display": "Dr. Hel Ping"
        }
      }
    },
    {
      "fullUrl": "urn:uuid:6cbfb17c-7f05-4e7e-9e23-fac02e1f9353",
      "resource": {
        "resourceType": "Condition",
        "id": "6cbfb17c-7f05-4e7e-9e23-fac02e1f9353",
        "meta": {
          "profile": [
            "http://hl7.org/fhir/uv/ips/StructureDefinition/Condition-uv-ips"
          ]
        },
        "category": [
          {
            "coding": [
              {
                "code": "problem-list-item",
                "system": "http://terminology.hl7.org/CodeSystem/condition-category",
                "display": "Problem List Item"
              }
            ]
          }
        ],
        "code": {
          "coding": [
            {
              "code": "6072007",
              "system": "http://snomed.info/sct",
              "display": "Bleeding from anus (disorder)"
            }
          ],
          "text": "Bleeding from anus"
        },
        "onsetDateTime": "2001-03-15",
        "clinicalStatus": {
          "coding": [
            {
              "code": "active",
              "system": "http://terminology.hl7.org/CodeSystem/condition-clinical"
            }
          ]
        },
        "subject": {
          "reference": "Patient/ff442a16-8262-4191-b63d-4bc265da2466",
          "display": "Ida Brommer"
        },
        "asserter": {
          "reference": "Practitioner/91ea1450-4b79-42bc-8d93-5c94987ec44c",
          "display": "Dr. Hel Ping"
        }
      }
    },
    {
      "fullUrl": "urn:uuid:48638402-5cef-4862-badd-641c4d7b51db",
      "resource": {
        "resourceType": "Condition",
        "id": "48638402-5cef-4862-badd-641c4d7b51db",
        "meta": {
          "profile": [
            "http://hl7.org/fhir/uv/ips/StructureDefinition/Condition-uv-ips"
          ]
        },
        "category": [
          {
            "coding": [
              {
                "code": "problem-list-item",
                "system": "http://terminology.hl7.org/CodeSystem/condition-category",
                "display": "Problem List Item"
              }
            ]
          }
        ],
        "code": {
          "coding": [
            {
              "code": "414545008",
              "system": "http://snomed.info/sct",
              "display": "Ischemic heart disease (disorder)"
            }
          ],
          "text": "Ischemic heart disease"
        },
        "onsetDateTime": "1998-11-20",
        "clinicalStatus": {
          "coding": [
            {
              "code": "active",
              "system": "http://terminology.hl7.org/CodeSystem/condition-clinical"
            }
          ]
        },
        "subject": {
          "reference": "Patient/ff442a16-8262-4191-b63d-4bc265da2466",
          "display": "Ida Brommer"
        },
        "asserter": {
          "reference": "Practitioner/91ea1450-4b79-42bc-8d93-5c94987ec44c",
          "display": "Dr. Hel Ping"
        }
      }
    },
    {
      "fullUrl": "urn:uuid:b83f8bd2-83ea-4d34-817c-1f79fb582a55",
      "resource": {
        "resourceType": "Condition",
        "id": "b83f8bd2-83ea-4d34-817c-1f79fb582a55",
        "meta": {
          "profile": [
            "http://hl7.org/fhir/uv/ips/StructureDefinition/Condition-uv-ips"
          ]
        },
        "category": [
          {
            "coding": [
              {
                "code": "problem-list-item",
                "system": "http://terminology.hl7.org/CodeSystem/condition-category",
                "display": "Problem List Item"
              }
            ]
          }
        ],
        "code": {
          "coding": [
            {
              "code": "6525002",
              "system": "http://snomed.info/sct",
              "display": "Dependent drug abuse (disorder)"
            }
          ],
          "text": "Dependent drug abuse"
        },
        "onsetDateTime": "1994-05-24",
        "clinicalStatus": {
          "coding": [
            {
              "code": "active",
              "system": "http://terminology.hl7.org/CodeSystem/condition-clinical"
            }
          ]
        },
        "subject": {
          "reference": "Patient/ff442a16-8262-4191-b63d-4bc265da2466",
          "display": "Ida Brommer"
        },
        "asserter": {
          "reference": "Practitioner/91ea1450-4b79-42bc-8d93-5c94987ec44c",
          "display": "Dr. Hel Ping"
        }
      }
    },
    {
      "fullUrl": "urn:uuid:282c27e4-0b4e-4aa4-87f8-034b8cd584ec",
      "resource": {
        "resourceType": "Condition",
        "id": "282c27e4-0b4e-4aa4-87f8-034b8cd584ec",
        "meta": {
          "profile": [
            "http://hl7.org/fhir/uv/ips/StructureDefinition/Condition-uv-ips"
          ]
        },
        "category": [
          {
            "coding": [
              {
                "code": "problem-list-item",
                "system": "http://terminology.hl7.org/CodeSystem/condition-category",
                "display": "Problem List Item"
              }
            ]
          }
        ],
        "code": {
          "coding": [
            {
              "code": "196416002",
              "system": "http://snomed.info/sct",
              "display": "Impacted molars (disorder)"
            }
          ],
          "text": "Impacted molars"
        },
        "onsetDateTime": "1990-05-10",
        "clinicalStatus": {
          "coding": [
            {
              "code": "active",
              "system": "http://terminology.hl7.org/CodeSystem/condition-clinical"
            }
          ]
        },
        "subject": {
          "reference": "Patient/ff442a16-8262-4191-b63d-4bc265da2466",
          "display": "Ida Brommer"
        },
        "asserter": {
          "reference": "Practitioner/91ea1450-4b79-42bc-8d93-5c94987ec44c",
          "display": "Dr. Hel Ping"
        }
      }
    },
    {
      "fullUrl": "urn:uuid:5b84291a-32a6-4b7e-8bc5-a909330626aa",
      "resource": {
        "resourceType": "Condition",
        "id": "5b84291a-32a6-4b7e-8bc5-a909330626aa",
        "meta": {
          "profile": [
            "http://hl7.org/fhir/uv/ips/StructureDefinition/Condition-uv-ips"
          ]
        },
        "category": [
          {
            "coding": [
              {
                "code": "problem-list-item",
                "system": "http://terminology.hl7.org/CodeSystem/condition-category",
                "display": "Problem List Item"
              }
            ]
          }
        ],
        "code": {
          "coding": [
            {
              "code": "124171000119105",
              "system": "http://snomed.info/sct",
              "display": "Chronic intractable migraine without aura (disorder)"
            }
          ],
          "text": "Chronic intractable migraine without aura"
        },
        "onsetDateTime": "1990-03-20",
        "clinicalStatus": {
          "coding": [
            {
              "code": "active",
              "system": "http://terminology.hl7.org/CodeSystem/condition-clinical"
            }
          ]
        },
        "subject": {
          "reference": "Patient/ff442a16-8262-4191-b63d-4bc265da2466",
          "display": "Ida Brommer"
        },
        "asserter": {
          "reference": "Practitioner/91ea1450-4b79-42bc-8d93-5c94987ec44c",
          "display": "Dr. Hel Ping"
        }
      }
    },
    {
      "fullUrl": "urn:uuid:cf5768c5-5418-4dcb-8640-3e3f0b23b10f",
      "resource": {
        "resourceType": "Condition",
        "id": "cf5768c5-5418-4dcb-8640-3e3f0b23b10f",
        "meta": {
          "profile": [
            "http://hl7.org/fhir/uv/ips/StructureDefinition/Condition-uv-ips"
          ]
        },
        "category": [
          {
            "coding": [
              {
                "code": "problem-list-item",
                "system": "http://terminology.hl7.org/CodeSystem/condition-category",
                "display": "Problem List Item"
              }
            ]
          }
        ],
        "code": {
          "coding": [
            {
              "code": "271737000",
              "system": "http://snomed.info/sct",
              "display": "Anemia (disorder)"
            }
          ],
          "text": "Anemia"
        },
        "onsetDateTime": "1978-01-06",
        "clinicalStatus": {
          "coding": [
            {
              "code": "active",
              "system": "http://terminology.hl7.org/CodeSystem/condition-clinical"
            }
          ]
        },
        "subject": {
          "reference": "Patient/ff442a16-8262-4191-b63d-4bc265da2466",
          "display": "Ida Brommer"
        },
        "asserter": {
          "reference": "Practitioner/91ea1450-4b79-42bc-8d93-5c94987ec44c",
          "display": "Dr. Hel Ping"
        }
      }
    },
    {
      "fullUrl": "urn:uuid:c51daa7c-2e5a-4b06-8bd7-75e2c7e2689c",
      "resource": {
        "resourceType": "Condition",
        "id": "c51daa7c-2e5a-4b06-8bd7-75e2c7e2689c",
        "meta": {
          "profile": [
            "http://hl7.org/fhir/uv/ips/StructureDefinition/Condition-uv-ips"
          ]
        },
        "category": [
          {
            "coding": [
              {
                "code": "problem-list-item",
                "system": "http://terminology.hl7.org/CodeSystem/condition-category",
                "display": "Problem List Item"
              }
            ]
          }
        ],
        "code": {
          "coding": [
            {
              "code": "18718003",
              "system": "http://snomed.info/sct",
              "display": "Gingival disease (disorder)"
            }
          ],
          "text": "Gingival disease"
        },
        "onsetDateTime": "2024-12-13",
        "clinicalStatus": {
          "coding": [
            {
              "code": "inactive",
              "system": "http://terminology.hl7.org/CodeSystem/condition-clinical"
            }
          ]
        },
        "subject": {
          "reference": "Patient/ff442a16-8262-4191-b63d-4bc265da2466",
          "display": "Ida Brommer"
        },
        "asserter": {
          "reference": "Practitioner/91ea1450-4b79-42bc-8d93-5c94987ec44c",
          "display": "Dr. Hel Ping"
        }
      }
    },
    {
      "fullUrl": "urn:uuid:9b11ce89-d974-4a0c-93e6-975e0f5cf94e",
      "resource": {
        "resourceType": "Condition",
        "id": "9b11ce89-d974-4a0c-93e6-975e0f5cf94e",
        "meta": {
          "profile": [
            "http://hl7.org/fhir/uv/ips/StructureDefinition/Condition-uv-ips"
          ]
        },
        "category": [
          {
            "coding": [
              {
                "code": "problem-list-item",
                "system": "http://terminology.hl7.org/CodeSystem/condition-category",
                "display": "Problem List Item"
              }
            ]
          }
        ],
        "code": {
          "coding": [
            {
              "code": "66383009",
              "system": "http://snomed.info/sct",
              "display": "Gingivitis (disorder)"
            }
          ],
          "text": "Gingivitis"
        },
        "onsetDateTime": "2024-11-29",
        "clinicalStatus": {
          "coding": [
            {
              "code": "inactive",
              "system": "http://terminology.hl7.org/CodeSystem/condition-clinical"
            }
          ]
        },
        "subject": {
          "reference": "Patient/ff442a16-8262-4191-b63d-4bc265da2466",
          "display": "Ida Brommer"
        },
        "asserter": {
          "reference": "Practitioner/91ea1450-4b79-42bc-8d93-5c94987ec44c",
          "display": "Dr. Hel Ping"
        }
      }
    },
    {
      "fullUrl": "urn:uuid:afd2eb98-5b32-488f-b24c-b7f29f7ae94f",
      "resource": {
        "resourceType": "Condition",
        "id": "afd2eb98-5b32-488f-b24c-b7f29f7ae94f",
        "meta": {
          "profile": [
            "http://hl7.org/fhir/uv/ips/StructureDefinition/Condition-uv-ips"
          ]
        },
        "category": [
          {
            "coding": [
              {
                "code": "problem-list-item",
                "system": "http://terminology.hl7.org/CodeSystem/condition-category",
                "display": "Problem List Item"
              }
            ]
          }
        ],
        "code": {
          "coding": [
            {
              "code": "66383009",
              "system": "http://snomed.info/sct",
              "display": "Gingivitis (disorder)"
            }
          ],
          "text": "Gingivitis"
        },
        "onsetDateTime": "2024-05-03",
        "clinicalStatus": {
          "coding": [
            {
              "code": "inactive",
              "system": "http://terminology.hl7.org/CodeSystem/condition-clinical"
            }
          ]
        },
        "subject": {
          "reference": "Patient/ff442a16-8262-4191-b63d-4bc265da2466",
          "display": "Ida Brommer"
        },
        "asserter": {
          "reference": "Practitioner/91ea1450-4b79-42bc-8d93-5c94987ec44c",
          "display": "Dr. Hel Ping"
        }
      }
    },
    {
      "fullUrl": "urn:uuid:de5c8b0b-7f72-48b6-a624-82492d838192",
      "resource": {
        "resourceType": "Condition",
        "id": "de5c8b0b-7f72-48b6-a624-82492d838192",
        "meta": {
          "profile": [
            "http://hl7.org/fhir/uv/ips/StructureDefinition/Condition-uv-ips"
          ]
        },
        "category": [
          {
            "coding": [
              {
                "code": "problem-list-item",
                "system": "http://terminology.hl7.org/CodeSystem/condition-category",
                "display": "Problem List Item"
              }
            ]
          }
        ],
        "code": {
          "coding": [
            {
              "code": "66383009",
              "system": "http://snomed.info/sct",
              "display": "Gingivitis (disorder)"
            }
          ],
          "text": "Gingivitis"
        },
        "onsetDateTime": "2024-01-05",
        "clinicalStatus": {
          "coding": [
            {
              "code": "inactive",
              "system": "http://terminology.hl7.org/CodeSystem/condition-clinical"
            }
          ]
        },
        "subject": {
          "reference": "Patient/ff442a16-8262-4191-b63d-4bc265da2466",
          "display": "Ida Brommer"
        },
        "asserter": {
          "reference": "Practitioner/91ea1450-4b79-42bc-8d93-5c94987ec44c",
          "display": "Dr. Hel Ping"
        }
      }
    },
    {
      "fullUrl": "urn:uuid:f77926e2-f606-4e40-b269-5bfc380dfe79",
      "resource": {
        "resourceType": "Condition",
        "id": "f77926e2-f606-4e40-b269-5bfc380dfe79",
        "meta": {
          "profile": [
            "http://hl7.org/fhir/uv/ips/StructureDefinition/Condition-uv-ips"
          ]
        },
        "category": [
          {
            "coding": [
              {
                "code": "problem-list-item",
                "system": "http://terminology.hl7.org/CodeSystem/condition-category",
                "display": "Problem List Item"
              }
            ]
          }
        ],
        "code": {
          "coding": [
            {
              "code": "66383009",
              "system": "http://snomed.info/sct",
              "display": "Gingivitis (disorder)"
            }
          ],
          "text": "Gingivitis"
        },
        "onsetDateTime": "2023-06-23",
        "clinicalStatus": {
          "coding": [
            {
              "code": "inactive",
              "system": "http://terminology.hl7.org/CodeSystem/condition-clinical"
            }
          ]
        },
        "subject": {
          "reference": "Patient/ff442a16-8262-4191-b63d-4bc265da2466",
          "display": "Ida Brommer"
        },
        "asserter": {
          "reference": "Practitioner/91ea1450-4b79-42bc-8d93-5c94987ec44c",
          "display": "Dr. Hel Ping"
        }
      }
    },
    {
      "fullUrl": "urn:uuid:f70b0d2d-8b60-45fb-b805-55316ad14557",
      "resource": {
        "resourceType": "Condition",
        "id": "f70b0d2d-8b60-45fb-b805-55316ad14557",
        "meta": {
          "profile": [
            "http://hl7.org/fhir/uv/ips/StructureDefinition/Condition-uv-ips"
          ]
        },
        "category": [
          {
            "coding": [
              {
                "code": "problem-list-item",
                "system": "http://terminology.hl7.org/CodeSystem/condition-category",
                "display": "Problem List Item"
              }
            ]
          }
        ],
        "code": {
          "coding": [
            {
              "code": "18718003",
              "system": "http://snomed.info/sct",
              "display": "Gingival disease (disorder)"
            }
          ],
          "text": "Gingival disease"
        },
        "onsetDateTime": "2022-03-26",
        "clinicalStatus": {
          "coding": [
            {
              "code": "inactive",
              "system": "http://terminology.hl7.org/CodeSystem/condition-clinical"
            }
          ]
        },
        "subject": {
          "reference": "Patient/ff442a16-8262-4191-b63d-4bc265da2466",
          "display": "Ida Brommer"
        },
        "asserter": {
          "reference": "Practitioner/91ea1450-4b79-42bc-8d93-5c94987ec44c",
          "display": "Dr. Hel Ping"
        }
      }
    },
    {
      "fullUrl": "urn:uuid:1949385a-9a29-4943-8054-4fa58c8e4f8e",
      "resource": {
        "resourceType": "Condition",
        "id": "1949385a-9a29-4943-8054-4fa58c8e4f8e",
        "meta": {
          "profile": [
            "http://hl7.org/fhir/uv/ips/StructureDefinition/Condition-uv-ips"
          ]
        },
        "category": [
          {
            "coding": [
              {
                "code": "problem-list-item",
                "system": "http://terminology.hl7.org/CodeSystem/condition-category",
                "display": "Problem List Item"
              }
            ]
          }
        ],
        "code": {
          "coding": [
            {
              "code": "66383009",
              "system": "http://snomed.info/sct",
              "display": "Gingivitis (disorder)"
            }
          ],
          "text": "Gingivitis"
        },
        "onsetDateTime": "2021-09-24",
        "clinicalStatus": {
          "coding": [
            {
              "code": "inactive",
              "system": "http://terminology.hl7.org/CodeSystem/condition-clinical"
            }
          ]
        },
        "subject": {
          "reference": "Patient/ff442a16-8262-4191-b63d-4bc265da2466",
          "display": "Ida Brommer"
        },
        "asserter": {
          "reference": "Practitioner/91ea1450-4b79-42bc-8d93-5c94987ec44c",
          "display": "Dr. Hel Ping"
        }
      }
    },
    {
      "fullUrl": "urn:uuid:f10d5222-8b33-40bc-ac9e-2e684a2fa383",
      "resource": {
        "resourceType": "Condition",
        "id": "f10d5222-8b33-40bc-ac9e-2e684a2fa383",
        "meta": {
          "profile": [
            "http://hl7.org/fhir/uv/ips/StructureDefinition/Condition-uv-ips"
          ]
        },
        "category": [
          {
            "coding": [
              {
                "code": "problem-list-item",
                "system": "http://terminology.hl7.org/CodeSystem/condition-category",
                "display": "Problem List Item"
              }
            ]
          }
        ],
        "code": {
          "coding": [
            {
              "code": "66383009",
              "system": "http://snomed.info/sct",
              "display": "Gingivitis (disorder)"
            }
          ],
          "text": "Gingivitis"
        },
        "onsetDateTime": "2019-04-05",
        "clinicalStatus": {
          "coding": [
            {
              "code": "inactive",
              "system": "http://terminology.hl7.org/CodeSystem/condition-clinical"
            }
          ]
        },
        "subject": {
          "reference": "Patient/ff442a16-8262-4191-b63d-4bc265da2466",
          "display": "Ida Brommer"
        },
        "asserter": {
          "reference": "Practitioner/91ea1450-4b79-42bc-8d93-5c94987ec44c",
          "display": "Dr. Hel Ping"
        }
      }
    },
    {
      "fullUrl": "urn:uuid:30cf1f8c-a352-4c10-8006-f180be0713de",
      "resource": {
        "resourceType": "Condition",
        "id": "30cf1f8c-a352-4c10-8006-f180be0713de",
        "meta": {
          "profile": [
            "http://hl7.org/fhir/uv/ips/StructureDefinition/Condition-uv-ips"
          ]
        },
        "category": [
          {
            "coding": [
              {
                "code": "problem-list-item",
                "system": "http://terminology.hl7.org/CodeSystem/condition-category",
                "display": "Problem List Item"
              }
            ]
          }
        ],
        "code": {
          "coding": [
            {
              "code": "66383009",
              "system": "http://snomed.info/sct",
              "display": "Gingivitis (disorder)"
            }
          ],
          "text": "Gingivitis"
        },
        "onsetDateTime": "2018-03-30",
        "clinicalStatus": {
          "coding": [
            {
              "code": "inactive",
              "system": "http://terminology.hl7.org/CodeSystem/condition-clinical"
            }
          ]
        },
        "subject": {
          "reference": "Patient/ff442a16-8262-4191-b63d-4bc265da2466",
          "display": "Ida Brommer"
        },
        "asserter": {
          "reference": "Practitioner/91ea1450-4b79-42bc-8d93-5c94987ec44c",
          "display": "Dr. Hel Ping"
        }
      }
    },
    {
      "fullUrl": "urn:uuid:26223381-2aa9-4fe5-98a0-c868ba148ec8",
      "resource": {
        "resourceType": "Condition",
        "id": "26223381-2aa9-4fe5-98a0-c868ba148ec8",
        "meta": {
          "profile": [
            "http://hl7.org/fhir/uv/ips/StructureDefinition/Condition-uv-ips"
          ]
        },
        "category": [
          {
            "coding": [
              {
                "code": "problem-list-item",
                "system": "http://terminology.hl7.org/CodeSystem/condition-category",
                "display": "Problem List Item"
              }
            ]
          }
        ],
        "code": {
          "coding": [
            {
              "code": "312608009",
              "system": "http://snomed.info/sct",
              "display": "Laceration - injury (disorder)"
            }
          ],
          "text": "Laceration - injury"
        },
        "onsetDateTime": "2016-12-11",
        "clinicalStatus": {
          "coding": [
            {
              "code": "inactive",
              "system": "http://terminology.hl7.org/CodeSystem/condition-clinical"
            }
          ]
        },
        "subject": {
          "reference": "Patient/ff442a16-8262-4191-b63d-4bc265da2466",
          "display": "Ida Brommer"
        },
        "asserter": {
          "reference": "Practitioner/91ea1450-4b79-42bc-8d93-5c94987ec44c",
          "display": "Dr. Hel Ping"
        }
      }
    },
    {
      "fullUrl": "urn:uuid:317d282a-23a8-44b4-a724-195acbd4ac46",
      "resource": {
        "resourceType": "Condition",
        "id": "317d282a-23a8-44b4-a724-195acbd4ac46",
        "meta": {
          "profile": [
            "http://hl7.org/fhir/uv/ips/StructureDefinition/Condition-uv-ips"
          ]
        },
        "category": [
          {
            "coding": [
              {
                "code": "problem-list-item",
                "system": "http://terminology.hl7.org/CodeSystem/condition-category",
                "display": "Problem List Item"
              }
            ]
          }
        ],
        "code": {
          "coding": [
            {
              "code": "370247008",
              "system": "http://snomed.info/sct",
              "display": "Facial laceration (disorder)"
            }
          ],
          "text": "Facial laceration"
        },
        "onsetDateTime": "2016-12-11",
        "clinicalStatus": {
          "coding": [
            {
              "code": "inactive",
              "system": "http://terminology.hl7.org/CodeSystem/condition-clinical"
            }
          ]
        },
        "subject": {
          "reference": "Patient/ff442a16-8262-4191-b63d-4bc265da2466",
          "display": "Ida Brommer"
        },
        "asserter": {
          "reference": "Practitioner/91ea1450-4b79-42bc-8d93-5c94987ec44c",
          "display": "Dr. Hel Ping"
        }
      }
    },
    {
      "fullUrl": "urn:uuid:c350ed87-9e3a-43ac-bb6d-c3a805a5371b",
      "resource": {
        "resourceType": "Condition",
        "id": "c350ed87-9e3a-43ac-bb6d-c3a805a5371b",
        "meta": {
          "profile": [
            "http://hl7.org/fhir/uv/ips/StructureDefinition/Condition-uv-ips"
          ]
        },
        "category": [
          {
            "coding": [
              {
                "code": "problem-list-item",
                "system": "http://terminology.hl7.org/CodeSystem/condition-category",
                "display": "Problem List Item"
              }
            ]
          }
        ],
        "code": {
          "coding": [
            {
              "code": "1149222004",
              "system": "http://snomed.info/sct",
              "display": "Overdose (disorder)"
            }
          ],
          "text": "Overdose"
        },
        "onsetDateTime": "2015-09-26",
        "clinicalStatus": {
          "coding": [
            {
              "code": "inactive",
              "system": "http://terminology.hl7.org/CodeSystem/condition-clinical"
            }
          ]
        },
        "subject": {
          "reference": "Patient/ff442a16-8262-4191-b63d-4bc265da2466",
          "display": "Ida Brommer"
        },
        "asserter": {
          "reference": "Practitioner/91ea1450-4b79-42bc-8d93-5c94987ec44c",
          "display": "Dr. Hel Ping"
        }
      }
    },
    {
      "fullUrl": "urn:uuid:4a902abd-8e07-4dcd-bdc6-d6fc75bc9eb8",
      "resource": {
        "resourceType": "Medication",
        "id": "4a902abd-8e07-4dcd-bdc6-d6fc75bc9eb8",
        "meta": {
          "profile": [
            "http://hl7.org/fhir/uv/ips/StructureDefinition/Medication-uv-ips"
          ]
        },
        "code": {
          "coding": [
            {
              "code": "314231",
              "system": "http://www.nlm.nih.gov/research/umls/rxnorm",
              "display": "simvastatin 10 MG Oral Tablet"
            },
            {
              "code": "319996000",
              "system": "http://snomed.info/sct",
              "display": "Product containing precisely simvastatin 10 milligram/1 each conventional release oral tablet (clinical drug)"
            }
          ],
          "text": "Simvastatin 10 mg oral tablet"
        },
        "form": {
          "coding": [
            {
              "code": "421026006",
              "system": "http://snomed.info/sct",
              "display": "Oral tablet"
            }
          ]
        },
        "ingredient": [
          {
            "itemCodeableConcept": {
              "coding": [
                {
                  "code": "387584000",
                  "system": "http://snomed.info/sct",
                  "display": "Simvastatin"
                }
              ]
            },
            "isActive": true
          }
        ]
      }
    },
    {
      "fullUrl": "urn:uuid:f04cc2a6-2e20-4817-9e78-ae60d8c72b38",
      "resource": {
        "resourceType": "MedicationStatement",
        "id": "f04cc2a6-2e20-4817-9e78-ae60d8c72b38",
        "effectivePeriod": {
          "start": "2025-01-21"
        },
        "dosage": [
          {
            "doseAndRate": [
              {
                "doseQuantity": {
                  "value": 1,
                  "unit": "{tbl}",
                  "code": "{tbl}"
                }
              }
            ],
            "timing": {
              "repeat": {
                "frequency": 1,
                "period": 1,
                "periodUnit": "d"
              }
            },
            "text": "1 tablet (10 mg) by mouth once daily",
            "asNeededBoolean": false
          }
        ],
        "reasonCode": [
          {
            "coding": [
              {
                "code": "55822004",
                "system": "http://snomed.info/sct",
                "display": "Hyperlipidemia (disorder)"
              }
            ]
          }
        ],
        "status": "active",
        "medicationReference": {
          "reference": "Medication/4a902abd-8e07-4dcd-bdc6-d6fc75bc9eb8",
          "display": "Simvastatin 10 mg oral tablet"
        },
        "subject": {
          "reference": "Patient/ff442a16-8262-4191-b63d-4bc265da2466",
          "display": "Ida Brommer"
        }
      }
    },
    {
      "fullUrl": "urn:uuid:f76799dc-c147-4827-9a00-b7748baf386f",
      "resource": {
        "resourceType": "Medication",
        "id": "f76799dc-c147-4827-9a00-b7748baf386f",
        "meta": {
          "profile": [
            "http://hl7.org/fhir/uv/ips/StructureDefinition/Medication-uv-ips"
          ]
        },
        "code": {
          "coding": [
            {
              "code": "310436",
              "system": "http://www.nlm.nih.gov/research/umls/rxnorm",
              "display": "galantamine 4 MG Oral Tablet"
            },
            {
              "code": "323381002",
              "system": "http://snomed.info/sct",
              "display": "Product containing precisely galantamine (as galantamine hydrobromide) 4 milligram/1 each conventional release oral tablet (clinical drug)"
            }
          ],
          "text": "Galantamine (as galantamine hydrobromide) 4 mg oral tablet"
        },
        "form": {
          "coding": [
            {
              "code": "421026006",
              "system": "http://snomed.info/sct",
              "display": "Oral tablet"
            }
          ]
        },
        "ingredient": [
          {
            "itemCodeableConcept": {
              "coding": [
                {
                  "code": "129482002",
                  "system": "http://snomed.info/sct",
                  "display": "Galantamine hydrobromide"
                }
              ]
            },
            "isActive": true
          }
        ]
      }
    },
    {
      "fullUrl": "urn:uuid:dff8565e-e5dd-44ee-89e3-ce6a5fc68fed",
      "resource": {
        "resourceType": "MedicationStatement",
        "id": "dff8565e-e5dd-44ee-89e3-ce6a5fc68fed",
        "effectivePeriod": {
          "start": "2021-04-16"
        },
        "dosage": [
          {
            "doseAndRate": [
              {
                "doseQuantity": {
                  "value": 1,
                  "unit": "{tbl}",
                  "code": "{tbl}"
                }
              }
            ],
            "timing": {
              "repeat": {
                "frequency": 1,
                "period": 1,
                "periodUnit": "d"
              }
            },
            "text": "1 tablet (4 mg) once daily",
            "asNeededBoolean": false
          }
        ],
        "reasonCode": [
          {
            "coding": [
              {
                "code": "26929004",
                "system": "http://snomed.info/sct",
                "display": "Alzheimer's disease (disorder)"
              }
            ]
          }
        ],
        "status": "active",
        "medicationReference": {
          "reference": "Medication/f76799dc-c147-4827-9a00-b7748baf386f",
          "display": "Galantamine (as galantamine hydrobromide) 4 mg oral tablet"
        },
        "subject": {
          "reference": "Patient/ff442a16-8262-4191-b63d-4bc265da2466",
          "display": "Ida Brommer"
        }
      }
    },
    {
      "fullUrl": "urn:uuid:2a467020-2a0c-44aa-8b75-daa6c688163d",
      "resource": {
        "resourceType": "Medication",
        "id": "2a467020-2a0c-44aa-8b75-daa6c688163d",
        "meta": {
          "profile": [
            "http://hl7.org/fhir/uv/ips/StructureDefinition/Medication-uv-ips"
          ]
        },
        "code": {
          "coding": [
            {
              "code": "309362",
              "system": "http://www.nlm.nih.gov/research/umls/rxnorm",
              "display": "clopidogrel 75 MG Oral Tablet"
            },
            {
              "code": "783586007",
              "system": "http://snomed.info/sct",
              "display": "Product containing precisely clopidogrel (as clopidogrel bisulfate) 75 milligram/1 each conventional release oral tablet (clinical drug)"
            }
          ],
          "text": "Clopidogrel (as clopidogrel bisulfate) 75 mg oral tablet"
        },
        "form": {
          "coding": [
            {
              "code": "421026006",
              "system": "http://snomed.info/sct",
              "display": "Oral tablet"
            }
          ]
        },
        "ingredient": [
          {
            "itemCodeableConcept": {
              "coding": [
                {
                  "code": "412354008",
                  "system": "http://snomed.info/sct",
                  "display": "Clopidogrel bisulfate"
                }
              ]
            },
            "isActive": true
          }
        ]
      }
    },
    {
      "fullUrl": "urn:uuid:9487f8bb-e010-4cde-ba61-b9e774779c0f",
      "resource": {
        "resourceType": "MedicationStatement",
        "id": "9487f8bb-e010-4cde-ba61-b9e774779c0f",
        "effectivePeriod": {
          "start": "1998-11-27"
        },
        "dosage": [
          {
            "doseAndRate": [
              {
                "doseQuantity": {
                  "value": 1,
                  "unit": "{tbl}",
                  "code": "{tbl}"
                }
              }
            ],
            "timing": {
              "repeat": {
                "frequency": 1,
                "period": 1,
                "periodUnit": "d"
              }
            },
            "text": "1 tablet (75 mg) once daily",
            "asNeededBoolean": false
          }
        ],
        "status": "active",
        "medicationReference": {
          "reference": "Medication/2a467020-2a0c-44aa-8b75-daa6c688163d",
          "display": "Clopidogrel (as clopidogrel bisulfate) 75 mg oral tablet"
        },
        "subject": {
          "reference": "Patient/ff442a16-8262-4191-b63d-4bc265da2466",
          "display": "Ida Brommer"
        }
      }
    },
    {
      "fullUrl": "urn:uuid:1a0cf9f3-75a7-4802-8c8c-4f3cd40cce43",
      "resource": {
        "resourceType": "Medication",
        "id": "1a0cf9f3-75a7-4802-8c8c-4f3cd40cce43",
        "meta": {
          "profile": [
            "http://hl7.org/fhir/uv/ips/StructureDefinition/Medication-uv-ips"
          ]
        },
        "code": {
          "coding": [
            {
              "code": "312961",
              "system": "http://www.nlm.nih.gov/research/umls/rxnorm",
              "display": "simvastatin 20 MG Oral Tablet"
            },
            {
              "code": "319997009",
              "system": "http://snomed.info/sct",
              "display": "Product containing precisely simvastatin 20 milligram/1 each conventional release oral tablet (clinical drug)"
            }
          ],
          "text": "Simvastatin 20 mg oral tablet"
        },
        "form": {
          "coding": [
            {
              "code": "421026006",
              "system": "http://snomed.info/sct",
              "display": "Oral tablet"
            }
          ]
        },
        "ingredient": [
          {
            "itemCodeableConcept": {
              "coding": [
                {
                  "code": "387584000",
                  "system": "http://snomed.info/sct",
                  "display": "Simvastatin"
                }
              ]
            },
            "isActive": true
          }
        ]
      }
    },
    {
      "fullUrl": "urn:uuid:94e748af-1d72-4f95-860d-5dc411575025",
      "resource": {
        "resourceType": "MedicationStatement",
        "id": "94e748af-1d72-4f95-860d-5dc411575025",
        "effectivePeriod": {
          "start": "1998-11-27"
        },
        "dosage": [
          {
            "doseAndRate": [
              {
                "doseQuantity": {
                  "value": 1,
                  "unit": "{tbl}",
                  "code": "{tbl}"
                }
              }
            ],
            "timing": {
              "repeat": {
                "frequency": 1,
                "period": 1,
                "periodUnit": "d"
              }
            },
            "text": "1 tablet (20 mg) by mouth once daily",
            "asNeededBoolean": false
          }
        ],
        "status": "active",
        "medicationReference": {
          "reference": "Medication/1a0cf9f3-75a7-4802-8c8c-4f3cd40cce43",
          "display": "Simvastatin 20 mg oral tablet"
        },
        "subject": {
          "reference": "Patient/ff442a16-8262-4191-b63d-4bc265da2466",
          "display": "Ida Brommer"
        }
      }
    },
    {
      "fullUrl": "urn:uuid:1329c2f2-435f-4ba5-b5b9-c44a4387b30c",
      "resource": {
        "resourceType": "Medication",
        "id": "1329c2f2-435f-4ba5-b5b9-c44a4387b30c",
        "meta": {
          "profile": [
            "http://hl7.org/fhir/uv/ips/StructureDefinition/Medication-uv-ips"
          ]
        },
        "code": {
          "coding": [
            {
              "code": "705129",
              "system": "http://www.nlm.nih.gov/research/umls/rxnorm",
              "display": "nitroglycerin 0.4 MG/ACTUAT Mucosal Spray"
            },
            {
              "code": "425176000",
              "system": "http://snomed.info/sct",
              "display": "Product containing precisely glyceryl trinitrate 400 microgram/1 actuation conventional release sublingual spray (clinical drug)"
            }
          ],
          "text": "Nitroglycerin 400 microgram/actuation sublingual spray"
        },
        "form": {
          "coding": [
            {
              "code": "385074009",
              "system": "http://snomed.info/sct",
              "display": "Sublingual spray"
            }
          ]
        },
        "ingredient": [
          {
            "itemCodeableConcept": {
              "coding": [
                {
                  "code": "387404004",
                  "system": "http://snomed.info/sct",
                  "display": "Glyceryl trinitrate"
                }
              ]
            },
            "isActive": true
          }
        ]
      }
    },
    {
      "fullUrl": "urn:uuid:84d516b3-5c6c-4809-b293-471cd86628ca",
      "resource": {
        "resourceType": "MedicationStatement",
        "id": "84d516b3-5c6c-4809-b293-471cd86628ca",
        "effectivePeriod": {
          "start": "1998-11-27"
        },
        "dosage": [
          {
            "doseAndRate": [
              {
                "doseQuantity": {
                  "value": 400,
                  "unit": "mcg",
                  "code": "ug"
                }
              }
            ],
            "timing": {
              "repeat": {
                "frequency": 1,
                "period": 5,
                "periodUnit": "min"
              }
            },
            "text": "1 spray (400 micrograms) under the tongue as needed for chest pain, may repeat every 5 minutes as needed, up to 3 sprays in 15 minutes",
            "asNeededBoolean": true
          }
        ],
        "status": "active",
        "medicationReference": {
          "reference": "Medication/1329c2f2-435f-4ba5-b5b9-c44a4387b30c",
          "display": "Nitroglycerin 400 microgram/actuation sublingual spray"
        },
        "subject": {
          "reference": "Patient/ff442a16-8262-4191-b63d-4bc265da2466",
          "display": "Ida Brommer"
        }
      }
    },
    {
      "fullUrl": "urn:uuid:970bcd34-6fa4-4525-b501-a2f92b2ea96c",
      "resource": {
        "resourceType": "Medication",
        "id": "970bcd34-6fa4-4525-b501-a2f92b2ea96c",
        "meta": {
          "profile": [
            "http://hl7.org/fhir/uv/ips/StructureDefinition/Medication-uv-ips"
          ]
        },
        "code": {
          "coding": [
            {
              "code": "866412",
              "system": "http://www.nlm.nih.gov/research/umls/rxnorm",
              "display": "24 HR metoprolol succinate 100 MG Extended Release Oral Tablet"
            },
            {
              "code": "879980009",
              "system": "http://snomed.info/sct",
              "display": "Product containing precisely metoprolol tartrate (as metoprolol succinate) 100 milligram/1 each prolonged-release oral tablet (clinical drug)"
            }
          ],
          "text": "Metoprolol tartrate (as metoprolol succinate) 100 mg prolonged-release oral tablet"
        },
        "form": {
          "coding": [
            {
              "code": "385060002",
              "system": "http://snomed.info/sct",
              "display": "Prolonged-release oral tablet"
            }
          ]
        },
        "ingredient": [
          {
            "itemCodeableConcept": {
              "coding": [
                {
                  "code": "412432007",
                  "system": "http://snomed.info/sct",
                  "display": "Metoprolol succinate"
                }
              ]
            },
            "isActive": true
          }
        ]
      }
    },
    {
      "fullUrl": "urn:uuid:f810ff56-fd4b-44b2-bc13-9fcae12c2d1a",
      "resource": {
        "resourceType": "MedicationStatement",
        "id": "f810ff56-fd4b-44b2-bc13-9fcae12c2d1a",
        "effectivePeriod": {
          "start": "1998-11-27"
        },
        "dosage": [
          {
            "doseAndRate": [
              {
                "doseQuantity": {
                  "value": 1,
                  "unit": "{tbl}",
                  "code": "{tbl}"
                }
              }
            ],
            "timing": {
              "repeat": {
                "frequency": 1,
                "period": 1,
                "periodUnit": "d"
              }
            },
            "text": "1 tablet (100 mg) once daily",
            "asNeededBoolean": false
          }
        ],
        "status": "active",
        "medicationReference": {
          "reference": "Medication/970bcd34-6fa4-4525-b501-a2f92b2ea96c",
          "display": "Metoprolol tartrate (as metoprolol succinate) 100 mg prolonged-release oral tablet"
        },
        "subject": {
          "reference": "Patient/ff442a16-8262-4191-b63d-4bc265da2466",
          "display": "Ida Brommer"
        }
      }
    },
    {
      "fullUrl": "urn:uuid:b7277a19-d981-455f-90a6-c1f17e4ab220",
      "resource": {
        "resourceType": "AllergyIntolerance",
        "id": "b7277a19-d981-455f-90a6-c1f17e4ab220",
        "meta": {
          "profile": [
            "http://hl7.eu/fhir/eps/StructureDefinition/allergyIntolerance-eu-eps"
          ]
        },
        "code": {
          "coding": [
            {
              "code": "716186003",
              "system": "http://snomed.info/sct",
              "display": "No known allergy (situation)"
            }
          ]
        },
        "patient": {
          "reference": "Patient/ff442a16-8262-4191-b63d-4bc265da2466",
          "display": "Ida Brommer"
        },
        "_onsetDateTime": {
          "extension": [
            {
              "url": "http://hl7.org/fhir/StructureDefinition/data-absent-reason",
              "valueCode": "unknown"
            }
          ]
        }
      }
    },
    {
      "fullUrl": "urn:uuid:7d9f395f-10c8-4b8b-ac70-b838b2141e39",
      "resource": {
        "resourceType": "Procedure",
        "id": "7d9f395f-10c8-4b8b-ac70-b838b2141e39",
        "meta": {
          "profile": [
            "http://hl7.org/fhir/uv/ips/StructureDefinition/Procedure-uv-ips"
          ]
        },
        "code": {
          "coding": [
            {
              "code": "103697008",
              "system": "http://snomed.info/sct",
              "display": "Patient referral for dental care (procedure)"
            }
          ],
          "text": "Patient referral for dental care"
        },
        "reasonCode": [
          {
            "coding": [
              {
                "code": "66383009",
                "system": "http://snomed.info/sct",
                "display": "Gingivitis (disorder)"
              }
            ]
          }
        ],
        "status": "completed",
        "subject": {
          "reference": "Patient/ff442a16-8262-4191-b63d-4bc265da2466",
          "display": "Ida Brommer"
        },
        "performedDateTime": "2021-09-24"
      }
    },
    {
      "fullUrl": "urn:uuid:ec9b4fe4-1690-428f-a39f-e8da8a4c24ea",
      "resource": {
        "resourceType": "Procedure",
        "id": "ec9b4fe4-1690-428f-a39f-e8da8a4c24ea",
        "meta": {
          "profile": [
            "http://hl7.org/fhir/uv/ips/StructureDefinition/Procedure-uv-ips"
          ]
        },
        "code": {
          "coding": [
            {
              "code": "171207006",
              "system": "http://snomed.info/sct",
              "display": "Depression screening (procedure)"
            }
          ],
          "text": "Depression screening"
        },
        "status": "completed",
        "subject": {
          "reference": "Patient/ff442a16-8262-4191-b63d-4bc265da2466",
          "display": "Ida Brommer"
        },
        "performedDateTime": "2021-09-24"
      }
    },
    {
      "fullUrl": "urn:uuid:2217d27c-6a9a-4fce-a333-300b8ee316a2",
      "resource": {
        "resourceType": "Procedure",
        "id": "2217d27c-6a9a-4fce-a333-300b8ee316a2",
        "meta": {
          "profile": [
            "http://hl7.org/fhir/uv/ips/StructureDefinition/Procedure-uv-ips"
          ]
        },
        "code": {
          "coding": [
            {
              "code": "430193006",
              "system": "http://snomed.info/sct",
              "display": "Medication reconciliation (procedure)"
            }
          ],
          "text": "Medication reconciliation"
        },
        "status": "completed",
        "subject": {
          "reference": "Patient/ff442a16-8262-4191-b63d-4bc265da2466",
          "display": "Ida Brommer"
        },
        "performedDateTime": "2021-09-24"
      }
    },
    {
      "fullUrl": "urn:uuid:eafca5af-1e4d-45c0-baaa-9b64e6be4df9",
      "resource": {
        "resourceType": "Procedure",
        "id": "eafca5af-1e4d-45c0-baaa-9b64e6be4df9",
        "meta": {
          "profile": [
            "http://hl7.org/fhir/uv/ips/StructureDefinition/Procedure-uv-ips"
          ]
        },
        "code": {
          "coding": [
            {
              "code": "710824005",
              "system": "http://snomed.info/sct",
              "display": "Assessment of health and social care needs (procedure)"
            }
          ],
          "text": "Assessment of health and social care needs"
        },
        "status": "completed",
        "subject": {
          "reference": "Patient/ff442a16-8262-4191-b63d-4bc265da2466",
          "display": "Ida Brommer"
        },
        "performedDateTime": "2021-09-24"
      }
    },
    {
      "fullUrl": "urn:uuid:7f431d89-fce0-46e2-a8b4-3fb72c8f9fc1",
      "resource": {
        "resourceType": "Procedure",
        "id": "7f431d89-fce0-46e2-a8b4-3fb72c8f9fc1",
        "meta": {
          "profile": [
            "http://hl7.org/fhir/uv/ips/StructureDefinition/Procedure-uv-ips"
          ]
        },
        "code": {
          "coding": [
            {
              "code": "710841007",
              "system": "http://snomed.info/sct",
              "display": "Assessment of anxiety (procedure)"
            }
          ],
          "text": "Assessment of anxiety"
        },
        "status": "completed",
        "subject": {
          "reference": "Patient/ff442a16-8262-4191-b63d-4bc265da2466",
          "display": "Ida Brommer"
        },
        "performedDateTime": "2021-09-24"
      }
    },
    {
      "fullUrl": "urn:uuid:dbd2b833-7719-445a-a393-cee451f99950",
      "resource": {
        "resourceType": "Procedure",
        "id": "dbd2b833-7719-445a-a393-cee451f99950",
        "meta": {
          "profile": [
            "http://hl7.org/fhir/uv/ips/StructureDefinition/Procedure-uv-ips"
          ]
        },
        "code": {
          "coding": [
            {
              "code": "762993000",
              "system": "http://snomed.info/sct",
              "display": "Assessment using Morse Fall Scale (procedure)"
            }
          ],
          "text": "Assessment using Morse Fall Scale"
        },
        "status": "completed",
        "subject": {
          "reference": "Patient/ff442a16-8262-4191-b63d-4bc265da2466",
          "display": "Ida Brommer"
        },
        "performedDateTime": "2021-09-24"
      }
    },
    {
      "fullUrl": "urn:uuid:16724abb-7823-40c1-8953-19b4b29c24b7",
      "resource": {
        "resourceType": "Procedure",
        "id": "16724abb-7823-40c1-8953-19b4b29c24b7",
        "meta": {
          "profile": [
            "http://hl7.org/fhir/uv/ips/StructureDefinition/Procedure-uv-ips"
          ]
        },
        "code": {
          "coding": [
            {
              "code": "58000006",
              "system": "http://snomed.info/sct",
              "display": "Patient discharge (procedure)"
            }
          ],
          "text": "Patient discharge"
        },
        "status": "completed",
        "subject": {
          "reference": "Patient/ff442a16-8262-4191-b63d-4bc265da2466",
          "display": "Ida Brommer"
        },
        "performedDateTime": "2018-11-09"
      }
    },
    {
      "fullUrl": "urn:uuid:18f4b0d4-35e9-4974-bc2f-2de84e4ed161",
      "resource": {
        "resourceType": "Procedure",
        "id": "18f4b0d4-35e9-4974-bc2f-2de84e4ed161",
        "meta": {
          "profile": [
            "http://hl7.org/fhir/uv/ips/StructureDefinition/Procedure-uv-ips"
          ]
        },
        "code": {
          "coding": [
            {
              "code": "385763009",
              "system": "http://snomed.info/sct",
              "display": "Hospice care (regime/therapy)"
            }
          ],
          "text": "Hospice care"
        },
        "status": "completed",
        "subject": {
          "reference": "Patient/ff442a16-8262-4191-b63d-4bc265da2466",
          "display": "Ida Brommer"
        },
        "performedDateTime": "2018-11-08"
      }
    },
    {
      "fullUrl": "urn:uuid:56a5bb7e-f7f6-4a81-a292-32ba6ec57276",
      "resource": {
        "resourceType": "Procedure",
        "id": "56a5bb7e-f7f6-4a81-a292-32ba6ec57276",
        "meta": {
          "profile": [
            "http://hl7.org/fhir/uv/ips/StructureDefinition/Procedure-uv-ips"
          ]
        },
        "code": {
          "coding": [
            {
              "code": "185087000",
              "system": "http://snomed.info/sct",
              "display": "Notifications (procedure)"
            }
          ],
          "text": "Notifications"
        },
        "status": "completed",
        "subject": {
          "reference": "Patient/ff442a16-8262-4191-b63d-4bc265da2466",
          "display": "Ida Brommer"
        },
        "performedDateTime": "2018-10-26"
      }
    },
    {
      "fullUrl": "urn:uuid:634a4942-2329-48c0-a112-2faba46b4485",
      "resource": {
        "resourceType": "Procedure",
        "id": "634a4942-2329-48c0-a112-2faba46b4485",
        "meta": {
          "profile": [
            "http://hl7.org/fhir/uv/ips/StructureDefinition/Procedure-uv-ips"
          ]
        },
        "code": {
          "coding": [
            {
              "code": "310417005",
              "system": "http://snomed.info/sct",
              "display": "Certification procedure (procedure)"
            }
          ],
          "text": "Certification procedure"
        },
        "status": "completed",
        "subject": {
          "reference": "Patient/ff442a16-8262-4191-b63d-4bc265da2466",
          "display": "Ida Brommer"
        },
        "performedDateTime": "2018-10-26"
      }
    },
    {
      "fullUrl": "urn:uuid:9ba7fd14-eefd-41b4-8429-55a917b5253d",
      "resource": {
        "resourceType": "Procedure",
        "id": "9ba7fd14-eefd-41b4-8429-55a917b5253d",
        "meta": {
          "profile": [
            "http://hl7.org/fhir/uv/ips/StructureDefinition/Procedure-uv-ips"
          ]
        },
        "code": {
          "coding": [
            {
              "code": "315639002",
              "system": "http://snomed.info/sct",
              "display": "Initial patient assessment (procedure)"
            }
          ],
          "text": "Initial patient assessment"
        },
        "status": "completed",
        "subject": {
          "reference": "Patient/ff442a16-8262-4191-b63d-4bc265da2466",
          "display": "Ida Brommer"
        },
        "performedDateTime": "2018-10-26"
      }
    },
    {
      "fullUrl": "urn:uuid:3e62e702-e1a8-4743-8846-aaccdb7880d9",
      "resource": {
        "resourceType": "Procedure",
        "id": "3e62e702-e1a8-4743-8846-aaccdb7880d9",
        "meta": {
          "profile": [
            "http://hl7.org/fhir/uv/ips/StructureDefinition/Procedure-uv-ips"
          ]
        },
        "code": {
          "coding": [
            {
              "code": "370789001",
              "system": "http://snomed.info/sct",
              "display": "Development of individualized plan of care (procedure)"
            }
          ],
          "text": "Development of individualized plan of care"
        },
        "status": "completed",
        "subject": {
          "reference": "Patient/ff442a16-8262-4191-b63d-4bc265da2466",
          "display": "Ida Brommer"
        },
        "performedDateTime": "2018-10-26"
      }
    },
    {
      "fullUrl": "urn:uuid:1d4db454-377d-40e1-9f90-de0b327deb0a",
      "resource": {
        "resourceType": "Procedure",
        "id": "1d4db454-377d-40e1-9f90-de0b327deb0a",
        "meta": {
          "profile": [
            "http://hl7.org/fhir/uv/ips/StructureDefinition/Procedure-uv-ips"
          ]
        },
        "code": {
          "coding": [
            {
              "code": "288086009",
              "system": "http://snomed.info/sct",
              "display": "Suture open wound (procedure)"
            }
          ],
          "text": "Suture open wound"
        },
        "reasonCode": [
          {
            "coding": [
              {
                "code": "370247008",
                "system": "http://snomed.info/sct",
                "display": "Facial laceration (disorder)"
              }
            ]
          }
        ],
        "status": "completed",
        "subject": {
          "reference": "Patient/ff442a16-8262-4191-b63d-4bc265da2466",
          "display": "Ida Brommer"
        },
        "performedDateTime": "2016-12-11"
      }
    },
    {
      "fullUrl": "urn:uuid:74bbc414-822a-47f9-a437-12358c2d2f95",
      "resource": {
        "resourceType": "Immunization",
        "id": "74bbc414-822a-47f9-a437-12358c2d2f95",
        "meta": {
          "profile": [
            "http://hl7.org/fhir/uv/ips/StructureDefinition/Immunization-uv-ips"
          ]
        },
        "vaccineCode": {
          "coding": [
            {
              "code": "777725002",
              "system": "http://snomed.info/sct",
              "display": "Vaccine product containing only Clostridium tetani toxoid antigen adsorbed"
            },
            {
              "code": "J07AM51",
              "system": "http://www.whocc.no/atc",
              "display": "Diphtheria-tetanus vaccines, adult type"
            },
            {
              "code": "113",
              "system": "http://hl7.org/fhir/sid/cvx",
              "display": "Td (adult)  5 Lf tetanus toxoid  preservative free  adsorbed"
            }
          ],
          "text": "Clostridium tetani toxoid antigen adsorbed only vaccine product"
        },
        "site": {
          "coding": [
            {
              "code": "73776007",
              "system": "http://snomed.info/sct",
              "display": "Structure of muscle of upper arm"
            }
          ],
          "text": "Structure of muscle of upper arm"
        },
        "route": {
          "coding": [
            {
              "code": "78421000",
              "system": "http://snomed.info/sct",
              "display": "Intramuscular route"
            }
          ],
          "text": "Intramuscular route"
        },
        "status": "completed",
        "patient": {
          "reference": "Patient/ff442a16-8262-4191-b63d-4bc265da2466",
          "display": "Ida Brommer"
        },
        "occurrenceDateTime": "2024-11-29",
        "lotNumber": "MP-PNxkjWa",
        "expirationDate": "2025-07-11"
      }
    },
    {
      "fullUrl": "urn:uuid:83ab8c71-bb9c-44ee-b1f4-5e1ed4380a05",
      "resource": {
        "resourceType": "Immunization",
        "id": "83ab8c71-bb9c-44ee-b1f4-5e1ed4380a05",
        "meta": {
          "profile": [
            "http://hl7.org/fhir/uv/ips/StructureDefinition/Immunization-uv-ips"
          ]
        },
        "vaccineCode": {
          "coding": [
            {
              "code": "1181000221105",
              "system": "http://snomed.info/sct",
              "display": "Vaccine product containing Influenza virus antigen"
            },
            {
              "code": "J07BB02",
              "system": "http://www.whocc.no/atc",
              "display": "Influenza, inactivated, split virus"
            },
            {
              "code": "140",
              "system": "http://hl7.org/fhir/sid/cvx",
              "display": "Influenza  seasonal  injectable  preservative free"
            }
          ],
          "text": "Influenza virus antigen only vaccine product"
        },
        "site": {
          "coding": [
            {
              "code": "73776007",
              "system": "http://snomed.info/sct",
              "display": "Structure of muscle of upper arm"
            }
          ],
          "text": "Structure of muscle of upper arm"
        },
        "route": {
          "coding": [
            {
              "code": "78421000",
              "system": "http://snomed.info/sct",
              "display": "Intramuscular route"
            }
          ],
          "text": "Intramuscular route"
        },
        "status": "completed",
        "patient": {
          "reference": "Patient/ff442a16-8262-4191-b63d-4bc265da2466",
          "display": "Ida Brommer"
        },
        "occurrenceDateTime": "2024-05-03",
        "lotNumber": "LG-6osknlT",
        "expirationDate": "2025-02-07"
      }
    },
    {
      "fullUrl": "urn:uuid:a4a64f2a-3712-491e-8781-f87738402a28",
      "resource": {
        "resourceType": "Immunization",
        "id": "a4a64f2a-3712-491e-8781-f87738402a28",
        "meta": {
          "profile": [
            "http://hl7.org/fhir/uv/ips/StructureDefinition/Immunization-uv-ips"
          ]
        },
        "vaccineCode": {
          "coding": [
            {
              "code": "1119349007",
              "system": "http://snomed.info/sct",
              "display": "Vaccine product containing SARS-CoV-2 mRNA"
            },
            {
              "code": "J07BX03",
              "system": "http://www.whocc.no/atc",
              "display": "COVID-19 mRNA vaccines"
            },
            {
              "code": "207",
              "system": "http://hl7.org/fhir/sid/cvx",
              "display": "COVID-19  mRNA  LNP-S  PF  100 mcg/0.5mL dose or 50 mcg/0.25mL dose"
            }
          ],
          "text": "SARS-CoV-2 mRNA vaccine"
        },
        "site": {
          "coding": [
            {
              "code": "73776007",
              "system": "http://snomed.info/sct",
              "display": "Structure of muscle of upper arm"
            }
          ],
          "text": "Structure of muscle of upper arm"
        },
        "route": {
          "coding": [
            {
              "code": "78421000",
              "system": "http://snomed.info/sct",
              "display": "Intramuscular route"
            }
          ],
          "text": "Intramuscular route"
        },
        "status": "completed",
        "patient": {
          "reference": "Patient/ff442a16-8262-4191-b63d-4bc265da2466",
          "display": "Ida Brommer"
        },
        "occurrenceDateTime": "2021-02-19",
        "lotNumber": "CN-blcKcCcIg",
        "expirationDate": "2022-02-24"
      }
    }
  ],
  "type": "document",
  "timestamp": "2025-06-16T17:28:57Z"
}
