{
  "resourceType": "Bundle",
  "id": "Instance-Bundle-e3b7df9c-ea5f-41bf-9ca1-4eb628ad77ef",
  "meta": {
    "profile": [
      "http://hl7.eu/fhir/eps/StructureDefinition/bundle-eu-eps"
    ]
  },
  "identifier": {
    "assigner": {
      "display": "HL7 Europe"
    },
    "system": "urn:oid:2.16.840.1.113883.2.51.999",
    "value": "601fd40e-8311-474b-87af-f3d56793cdeb"
  },
  "entry": [
    {
      "fullUrl": "urn:uuid:db89deb5-39ba-4e72-94c3-df58933a54fd",
      "resource": {
        "resourceType": "Composition",
        "id": "db89deb5-39ba-4e72-94c3-df58933a54fd",
        "meta": {
          "profile": [
            "http://hl7.eu/fhir/eps/StructureDefinition/composition-eu-eps"
          ]
        },
        "identifier": {
          "assigner": {
            "display": "HL7 Europe"
          },
          "system": "urn:oid:2.16.840.1.113883.2.51.999",
          "value": "70011701-b5de-4049-af57-936b4f7521cc"
        },
        "type": {
          "coding": [
            {
              "system": "http://loinc.org",
              "code": "60591-5",
              "display": "European Patient Summary"
            }
          ],
          "text": "European Patient Summary"
        },
        "author": [
          {
            "reference": "urn:uuid:9b3b8b51-5ca5-4c1d-9914-cf8088696528"
          }
        ],
        "section": [
          {
            "text": {
              "status": "generated",
              "div": "<div xmlns=\"http://www.w3.org/1999/xhtml\"><table class=\"hl7__ips\"><tr><th>Condition</th><th>Onset Date</th><th>Status</th></tr><tr><td>Chronic kidney disease stage 2</td><td><span class=\"nb\">2008-02-26</span></td><td>active</td></tr><tr><td>Microalbuminuria due to type 2 diabetes mellitus</td><td><span class=\"nb\">2008-02-26</span></td><td>active</td></tr><tr><td>Disorder of kidney due to diabetes mellitus</td><td><span class=\"nb\">2002-04-02</span></td><td>active</td></tr><tr><td>Chronic kidney disease stage 1</td><td><span class=\"nb\">2002-04-02</span></td><td>active</td></tr><tr><td>Essential hypertension</td><td><span class=\"nb\">2001-03-27</span></td><td>active</td></tr><tr><td>Ischemic heart disease</td><td><span class=\"nb\">1997-03-04</span></td><td>active</td></tr><tr><td>Hyperlipidemia</td><td><span class=\"nb\">1989-03-14</span></td><td>active</td></tr><tr><td><span class=\"grayedout\">Gingivitis</span></td><td><span class=\"nb\">2025-04-01</span></td><td><span class=\"grayedout\">inactive</span></td></tr><tr><td><span class=\"grayedout\">Gingival disease</span></td><td><span class=\"nb\">2025-03-18</span></td><td><span class=\"grayedout\">inactive</span></td></tr><tr><td><span class=\"grayedout\">Gingivitis</span></td><td><span class=\"nb\">2025-03-04</span></td><td><span class=\"grayedout\">inactive</span></td></tr><tr><td><span class=\"grayedout\">Primary dental caries</span></td><td><span class=\"nb\">2025-02-18</span></td><td><span class=\"grayedout\">inactive</span></td></tr><tr><td><span class=\"grayedout\">Gingivitis</span></td><td><span class=\"nb\">2025-02-04</span></td><td><span class=\"grayedout\">inactive</span></td></tr><tr><td><span class=\"grayedout\">Acute bacterial sinusitis</span></td><td><span class=\"nb\">2025-01-28</span></td><td><span class=\"grayedout\">inactive</span></td></tr><tr><td><span class=\"grayedout\">Gingival disease</span></td><td><span class=\"nb\">2024-09-10</span></td><td><span class=\"grayedout\">inactive</span></td></tr><tr><td><span class=\"grayedout\">Gingivitis</span></td><td><span class=\"nb\">2024-08-20</span></td><td><span class=\"grayedout\">inactive</span></td></tr><tr><td><span class=\"grayedout\">Gingivitis</span></td><td><span class=\"nb\">2023-03-21</span></td><td><span class=\"grayedout\">inactive</span></td></tr><tr><td><span class=\"grayedout\">Acute viral pharyngitis</span></td><td><span class=\"nb\">2023-03-14</span></td><td><span class=\"grayedout\">inactive</span></td></tr><tr><td><span class=\"grayedout\">Gingival disease</span></td><td><span class=\"nb\">2023-03-07</span></td><td><span class=\"grayedout\">inactive</span></td></tr><tr><td><span class=\"grayedout\">Gingivitis</span></td><td><span class=\"nb\">2023-02-07</span></td><td><span class=\"grayedout\">inactive</span></td></tr><tr><td><span class=\"grayedout\">Primary dental caries</span></td><td><span class=\"nb\">2022-08-23</span></td><td><span class=\"grayedout\">inactive</span></td></tr><tr><td><span class=\"grayedout\">Acute infective cystitis</span></td><td><span class=\"nb\">2022-07-19</span></td><td><span class=\"grayedout\">inactive</span></td></tr><tr><td><span class=\"grayedout\">Gingivitis</span></td><td><span class=\"nb\">2021-08-03</span></td><td><span class=\"grayedout\">inactive</span></td></tr><tr><td><span class=\"grayedout\">Gingivitis</span></td><td><span class=\"nb\">2019-08-13</span></td><td><span class=\"grayedout\">inactive</span></td></tr><tr><td><span class=\"grayedout\">Acute viral pharyngitis</span></td><td><span class=\"nb\">2019-08-05</span></td><td><span class=\"grayedout\">inactive</span></td></tr><tr><td><span class=\"grayedout\">Gingivitis</span></td><td><span class=\"nb\">2018-02-06</span></td><td><span class=\"grayedout\">inactive</span></td></tr></table></div>"
            },
            "entry": [
              {
                "reference": "urn:uuid:08240ed3-8c6e-484e-a62d-6b8906c5673b"
              },
              {
                "reference": "urn:uuid:73442ba1-9530-4b17-9569-6dc82c18bdb9"
              },
              {
                "reference": "urn:uuid:a1cca34e-31e0-4170-87c7-7aa5ed74831f"
              },
              {
                "reference": "urn:uuid:be421b03-f416-477b-84fc-4a9bf8ec0da0"
              },
              {
                "reference": "urn:uuid:382d33ed-e3f2-444e-9e25-51dc11aa572e"
              },
              {
                "reference": "urn:uuid:2eddf563-c556-4130-9a63-dc5863e3eccc"
              },
              {
                "reference": "urn:uuid:5ae1b17b-ddb1-410c-b3f6-481ae2c27d8a"
              },
              {
                "reference": "urn:uuid:1bd36619-5f2a-40e3-ae24-d767a7ca6a51"
              },
              {
                "reference": "urn:uuid:6d1f9185-4205-441d-ac7b-4a2f1b6b7701"
              },
              {
                "reference": "urn:uuid:096346bc-436a-4cde-82e8-f8c3dd7f6899"
              },
              {
                "reference": "urn:uuid:3bf3acc7-910b-4e40-8f12-0052e5ef123e"
              },
              {
                "reference": "urn:uuid:1a0bbd6f-5bdf-4e54-a416-568ff4b4d958"
              },
              {
                "reference": "urn:uuid:214f8a39-3ed7-482a-8721-5c37df53d777"
              },
              {
                "reference": "urn:uuid:a01d9303-265e-4067-90ae-4d47dde644ef"
              },
              {
                "reference": "urn:uuid:6c053b72-3e8c-47f1-8fae-33df52c7b66a"
              },
              {
                "reference": "urn:uuid:d25671b1-23ea-4d95-8b56-16ff11b96c20"
              },
              {
                "reference": "urn:uuid:9aa2cb66-cf27-4aeb-a03a-7ea0ba4dcdcb"
              },
              {
                "reference": "urn:uuid:efa8d31d-d678-46e4-865d-4f9569bf9d4b"
              },
              {
                "reference": "urn:uuid:f25fa4e7-880c-4d15-a333-32e92a61d455"
              },
              {
                "reference": "urn:uuid:a3126840-78c2-4c35-8b2f-158292c1b519"
              },
              {
                "reference": "urn:uuid:e3062f57-ce5e-4f3c-9779-369388685f7a"
              },
              {
                "reference": "urn:uuid:05ab674c-49ab-4fdb-8adf-0f8650a6a7cb"
              },
              {
                "reference": "urn:uuid:b025d6d3-2025-446f-a561-3d9f37d51709"
              },
              {
                "reference": "urn:uuid:f5deb05d-6cb2-4772-a885-b1edfe815264"
              },
              {
                "reference": "urn:uuid:f8924c93-7ea0-4028-97f8-55c32720eeb0"
              }
            ],
            "code": {
              "coding": [
                {
                  "system": "http://loinc.org",
                  "code": "11450-4",
                  "display": "Problem list - Reported"
                }
              ]
            },
            "title": "Problem list"
          },
          {
            "text": {
              "status": "generated",
              "div": "<div xmlns=\"http://www.w3.org/1999/xhtml\"><table class=\"hl7__ips\"><tr><th>Medication</th><th>Since</th><th>Form</th><th>Dosage</th><th>Reason</th></tr><tr><td>Hydrochlorothiazide 25 mg oral tablet</td><td><span class=\"nb\">2025-04-01</span></td><td>Oral tablet</td><td>1 tablet (25 mg) by mouth once daily</td><td>Essential hypertension (disorder)</td></tr><tr><td>Simvastatin 10 mg oral tablet</td><td><span class=\"nb\">2024-06-09</span></td><td>Oral tablet</td><td>1 tablet (10 mg) by mouth once daily</td><td>Hyperlipidemia (disorder)</td></tr><tr><td>Clopidogrel (as clopidogrel bisulfate) 75 mg oral tablet</td><td><span class=\"nb\">1997-03-11</span></td><td>Oral tablet</td><td>1 tablet (75 mg) by mouth once daily</td><td></td></tr><tr><td>Simvastatin 20 mg oral tablet</td><td><span class=\"nb\">1997-03-11</span></td><td>Oral tablet</td><td>1 tablet (20 mg) by mouth once daily</td><td></td></tr><tr><td>Nitroglycerin 400 microgram/actuation sublingual spray</td><td><span class=\"nb\">1997-03-11</span></td><td>Sublingual spray</td><td>400 micrograms (1 spray) under the tongue as needed for chest pain, may repeat every 5 minutes as needed, up to 3 sprays in 15 minutes</td><td></td></tr><tr><td>Metoprolol tartrate (as metoprolol succinate) 100 mg prolonged-release oral tablet</td><td><span class=\"nb\">1997-03-11</span></td><td>Prolonged-release oral tablet</td><td>1 tablet (100 mg) once daily</td><td></td></tr></table></div>"
            },
            "entry": [
              {
                "reference": "urn:uuid:0164ce25-571b-4144-b0cc-d800eaa03dd1"
              },
              {
                "reference": "urn:uuid:0469fdf9-2a72-4743-91e5-5b60836109a1"
              },
              {
                "reference": "urn:uuid:1670ac59-d7b5-4923-9215-19ec9e453803"
              },
              {
                "reference": "urn:uuid:b5e0eda2-d701-4b83-809d-ef2cf2a6a2cd"
              },
              {
                "reference": "urn:uuid:42e8f806-b90f-4837-8796-c475b029a8f3"
              },
              {
                "reference": "urn:uuid:45410943-04c3-47a3-b3bd-912ca4d1bf3f"
              }
            ],
            "code": {
              "coding": [
                {
                  "system": "http://loinc.org",
                  "code": "10160-0",
                  "display": "History of Medication use Narrative"
                }
              ]
            },
            "title": "Medication list"
          },
          {
            "text": {
              "status": "generated",
              "div": "<div xmlns=\"http://www.w3.org/1999/xhtml\"><table class=\"hl7__ips\"><tr><td>No known allergies or intolerances</td></tr></table></div>"
            },
            "entry": [
              {
                "reference": "urn:uuid:34d4b1e9-7de2-45be-80c7-b0573d588a36"
              }
            ],
            "code": {
              "coding": [
                {
                  "system": "http://loinc.org",
                  "code": "48765-2",
                  "display": "Allergies and adverse reactions Document"
                }
              ]
            },
            "title": "Allergies and Intolerances"
          },
          {
            "text": {
              "status": "generated",
              "div": "<div xmlns=\"http://www.w3.org/1999/xhtml\"><table class=\"hl7__ips\"><tr><th>Procedure</th><th>Date</th><th>Reason</th></tr><tr><td>Patient referral for dental care</td><td><span class=\"nb\">2025-03-04</span></td><td>Gingivitis (disorder)</td></tr><tr><td>Depression screening</td><td><span class=\"nb\">2025-03-04</span></td><td>-</td></tr><tr><td>Assessment of health and social care needs</td><td><span class=\"nb\">2025-03-04</span></td><td>-</td></tr><tr><td>Assessment of anxiety</td><td><span class=\"nb\">2025-02-04</span></td><td>-</td></tr><tr><td>Screening for drug abuse</td><td><span class=\"nb\">2025-02-04</span></td><td>-</td></tr><tr><td>Assessment using Morse Fall Scale</td><td><span class=\"nb\">2025-02-04</span></td><td>-</td></tr><tr><td>Assessment of substance use</td><td><span class=\"nb\">2025-02-04</span></td><td>-</td></tr><tr><td>Screening for domestic abuse</td><td><span class=\"nb\">2025-01-14</span></td><td>-</td></tr><tr><td>Medication reconciliation</td><td><span class=\"nb\">2025-01-07</span></td><td>-</td></tr><tr><td>Assessment using AUDIT-C (Alcohol Use Disorders Identification Test - Consumption)</td><td><span class=\"nb\">2023-03-21</span></td><td>-</td></tr><tr><td>Referral to home health care service</td><td><span class=\"nb\">2019-04-23</span></td><td>-</td></tr></table></div>"
            },
            "entry": [
              {
                "reference": "urn:uuid:0edb2520-f2b9-4c29-8eee-752608635bbe"
              },
              {
                "reference": "urn:uuid:06b299fc-8d82-4eb0-9af4-850337a6b3fb"
              },
              {
                "reference": "urn:uuid:01f5887a-ba8e-4d87-9eb2-dd01e5695e9e"
              },
              {
                "reference": "urn:uuid:a3c44677-8328-4268-9e55-42af649fa95e"
              },
              {
                "reference": "urn:uuid:ff6bf28f-e183-4d83-acb2-7d0ab676ebe0"
              },
              {
                "reference": "urn:uuid:e2c228a5-7deb-4e3f-a151-7433b4f3e439"
              },
              {
                "reference": "urn:uuid:40a55979-b9df-4f66-b72c-d48eadd3be0c"
              },
              {
                "reference": "urn:uuid:e2533551-fafc-4f0e-8788-b3689121bf38"
              },
              {
                "reference": "urn:uuid:c9079c48-2afc-47ec-9308-2cd658cf5c99"
              },
              {
                "reference": "urn:uuid:d55ead9c-ecea-4586-904d-96a27fead4da"
              },
              {
                "reference": "urn:uuid:39f4b1db-fc9f-4450-b60e-36ef1bb172d0"
              }
            ],
            "code": {
              "coding": [
                {
                  "system": "http://loinc.org",
                  "code": "47519-4",
                  "display": "History of Procedures Document"
                }
              ]
            },
            "title": "Procedure History list"
          },
          {
            "text": {
              "status": "generated",
              "div": "<div xmlns=\"http://www.w3.org/1999/xhtml\"><table class=\"hl7__ips\"><tr><th>Vaccine</th><th>Date</th></tr><tr><td>Influenza virus antigen only vaccine product</td><td><span class=\"nb\">2024-12-03</span></td></tr><tr><td>SARS-CoV-2 mRNA vaccine</td><td><span class=\"nb\">2021-03-02</span></td></tr><tr><td>Clostridium tetani toxoid antigen adsorbed only vaccine product</td><td><span class=\"nb\">2018-07-17</span></td></tr></table></div>"
            },
            "entry": [
              {
                "reference": "urn:uuid:855f78eb-9bbf-41e3-a779-d8a51d2e1c44"
              },
              {
                "reference": "urn:uuid:d5d4740b-8e2b-4d36-806b-d6ae594c44c7"
              },
              {
                "reference": "urn:uuid:d2aa155b-30cf-4262-bda3-276e0e2a80d3"
              }
            ],
            "code": {
              "coding": [
                {
                  "system": "http://loinc.org",
                  "code": "11369-6",
                  "display": "History of Immunization Narrative"
                }
              ]
            },
            "title": "Immunizations list"
          }
        ],
        "title": "European Patient Summary",
        "status": "final",
        "subject": {
          "reference": "urn:uuid:57c1bb7d-a6b5-4bee-92a4-933aed7544bc"
        },
        "custodian": {
          "reference": "urn:uuid:cbb105f5-4008-4ee8-ab15-bc5825821be5"
        },
        "date": "2025-06-17T11:26:49Z",
        "confidentiality": "N"
      }
    },
    {
      "fullUrl": "urn:uuid:57c1bb7d-a6b5-4bee-92a4-933aed7544bc",
      "resource": {
        "resourceType": "Patient",
        "id": "57c1bb7d-a6b5-4bee-92a4-933aed7544bc",
        "meta": {
          "profile": [
            "http://hl7.eu/fhir/eps/StructureDefinition/patient-eu-eps"
          ]
        },
        "identifier": [
          {
            "type": {
              "coding": [
                {
                  "code": "NI",
                  "system": "http://terminology.hl7.org/CodeSystem/v2-0203"
                }
              ]
            },
            "system": "http://ec.europa.eu/identifier/eci",
            "value": "9943-935126-5"
          },
          {
            "type": {
              "coding": [
                {
                  "code": "MR",
                  "system": "http://terminology.hl7.org/CodeSystem/v2-0203"
                }
              ]
            },
            "system": "http://local.setting.eu/identifier",
            "value": "272aefe4-efd6-46df-1410-ac58a638efa1"
          }
        ],
        "name": [
          {
            "given": [
              "Bent"
            ],
            "family": "Bertelsen",
            "text": "Bent Bertelsen"
          }
        ],
        "address": [
          {
            "line": [
              "Bygget 41"
            ],
            "use": "home",
            "type": "physical",
            "city": "Lagan",
            "postalCode": "340 14",
            "country": "Sweden"
          }
        ],
        "telecom": [
          {
            "system": "phone",
            "value": "+46 0372-4163087"
          }
        ],
        "gender": "male",
        "birthDate": "1942-09-12"
      }
    },
    {
      "fullUrl": "urn:uuid:9b3b8b51-5ca5-4c1d-9914-cf8088696528",
      "resource": {
        "resourceType": "PractitionerRole",
        "id": "9b3b8b51-5ca5-4c1d-9914-cf8088696528",
        "meta": {
          "profile": [
            "http://hl7.eu/fhir/base/StructureDefinition/practitionerRole-eu"
          ]
        },
        "practitioner": {
          "reference": "urn:uuid:7b420b1d-abf9-49ad-b9b0-61da6310f9a8"
        },
        "organization": {
          "reference": "urn:uuid:cbb105f5-4008-4ee8-ab15-bc5825821be5"
        }
      }
    },
    {
      "fullUrl": "urn:uuid:7b420b1d-abf9-49ad-b9b0-61da6310f9a8",
      "resource": {
        "resourceType": "Practitioner",
        "id": "7b420b1d-abf9-49ad-b9b0-61da6310f9a8",
        "meta": {
          "profile": [
            "http://hl7.eu/fhir/base/StructureDefinition/practitioner-eu"
          ]
        },
        "name": [
          {
            "prefix": [
              "Dr."
            ],
            "given": [
              "Hel"
            ],
            "family": "Ping"
          }
        ]
      }
    },
    {
      "fullUrl": "urn:uuid:08240ed3-8c6e-484e-a62d-6b8906c5673b",
      "resource": {
        "resourceType": "Condition",
        "id": "08240ed3-8c6e-484e-a62d-6b8906c5673b",
        "meta": {
          "profile": [
            "http://hl7.org/fhir/uv/ips/StructureDefinition/Condition-uv-ips"
          ]
        },
        "category": [
          {
            "coding": [
              {
                "code": "problem-list-item",
                "system": "http://terminology.hl7.org/CodeSystem/condition-category",
                "display": "Problem List Item"
              }
            ]
          }
        ],
        "code": {
          "coding": [
            {
              "code": "431856006",
              "system": "http://snomed.info/sct",
              "display": "Chronic kidney disease stage 2 (disorder)"
            }
          ],
          "text": "Chronic kidney disease stage 2"
        },
        "onsetDateTime": "2008-02-26",
        "clinicalStatus": {
          "coding": [
            {
              "code": "active",
              "system": "http://terminology.hl7.org/CodeSystem/condition-clinical"
            }
          ]
        },
        "subject": {
          "reference": "Patient/57c1bb7d-a6b5-4bee-92a4-933aed7544bc",
          "display": "Bent Bertelsen"
        },
        "asserter": {
          "reference": "Practitioner/7b420b1d-abf9-49ad-b9b0-61da6310f9a8",
          "display": "Dr. Hel Ping"
        }
      }
    },
    {
      "fullUrl": "urn:uuid:73442ba1-9530-4b17-9569-6dc82c18bdb9",
      "resource": {
        "resourceType": "Condition",
        "id": "73442ba1-9530-4b17-9569-6dc82c18bdb9",
        "meta": {
          "profile": [
            "http://hl7.org/fhir/uv/ips/StructureDefinition/Condition-uv-ips"
          ]
        },
        "category": [
          {
            "coding": [
              {
                "code": "problem-list-item",
                "system": "http://terminology.hl7.org/CodeSystem/condition-category",
                "display": "Problem List Item"
              }
            ]
          }
        ],
        "code": {
          "coding": [
            {
              "code": "90781000119102",
              "system": "http://snomed.info/sct",
              "display": "Microalbuminuria due to type 2 diabetes mellitus (disorder)"
            }
          ],
          "text": "Microalbuminuria due to type 2 diabetes mellitus"
        },
        "onsetDateTime": "2008-02-26",
        "clinicalStatus": {
          "coding": [
            {
              "code": "active",
              "system": "http://terminology.hl7.org/CodeSystem/condition-clinical"
            }
          ]
        },
        "subject": {
          "reference": "Patient/57c1bb7d-a6b5-4bee-92a4-933aed7544bc",
          "display": "Bent Bertelsen"
        },
        "asserter": {
          "reference": "Practitioner/7b420b1d-abf9-49ad-b9b0-61da6310f9a8",
          "display": "Dr. Hel Ping"
        }
      }
    },
    {
      "fullUrl": "urn:uuid:a1cca34e-31e0-4170-87c7-7aa5ed74831f",
      "resource": {
        "resourceType": "Condition",
        "id": "a1cca34e-31e0-4170-87c7-7aa5ed74831f",
        "meta": {
          "profile": [
            "http://hl7.org/fhir/uv/ips/StructureDefinition/Condition-uv-ips"
          ]
        },
        "category": [
          {
            "coding": [
              {
                "code": "problem-list-item",
                "system": "http://terminology.hl7.org/CodeSystem/condition-category",
                "display": "Problem List Item"
              }
            ]
          }
        ],
        "code": {
          "coding": [
            {
              "code": "127013003",
              "system": "http://snomed.info/sct",
              "display": "Disorder of kidney due to diabetes mellitus (disorder)"
            }
          ],
          "text": "Disorder of kidney due to diabetes mellitus"
        },
        "onsetDateTime": "2002-04-02",
        "clinicalStatus": {
          "coding": [
            {
              "code": "active",
              "system": "http://terminology.hl7.org/CodeSystem/condition-clinical"
            }
          ]
        },
        "subject": {
          "reference": "Patient/57c1bb7d-a6b5-4bee-92a4-933aed7544bc",
          "display": "Bent Bertelsen"
        },
        "asserter": {
          "reference": "Practitioner/7b420b1d-abf9-49ad-b9b0-61da6310f9a8",
          "display": "Dr. Hel Ping"
        }
      }
    },
    {
      "fullUrl": "urn:uuid:be421b03-f416-477b-84fc-4a9bf8ec0da0",
      "resource": {
        "resourceType": "Condition",
        "id": "be421b03-f416-477b-84fc-4a9bf8ec0da0",
        "meta": {
          "profile": [
            "http://hl7.org/fhir/uv/ips/StructureDefinition/Condition-uv-ips"
          ]
        },
        "category": [
          {
            "coding": [
              {
                "code": "problem-list-item",
                "system": "http://terminology.hl7.org/CodeSystem/condition-category",
                "display": "Problem List Item"
              }
            ]
          }
        ],
        "code": {
          "coding": [
            {
              "code": "431855005",
              "system": "http://snomed.info/sct",
              "display": "Chronic kidney disease stage 1 (disorder)"
            }
          ],
          "text": "Chronic kidney disease stage 1"
        },
        "onsetDateTime": "2002-04-02",
        "clinicalStatus": {
          "coding": [
            {
              "code": "active",
              "system": "http://terminology.hl7.org/CodeSystem/condition-clinical"
            }
          ]
        },
        "subject": {
          "reference": "Patient/57c1bb7d-a6b5-4bee-92a4-933aed7544bc",
          "display": "Bent Bertelsen"
        },
        "asserter": {
          "reference": "Practitioner/7b420b1d-abf9-49ad-b9b0-61da6310f9a8",
          "display": "Dr. Hel Ping"
        }
      }
    },
    {
      "fullUrl": "urn:uuid:382d33ed-e3f2-444e-9e25-51dc11aa572e",
      "resource": {
        "resourceType": "Condition",
        "id": "382d33ed-e3f2-444e-9e25-51dc11aa572e",
        "meta": {
          "profile": [
            "http://hl7.org/fhir/uv/ips/StructureDefinition/Condition-uv-ips"
          ]
        },
        "category": [
          {
            "coding": [
              {
                "code": "problem-list-item",
                "system": "http://terminology.hl7.org/CodeSystem/condition-category",
                "display": "Problem List Item"
              }
            ]
          }
        ],
        "code": {
          "coding": [
            {
              "code": "59621000",
              "system": "http://snomed.info/sct",
              "display": "Essential hypertension (disorder)"
            }
          ],
          "text": "Essential hypertension"
        },
        "onsetDateTime": "2001-03-27",
        "clinicalStatus": {
          "coding": [
            {
              "code": "active",
              "system": "http://terminology.hl7.org/CodeSystem/condition-clinical"
            }
          ]
        },
        "subject": {
          "reference": "Patient/57c1bb7d-a6b5-4bee-92a4-933aed7544bc",
          "display": "Bent Bertelsen"
        },
        "asserter": {
          "reference": "Practitioner/7b420b1d-abf9-49ad-b9b0-61da6310f9a8",
          "display": "Dr. Hel Ping"
        }
      }
    },
    {
      "fullUrl": "urn:uuid:2eddf563-c556-4130-9a63-dc5863e3eccc",
      "resource": {
        "resourceType": "Condition",
        "id": "2eddf563-c556-4130-9a63-dc5863e3eccc",
        "meta": {
          "profile": [
            "http://hl7.org/fhir/uv/ips/StructureDefinition/Condition-uv-ips"
          ]
        },
        "category": [
          {
            "coding": [
              {
                "code": "problem-list-item",
                "system": "http://terminology.hl7.org/CodeSystem/condition-category",
                "display": "Problem List Item"
              }
            ]
          }
        ],
        "code": {
          "coding": [
            {
              "code": "414545008",
              "system": "http://snomed.info/sct",
              "display": "Ischemic heart disease (disorder)"
            }
          ],
          "text": "Ischemic heart disease"
        },
        "onsetDateTime": "1997-03-04",
        "clinicalStatus": {
          "coding": [
            {
              "code": "active",
              "system": "http://terminology.hl7.org/CodeSystem/condition-clinical"
            }
          ]
        },
        "subject": {
          "reference": "Patient/57c1bb7d-a6b5-4bee-92a4-933aed7544bc",
          "display": "Bent Bertelsen"
        },
        "asserter": {
          "reference": "Practitioner/7b420b1d-abf9-49ad-b9b0-61da6310f9a8",
          "display": "Dr. Hel Ping"
        }
      }
    },
    {
      "fullUrl": "urn:uuid:5ae1b17b-ddb1-410c-b3f6-481ae2c27d8a",
      "resource": {
        "resourceType": "Condition",
        "id": "5ae1b17b-ddb1-410c-b3f6-481ae2c27d8a",
        "meta": {
          "profile": [
            "http://hl7.org/fhir/uv/ips/StructureDefinition/Condition-uv-ips"
          ]
        },
        "category": [
          {
            "coding": [
              {
                "code": "problem-list-item",
                "system": "http://terminology.hl7.org/CodeSystem/condition-category",
                "display": "Problem List Item"
              }
            ]
          }
        ],
        "code": {
          "coding": [
            {
              "code": "55822004",
              "system": "http://snomed.info/sct",
              "display": "Hyperlipidemia (disorder)"
            }
          ],
          "text": "Hyperlipidemia"
        },
        "onsetDateTime": "1989-03-14",
        "clinicalStatus": {
          "coding": [
            {
              "code": "active",
              "system": "http://terminology.hl7.org/CodeSystem/condition-clinical"
            }
          ]
        },
        "subject": {
          "reference": "Patient/57c1bb7d-a6b5-4bee-92a4-933aed7544bc",
          "display": "Bent Bertelsen"
        },
        "asserter": {
          "reference": "Practitioner/7b420b1d-abf9-49ad-b9b0-61da6310f9a8",
          "display": "Dr. Hel Ping"
        }
      }
    },
    {
      "fullUrl": "urn:uuid:1bd36619-5f2a-40e3-ae24-d767a7ca6a51",
      "resource": {
        "resourceType": "Condition",
        "id": "1bd36619-5f2a-40e3-ae24-d767a7ca6a51",
        "meta": {
          "profile": [
            "http://hl7.org/fhir/uv/ips/StructureDefinition/Condition-uv-ips"
          ]
        },
        "category": [
          {
            "coding": [
              {
                "code": "problem-list-item",
                "system": "http://terminology.hl7.org/CodeSystem/condition-category",
                "display": "Problem List Item"
              }
            ]
          }
        ],
        "code": {
          "coding": [
            {
              "code": "66383009",
              "system": "http://snomed.info/sct",
              "display": "Gingivitis (disorder)"
            }
          ],
          "text": "Gingivitis"
        },
        "onsetDateTime": "2025-04-01",
        "clinicalStatus": {
          "coding": [
            {
              "code": "inactive",
              "system": "http://terminology.hl7.org/CodeSystem/condition-clinical"
            }
          ]
        },
        "subject": {
          "reference": "Patient/57c1bb7d-a6b5-4bee-92a4-933aed7544bc",
          "display": "Bent Bertelsen"
        },
        "asserter": {
          "reference": "Practitioner/7b420b1d-abf9-49ad-b9b0-61da6310f9a8",
          "display": "Dr. Hel Ping"
        }
      }
    },
    {
      "fullUrl": "urn:uuid:6d1f9185-4205-441d-ac7b-4a2f1b6b7701",
      "resource": {
        "resourceType": "Condition",
        "id": "6d1f9185-4205-441d-ac7b-4a2f1b6b7701",
        "meta": {
          "profile": [
            "http://hl7.org/fhir/uv/ips/StructureDefinition/Condition-uv-ips"
          ]
        },
        "category": [
          {
            "coding": [
              {
                "code": "problem-list-item",
                "system": "http://terminology.hl7.org/CodeSystem/condition-category",
                "display": "Problem List Item"
              }
            ]
          }
        ],
        "code": {
          "coding": [
            {
              "code": "18718003",
              "system": "http://snomed.info/sct",
              "display": "Gingival disease (disorder)"
            }
          ],
          "text": "Gingival disease"
        },
        "onsetDateTime": "2025-03-18",
        "clinicalStatus": {
          "coding": [
            {
              "code": "inactive",
              "system": "http://terminology.hl7.org/CodeSystem/condition-clinical"
            }
          ]
        },
        "subject": {
          "reference": "Patient/57c1bb7d-a6b5-4bee-92a4-933aed7544bc",
          "display": "Bent Bertelsen"
        },
        "asserter": {
          "reference": "Practitioner/7b420b1d-abf9-49ad-b9b0-61da6310f9a8",
          "display": "Dr. Hel Ping"
        }
      }
    },
    {
      "fullUrl": "urn:uuid:096346bc-436a-4cde-82e8-f8c3dd7f6899",
      "resource": {
        "resourceType": "Condition",
        "id": "096346bc-436a-4cde-82e8-f8c3dd7f6899",
        "meta": {
          "profile": [
            "http://hl7.org/fhir/uv/ips/StructureDefinition/Condition-uv-ips"
          ]
        },
        "category": [
          {
            "coding": [
              {
                "code": "problem-list-item",
                "system": "http://terminology.hl7.org/CodeSystem/condition-category",
                "display": "Problem List Item"
              }
            ]
          }
        ],
        "code": {
          "coding": [
            {
              "code": "66383009",
              "system": "http://snomed.info/sct",
              "display": "Gingivitis (disorder)"
            }
          ],
          "text": "Gingivitis"
        },
        "onsetDateTime": "2025-03-04",
        "clinicalStatus": {
          "coding": [
            {
              "code": "inactive",
              "system": "http://terminology.hl7.org/CodeSystem/condition-clinical"
            }
          ]
        },
        "subject": {
          "reference": "Patient/57c1bb7d-a6b5-4bee-92a4-933aed7544bc",
          "display": "Bent Bertelsen"
        },
        "asserter": {
          "reference": "Practitioner/7b420b1d-abf9-49ad-b9b0-61da6310f9a8",
          "display": "Dr. Hel Ping"
        }
      }
    },
    {
      "fullUrl": "urn:uuid:3bf3acc7-910b-4e40-8f12-0052e5ef123e",
      "resource": {
        "resourceType": "Condition",
        "id": "3bf3acc7-910b-4e40-8f12-0052e5ef123e",
        "meta": {
          "profile": [
            "http://hl7.org/fhir/uv/ips/StructureDefinition/Condition-uv-ips"
          ]
        },
        "category": [
          {
            "coding": [
              {
                "code": "problem-list-item",
                "system": "http://terminology.hl7.org/CodeSystem/condition-category",
                "display": "Problem List Item"
              }
            ]
          }
        ],
        "code": {
          "coding": [
            {
              "code": "109570002",
              "system": "http://snomed.info/sct",
              "display": "Primary dental caries (disorder)"
            }
          ],
          "text": "Primary dental caries"
        },
        "onsetDateTime": "2025-02-18",
        "clinicalStatus": {
          "coding": [
            {
              "code": "inactive",
              "system": "http://terminology.hl7.org/CodeSystem/condition-clinical"
            }
          ]
        },
        "subject": {
          "reference": "Patient/57c1bb7d-a6b5-4bee-92a4-933aed7544bc",
          "display": "Bent Bertelsen"
        },
        "asserter": {
          "reference": "Practitioner/7b420b1d-abf9-49ad-b9b0-61da6310f9a8",
          "display": "Dr. Hel Ping"
        }
      }
    },
    {
      "fullUrl": "urn:uuid:1a0bbd6f-5bdf-4e54-a416-568ff4b4d958",
      "resource": {
        "resourceType": "Condition",
        "id": "1a0bbd6f-5bdf-4e54-a416-568ff4b4d958",
        "meta": {
          "profile": [
            "http://hl7.org/fhir/uv/ips/StructureDefinition/Condition-uv-ips"
          ]
        },
        "category": [
          {
            "coding": [
              {
                "code": "problem-list-item",
                "system": "http://terminology.hl7.org/CodeSystem/condition-category",
                "display": "Problem List Item"
              }
            ]
          }
        ],
        "code": {
          "coding": [
            {
              "code": "66383009",
              "system": "http://snomed.info/sct",
              "display": "Gingivitis (disorder)"
            }
          ],
          "text": "Gingivitis"
        },
        "onsetDateTime": "2025-02-04",
        "clinicalStatus": {
          "coding": [
            {
              "code": "inactive",
              "system": "http://terminology.hl7.org/CodeSystem/condition-clinical"
            }
          ]
        },
        "subject": {
          "reference": "Patient/57c1bb7d-a6b5-4bee-92a4-933aed7544bc",
          "display": "Bent Bertelsen"
        },
        "asserter": {
          "reference": "Practitioner/7b420b1d-abf9-49ad-b9b0-61da6310f9a8",
          "display": "Dr. Hel Ping"
        }
      }
    },
    {
      "fullUrl": "urn:uuid:214f8a39-3ed7-482a-8721-5c37df53d777",
      "resource": {
        "resourceType": "Condition",
        "id": "214f8a39-3ed7-482a-8721-5c37df53d777",
        "meta": {
          "profile": [
            "http://hl7.org/fhir/uv/ips/StructureDefinition/Condition-uv-ips"
          ]
        },
        "category": [
          {
            "coding": [
              {
                "code": "problem-list-item",
                "system": "http://terminology.hl7.org/CodeSystem/condition-category",
                "display": "Problem List Item"
              }
            ]
          }
        ],
        "code": {
          "coding": [
            {
              "code": "75498004",
              "system": "http://snomed.info/sct",
              "display": "Acute bacterial sinusitis (disorder)"
            }
          ],
          "text": "Acute bacterial sinusitis"
        },
        "onsetDateTime": "2025-01-28",
        "clinicalStatus": {
          "coding": [
            {
              "code": "inactive",
              "system": "http://terminology.hl7.org/CodeSystem/condition-clinical"
            }
          ]
        },
        "subject": {
          "reference": "Patient/57c1bb7d-a6b5-4bee-92a4-933aed7544bc",
          "display": "Bent Bertelsen"
        },
        "asserter": {
          "reference": "Practitioner/7b420b1d-abf9-49ad-b9b0-61da6310f9a8",
          "display": "Dr. Hel Ping"
        }
      }
    },
    {
      "fullUrl": "urn:uuid:a01d9303-265e-4067-90ae-4d47dde644ef",
      "resource": {
        "resourceType": "Condition",
        "id": "a01d9303-265e-4067-90ae-4d47dde644ef",
        "meta": {
          "profile": [
            "http://hl7.org/fhir/uv/ips/StructureDefinition/Condition-uv-ips"
          ]
        },
        "category": [
          {
            "coding": [
              {
                "code": "problem-list-item",
                "system": "http://terminology.hl7.org/CodeSystem/condition-category",
                "display": "Problem List Item"
              }
            ]
          }
        ],
        "code": {
          "coding": [
            {
              "code": "18718003",
              "system": "http://snomed.info/sct",
              "display": "Gingival disease (disorder)"
            }
          ],
          "text": "Gingival disease"
        },
        "onsetDateTime": "2024-09-10",
        "clinicalStatus": {
          "coding": [
            {
              "code": "inactive",
              "system": "http://terminology.hl7.org/CodeSystem/condition-clinical"
            }
          ]
        },
        "subject": {
          "reference": "Patient/57c1bb7d-a6b5-4bee-92a4-933aed7544bc",
          "display": "Bent Bertelsen"
        },
        "asserter": {
          "reference": "Practitioner/7b420b1d-abf9-49ad-b9b0-61da6310f9a8",
          "display": "Dr. Hel Ping"
        }
      }
    },
    {
      "fullUrl": "urn:uuid:6c053b72-3e8c-47f1-8fae-33df52c7b66a",
      "resource": {
        "resourceType": "Condition",
        "id": "6c053b72-3e8c-47f1-8fae-33df52c7b66a",
        "meta": {
          "profile": [
            "http://hl7.org/fhir/uv/ips/StructureDefinition/Condition-uv-ips"
          ]
        },
        "category": [
          {
            "coding": [
              {
                "code": "problem-list-item",
                "system": "http://terminology.hl7.org/CodeSystem/condition-category",
                "display": "Problem List Item"
              }
            ]
          }
        ],
        "code": {
          "coding": [
            {
              "code": "66383009",
              "system": "http://snomed.info/sct",
              "display": "Gingivitis (disorder)"
            }
          ],
          "text": "Gingivitis"
        },
        "onsetDateTime": "2024-08-20",
        "clinicalStatus": {
          "coding": [
            {
              "code": "inactive",
              "system": "http://terminology.hl7.org/CodeSystem/condition-clinical"
            }
          ]
        },
        "subject": {
          "reference": "Patient/57c1bb7d-a6b5-4bee-92a4-933aed7544bc",
          "display": "Bent Bertelsen"
        },
        "asserter": {
          "reference": "Practitioner/7b420b1d-abf9-49ad-b9b0-61da6310f9a8",
          "display": "Dr. Hel Ping"
        }
      }
    },
    {
      "fullUrl": "urn:uuid:d25671b1-23ea-4d95-8b56-16ff11b96c20",
      "resource": {
        "resourceType": "Condition",
        "id": "d25671b1-23ea-4d95-8b56-16ff11b96c20",
        "meta": {
          "profile": [
            "http://hl7.org/fhir/uv/ips/StructureDefinition/Condition-uv-ips"
          ]
        },
        "category": [
          {
            "coding": [
              {
                "code": "problem-list-item",
                "system": "http://terminology.hl7.org/CodeSystem/condition-category",
                "display": "Problem List Item"
              }
            ]
          }
        ],
        "code": {
          "coding": [
            {
              "code": "66383009",
              "system": "http://snomed.info/sct",
              "display": "Gingivitis (disorder)"
            }
          ],
          "text": "Gingivitis"
        },
        "onsetDateTime": "2023-03-21",
        "clinicalStatus": {
          "coding": [
            {
              "code": "inactive",
              "system": "http://terminology.hl7.org/CodeSystem/condition-clinical"
            }
          ]
        },
        "subject": {
          "reference": "Patient/57c1bb7d-a6b5-4bee-92a4-933aed7544bc",
          "display": "Bent Bertelsen"
        },
        "asserter": {
          "reference": "Practitioner/7b420b1d-abf9-49ad-b9b0-61da6310f9a8",
          "display": "Dr. Hel Ping"
        }
      }
    },
    {
      "fullUrl": "urn:uuid:9aa2cb66-cf27-4aeb-a03a-7ea0ba4dcdcb",
      "resource": {
        "resourceType": "Condition",
        "id": "9aa2cb66-cf27-4aeb-a03a-7ea0ba4dcdcb",
        "meta": {
          "profile": [
            "http://hl7.org/fhir/uv/ips/StructureDefinition/Condition-uv-ips"
          ]
        },
        "category": [
          {
            "coding": [
              {
                "code": "problem-list-item",
                "system": "http://terminology.hl7.org/CodeSystem/condition-category",
                "display": "Problem List Item"
              }
            ]
          }
        ],
        "code": {
          "coding": [
            {
              "code": "195662009",
              "system": "http://snomed.info/sct",
              "display": "Acute viral pharyngitis (disorder)"
            }
          ],
          "text": "Acute viral pharyngitis"
        },
        "onsetDateTime": "2023-03-14",
        "clinicalStatus": {
          "coding": [
            {
              "code": "inactive",
              "system": "http://terminology.hl7.org/CodeSystem/condition-clinical"
            }
          ]
        },
        "subject": {
          "reference": "Patient/57c1bb7d-a6b5-4bee-92a4-933aed7544bc",
          "display": "Bent Bertelsen"
        },
        "asserter": {
          "reference": "Practitioner/7b420b1d-abf9-49ad-b9b0-61da6310f9a8",
          "display": "Dr. Hel Ping"
        }
      }
    },
    {
      "fullUrl": "urn:uuid:efa8d31d-d678-46e4-865d-4f9569bf9d4b",
      "resource": {
        "resourceType": "Condition",
        "id": "efa8d31d-d678-46e4-865d-4f9569bf9d4b",
        "meta": {
          "profile": [
            "http://hl7.org/fhir/uv/ips/StructureDefinition/Condition-uv-ips"
          ]
        },
        "category": [
          {
            "coding": [
              {
                "code": "problem-list-item",
                "system": "http://terminology.hl7.org/CodeSystem/condition-category",
                "display": "Problem List Item"
              }
            ]
          }
        ],
        "code": {
          "coding": [
            {
              "code": "18718003",
              "system": "http://snomed.info/sct",
              "display": "Gingival disease (disorder)"
            }
          ],
          "text": "Gingival disease"
        },
        "onsetDateTime": "2023-03-07",
        "clinicalStatus": {
          "coding": [
            {
              "code": "inactive",
              "system": "http://terminology.hl7.org/CodeSystem/condition-clinical"
            }
          ]
        },
        "subject": {
          "reference": "Patient/57c1bb7d-a6b5-4bee-92a4-933aed7544bc",
          "display": "Bent Bertelsen"
        },
        "asserter": {
          "reference": "Practitioner/7b420b1d-abf9-49ad-b9b0-61da6310f9a8",
          "display": "Dr. Hel Ping"
        }
      }
    },
    {
      "fullUrl": "urn:uuid:f25fa4e7-880c-4d15-a333-32e92a61d455",
      "resource": {
        "resourceType": "Condition",
        "id": "f25fa4e7-880c-4d15-a333-32e92a61d455",
        "meta": {
          "profile": [
            "http://hl7.org/fhir/uv/ips/StructureDefinition/Condition-uv-ips"
          ]
        },
        "category": [
          {
            "coding": [
              {
                "code": "problem-list-item",
                "system": "http://terminology.hl7.org/CodeSystem/condition-category",
                "display": "Problem List Item"
              }
            ]
          }
        ],
        "code": {
          "coding": [
            {
              "code": "66383009",
              "system": "http://snomed.info/sct",
              "display": "Gingivitis (disorder)"
            }
          ],
          "text": "Gingivitis"
        },
        "onsetDateTime": "2023-02-07",
        "clinicalStatus": {
          "coding": [
            {
              "code": "inactive",
              "system": "http://terminology.hl7.org/CodeSystem/condition-clinical"
            }
          ]
        },
        "subject": {
          "reference": "Patient/57c1bb7d-a6b5-4bee-92a4-933aed7544bc",
          "display": "Bent Bertelsen"
        },
        "asserter": {
          "reference": "Practitioner/7b420b1d-abf9-49ad-b9b0-61da6310f9a8",
          "display": "Dr. Hel Ping"
        }
      }
    },
    {
      "fullUrl": "urn:uuid:a3126840-78c2-4c35-8b2f-158292c1b519",
      "resource": {
        "resourceType": "Condition",
        "id": "a3126840-78c2-4c35-8b2f-158292c1b519",
        "meta": {
          "profile": [
            "http://hl7.org/fhir/uv/ips/StructureDefinition/Condition-uv-ips"
          ]
        },
        "category": [
          {
            "coding": [
              {
                "code": "problem-list-item",
                "system": "http://terminology.hl7.org/CodeSystem/condition-category",
                "display": "Problem List Item"
              }
            ]
          }
        ],
        "code": {
          "coding": [
            {
              "code": "109570002",
              "system": "http://snomed.info/sct",
              "display": "Primary dental caries (disorder)"
            }
          ],
          "text": "Primary dental caries"
        },
        "onsetDateTime": "2022-08-23",
        "clinicalStatus": {
          "coding": [
            {
              "code": "inactive",
              "system": "http://terminology.hl7.org/CodeSystem/condition-clinical"
            }
          ]
        },
        "subject": {
          "reference": "Patient/57c1bb7d-a6b5-4bee-92a4-933aed7544bc",
          "display": "Bent Bertelsen"
        },
        "asserter": {
          "reference": "Practitioner/7b420b1d-abf9-49ad-b9b0-61da6310f9a8",
          "display": "Dr. Hel Ping"
        }
      }
    },
    {
      "fullUrl": "urn:uuid:e3062f57-ce5e-4f3c-9779-369388685f7a",
      "resource": {
        "resourceType": "Condition",
        "id": "e3062f57-ce5e-4f3c-9779-369388685f7a",
        "meta": {
          "profile": [
            "http://hl7.org/fhir/uv/ips/StructureDefinition/Condition-uv-ips"
          ]
        },
        "category": [
          {
            "coding": [
              {
                "code": "problem-list-item",
                "system": "http://terminology.hl7.org/CodeSystem/condition-category",
                "display": "Problem List Item"
              }
            ]
          }
        ],
        "code": {
          "coding": [
            {
              "code": "307426000",
              "system": "http://snomed.info/sct",
              "display": "Acute infective cystitis (disorder)"
            }
          ],
          "text": "Acute infective cystitis"
        },
        "onsetDateTime": "2022-07-19",
        "clinicalStatus": {
          "coding": [
            {
              "code": "inactive",
              "system": "http://terminology.hl7.org/CodeSystem/condition-clinical"
            }
          ]
        },
        "subject": {
          "reference": "Patient/57c1bb7d-a6b5-4bee-92a4-933aed7544bc",
          "display": "Bent Bertelsen"
        },
        "asserter": {
          "reference": "Practitioner/7b420b1d-abf9-49ad-b9b0-61da6310f9a8",
          "display": "Dr. Hel Ping"
        }
      }
    },
    {
      "fullUrl": "urn:uuid:05ab674c-49ab-4fdb-8adf-0f8650a6a7cb",
      "resource": {
        "resourceType": "Condition",
        "id": "05ab674c-49ab-4fdb-8adf-0f8650a6a7cb",
        "meta": {
          "profile": [
            "http://hl7.org/fhir/uv/ips/StructureDefinition/Condition-uv-ips"
          ]
        },
        "category": [
          {
            "coding": [
              {
                "code": "problem-list-item",
                "system": "http://terminology.hl7.org/CodeSystem/condition-category",
                "display": "Problem List Item"
              }
            ]
          }
        ],
        "code": {
          "coding": [
            {
              "code": "66383009",
              "system": "http://snomed.info/sct",
              "display": "Gingivitis (disorder)"
            }
          ],
          "text": "Gingivitis"
        },
        "onsetDateTime": "2021-08-03",
        "clinicalStatus": {
          "coding": [
            {
              "code": "inactive",
              "system": "http://terminology.hl7.org/CodeSystem/condition-clinical"
            }
          ]
        },
        "subject": {
          "reference": "Patient/57c1bb7d-a6b5-4bee-92a4-933aed7544bc",
          "display": "Bent Bertelsen"
        },
        "asserter": {
          "reference": "Practitioner/7b420b1d-abf9-49ad-b9b0-61da6310f9a8",
          "display": "Dr. Hel Ping"
        }
      }
    },
    {
      "fullUrl": "urn:uuid:b025d6d3-2025-446f-a561-3d9f37d51709",
      "resource": {
        "resourceType": "Condition",
        "id": "b025d6d3-2025-446f-a561-3d9f37d51709",
        "meta": {
          "profile": [
            "http://hl7.org/fhir/uv/ips/StructureDefinition/Condition-uv-ips"
          ]
        },
        "category": [
          {
            "coding": [
              {
                "code": "problem-list-item",
                "system": "http://terminology.hl7.org/CodeSystem/condition-category",
                "display": "Problem List Item"
              }
            ]
          }
        ],
        "code": {
          "coding": [
            {
              "code": "66383009",
              "system": "http://snomed.info/sct",
              "display": "Gingivitis (disorder)"
            }
          ],
          "text": "Gingivitis"
        },
        "onsetDateTime": "2019-08-13",
        "clinicalStatus": {
          "coding": [
            {
              "code": "inactive",
              "system": "http://terminology.hl7.org/CodeSystem/condition-clinical"
            }
          ]
        },
        "subject": {
          "reference": "Patient/57c1bb7d-a6b5-4bee-92a4-933aed7544bc",
          "display": "Bent Bertelsen"
        },
        "asserter": {
          "reference": "Practitioner/7b420b1d-abf9-49ad-b9b0-61da6310f9a8",
          "display": "Dr. Hel Ping"
        }
      }
    },
    {
      "fullUrl": "urn:uuid:f5deb05d-6cb2-4772-a885-b1edfe815264",
      "resource": {
        "resourceType": "Condition",
        "id": "f5deb05d-6cb2-4772-a885-b1edfe815264",
        "meta": {
          "profile": [
            "http://hl7.org/fhir/uv/ips/StructureDefinition/Condition-uv-ips"
          ]
        },
        "category": [
          {
            "coding": [
              {
                "code": "problem-list-item",
                "system": "http://terminology.hl7.org/CodeSystem/condition-category",
                "display": "Problem List Item"
              }
            ]
          }
        ],
        "code": {
          "coding": [
            {
              "code": "195662009",
              "system": "http://snomed.info/sct",
              "display": "Acute viral pharyngitis (disorder)"
            }
          ],
          "text": "Acute viral pharyngitis"
        },
        "onsetDateTime": "2019-08-05",
        "clinicalStatus": {
          "coding": [
            {
              "code": "inactive",
              "system": "http://terminology.hl7.org/CodeSystem/condition-clinical"
            }
          ]
        },
        "subject": {
          "reference": "Patient/57c1bb7d-a6b5-4bee-92a4-933aed7544bc",
          "display": "Bent Bertelsen"
        },
        "asserter": {
          "reference": "Practitioner/7b420b1d-abf9-49ad-b9b0-61da6310f9a8",
          "display": "Dr. Hel Ping"
        }
      }
    },
    {
      "fullUrl": "urn:uuid:f8924c93-7ea0-4028-97f8-55c32720eeb0",
      "resource": {
        "resourceType": "Condition",
        "id": "f8924c93-7ea0-4028-97f8-55c32720eeb0",
        "meta": {
          "profile": [
            "http://hl7.org/fhir/uv/ips/StructureDefinition/Condition-uv-ips"
          ]
        },
        "category": [
          {
            "coding": [
              {
                "code": "problem-list-item",
                "system": "http://terminology.hl7.org/CodeSystem/condition-category",
                "display": "Problem List Item"
              }
            ]
          }
        ],
        "code": {
          "coding": [
            {
              "code": "66383009",
              "system": "http://snomed.info/sct",
              "display": "Gingivitis (disorder)"
            }
          ],
          "text": "Gingivitis"
        },
        "onsetDateTime": "2018-02-06",
        "clinicalStatus": {
          "coding": [
            {
              "code": "inactive",
              "system": "http://terminology.hl7.org/CodeSystem/condition-clinical"
            }
          ]
        },
        "subject": {
          "reference": "Patient/57c1bb7d-a6b5-4bee-92a4-933aed7544bc",
          "display": "Bent Bertelsen"
        },
        "asserter": {
          "reference": "Practitioner/7b420b1d-abf9-49ad-b9b0-61da6310f9a8",
          "display": "Dr. Hel Ping"
        }
      }
    },
    {
      "fullUrl": "urn:uuid:ebecdde8-d3df-42b2-a317-d32f85486771",
      "resource": {
        "resourceType": "Medication",
        "id": "ebecdde8-d3df-42b2-a317-d32f85486771",
        "meta": {
          "profile": [
            "http://hl7.org/fhir/uv/ips/StructureDefinition/Medication-uv-ips"
          ]
        },
        "code": {
          "coding": [
            {
              "code": "310798",
              "system": "http://www.nlm.nih.gov/research/umls/rxnorm",
              "display": "hydrochlorothiazide 25 MG Oral Tablet"
            },
            {
              "code": "376209006",
              "system": "http://snomed.info/sct",
              "display": "Product containing precisely hydrochlorothiazide 25 milligram/1 each conventional release oral tablet (clinical drug)"
            }
          ],
          "text": "Hydrochlorothiazide 25 mg oral tablet"
        },
        "form": {
          "coding": [
            {
              "code": "421026006",
              "system": "http://snomed.info/sct",
              "display": "Oral tablet"
            }
          ]
        },
        "ingredient": [
          {
            "itemCodeableConcept": {
              "coding": [
                {
                  "code": "387525002",
                  "system": "http://snomed.info/sct",
                  "display": "Hydrochlorothiazide"
                }
              ]
            },
            "isActive": true
          }
        ]
      }
    },
    {
      "fullUrl": "urn:uuid:0164ce25-571b-4144-b0cc-d800eaa03dd1",
      "resource": {
        "resourceType": "MedicationStatement",
        "id": "0164ce25-571b-4144-b0cc-d800eaa03dd1",
        "meta": {
          "profile": [
            "http://hl7.org/fhir/uv/ips/StructureDefinition/MedicationStatement-uv-ips"
          ]
        },
        "effectivePeriod": {
          "start": "2025-04-01"
        },
        "dosage": [
          {
            "doseAndRate": [
              {
                "doseQuantity": {
                  "value": 1,
                  "unit": "{tbl}",
                  "code": "{tbl}"
                }
              }
            ],
            "timing": {
              "repeat": {
                "frequency": 1,
                "period": 1,
                "periodUnit": "d"
              }
            },
            "text": "1 tablet (25 mg) by mouth once daily",
            "asNeededBoolean": false
          }
        ],
        "reasonCode": [
          {
            "coding": [
              {
                "code": "59621000",
                "system": "http://snomed.info/sct",
                "display": "Essential hypertension (disorder)"
              }
            ]
          }
        ],
        "status": "active",
        "medicationReference": {
          "reference": "Medication/ebecdde8-d3df-42b2-a317-d32f85486771",
          "display": "Hydrochlorothiazide 25 mg oral tablet"
        },
        "subject": {
          "reference": "Patient/57c1bb7d-a6b5-4bee-92a4-933aed7544bc",
          "display": "Bent Bertelsen"
        }
      }
    },
    {
      "fullUrl": "urn:uuid:5612fede-d0ee-498d-9718-2b1d4b9638a9",
      "resource": {
        "resourceType": "Medication",
        "id": "5612fede-d0ee-498d-9718-2b1d4b9638a9",
        "meta": {
          "profile": [
            "http://hl7.org/fhir/uv/ips/StructureDefinition/Medication-uv-ips"
          ]
        },
        "code": {
          "coding": [
            {
              "code": "314231",
              "system": "http://www.nlm.nih.gov/research/umls/rxnorm",
              "display": "simvastatin 10 MG Oral Tablet"
            },
            {
              "code": "319996000",
              "system": "http://snomed.info/sct",
              "display": "Product containing precisely simvastatin 10 milligram/1 each conventional release oral tablet (clinical drug)"
            }
          ],
          "text": "Simvastatin 10 mg oral tablet"
        },
        "form": {
          "coding": [
            {
              "code": "421026006",
              "system": "http://snomed.info/sct",
              "display": "Oral tablet"
            }
          ]
        },
        "ingredient": [
          {
            "itemCodeableConcept": {
              "coding": [
                {
                  "code": "387584000",
                  "system": "http://snomed.info/sct",
                  "display": "Simvastatin"
                }
              ]
            },
            "isActive": true
          }
        ]
      }
    },
    {
      "fullUrl": "urn:uuid:0469fdf9-2a72-4743-91e5-5b60836109a1",
      "resource": {
        "resourceType": "MedicationStatement",
        "id": "0469fdf9-2a72-4743-91e5-5b60836109a1",
        "meta": {
          "profile": [
            "http://hl7.org/fhir/uv/ips/StructureDefinition/MedicationStatement-uv-ips"
          ]
        },
        "effectivePeriod": {
          "start": "2024-06-09"
        },
        "dosage": [
          {
            "doseAndRate": [
              {
                "doseQuantity": {
                  "value": 1,
                  "unit": "{tbl}",
                  "code": "{tbl}"
                }
              }
            ],
            "timing": {
              "repeat": {
                "frequency": 1,
                "period": 1,
                "periodUnit": "d"
              }
            },
            "text": "1 tablet (10 mg) by mouth once daily",
            "asNeededBoolean": false
          }
        ],
        "reasonCode": [
          {
            "coding": [
              {
                "code": "55822004",
                "system": "http://snomed.info/sct",
                "display": "Hyperlipidemia (disorder)"
              }
            ]
          }
        ],
        "status": "active",
        "medicationReference": {
          "reference": "Medication/5612fede-d0ee-498d-9718-2b1d4b9638a9",
          "display": "Simvastatin 10 mg oral tablet"
        },
        "subject": {
          "reference": "Patient/57c1bb7d-a6b5-4bee-92a4-933aed7544bc",
          "display": "Bent Bertelsen"
        }
      }
    },
    {
      "fullUrl": "urn:uuid:473be384-7eb6-421d-94d2-65cfc1223934",
      "resource": {
        "resourceType": "Medication",
        "id": "473be384-7eb6-421d-94d2-65cfc1223934",
        "meta": {
          "profile": [
            "http://hl7.org/fhir/uv/ips/StructureDefinition/Medication-uv-ips"
          ]
        },
        "code": {
          "coding": [
            {
              "code": "309362",
              "system": "http://www.nlm.nih.gov/research/umls/rxnorm",
              "display": "clopidogrel 75 MG Oral Tablet"
            },
            {
              "code": "783586007",
              "system": "http://snomed.info/sct",
              "display": "Product containing precisely clopidogrel (as clopidogrel bisulfate) 75 milligram/1 each conventional release oral tablet (clinical drug)"
            }
          ],
          "text": "Clopidogrel (as clopidogrel bisulfate) 75 mg oral tablet"
        },
        "form": {
          "coding": [
            {
              "code": "421026006",
              "system": "http://snomed.info/sct",
              "display": "Oral tablet"
            }
          ]
        },
        "ingredient": [
          {
            "itemCodeableConcept": {
              "coding": [
                {
                  "code": "412354008",
                  "system": "http://snomed.info/sct",
                  "display": "Clopidogrel bisulfate"
                }
              ]
            },
            "isActive": true
          }
        ]
      }
    },
    {
      "fullUrl": "urn:uuid:1670ac59-d7b5-4923-9215-19ec9e453803",
      "resource": {
        "resourceType": "MedicationStatement",
        "id": "1670ac59-d7b5-4923-9215-19ec9e453803",
        "meta": {
          "profile": [
            "http://hl7.org/fhir/uv/ips/StructureDefinition/MedicationStatement-uv-ips"
          ]
        },
        "effectivePeriod": {
          "start": "1997-03-11"
        },
        "dosage": [
          {
            "doseAndRate": [
              {
                "doseQuantity": {
                  "value": 1,
                  "unit": "{tbl}",
                  "code": "{tbl}"
                }
              }
            ],
            "timing": {
              "repeat": {
                "frequency": 1,
                "period": 1,
                "periodUnit": "d"
              }
            },
            "text": "1 tablet (75 mg) by mouth once daily",
            "asNeededBoolean": false
          }
        ],
        "status": "active",
        "medicationReference": {
          "reference": "Medication/473be384-7eb6-421d-94d2-65cfc1223934",
          "display": "Clopidogrel (as clopidogrel bisulfate) 75 mg oral tablet"
        },
        "subject": {
          "reference": "Patient/57c1bb7d-a6b5-4bee-92a4-933aed7544bc",
          "display": "Bent Bertelsen"
        }
      }
    },
    {
      "fullUrl": "urn:uuid:4200ddae-1402-43dd-b366-b61cf5f5967b",
      "resource": {
        "resourceType": "Medication",
        "id": "4200ddae-1402-43dd-b366-b61cf5f5967b",
        "meta": {
          "profile": [
            "http://hl7.org/fhir/uv/ips/StructureDefinition/Medication-uv-ips"
          ]
        },
        "code": {
          "coding": [
            {
              "code": "312961",
              "system": "http://www.nlm.nih.gov/research/umls/rxnorm",
              "display": "simvastatin 20 MG Oral Tablet"
            },
            {
              "code": "319997009",
              "system": "http://snomed.info/sct",
              "display": "Product containing precisely simvastatin 20 milligram/1 each conventional release oral tablet (clinical drug)"
            }
          ],
          "text": "Simvastatin 20 mg oral tablet"
        },
        "form": {
          "coding": [
            {
              "code": "421026006",
              "system": "http://snomed.info/sct",
              "display": "Oral tablet"
            }
          ]
        },
        "ingredient": [
          {
            "itemCodeableConcept": {
              "coding": [
                {
                  "code": "387584000",
                  "system": "http://snomed.info/sct",
                  "display": "Simvastatin"
                }
              ]
            },
            "isActive": true
          }
        ]
      }
    },
    {
      "fullUrl": "urn:uuid:b5e0eda2-d701-4b83-809d-ef2cf2a6a2cd",
      "resource": {
        "resourceType": "MedicationStatement",
        "id": "b5e0eda2-d701-4b83-809d-ef2cf2a6a2cd",
        "meta": {
          "profile": [
            "http://hl7.org/fhir/uv/ips/StructureDefinition/MedicationStatement-uv-ips"
          ]
        },
        "effectivePeriod": {
          "start": "1997-03-11"
        },
        "dosage": [
          {
            "doseAndRate": [
              {
                "doseQuantity": {
                  "value": 1,
                  "unit": "{tbl}",
                  "code": "{tbl}"
                }
              }
            ],
            "timing": {
              "repeat": {
                "frequency": 1,
                "period": 1,
                "periodUnit": "d"
              }
            },
            "text": "1 tablet (20 mg) by mouth once daily",
            "asNeededBoolean": false
          }
        ],
        "status": "active",
        "medicationReference": {
          "reference": "Medication/4200ddae-1402-43dd-b366-b61cf5f5967b",
          "display": "Simvastatin 20 mg oral tablet"
        },
        "subject": {
          "reference": "Patient/57c1bb7d-a6b5-4bee-92a4-933aed7544bc",
          "display": "Bent Bertelsen"
        }
      }
    },
    {
      "fullUrl": "urn:uuid:ae0da098-a5cc-448f-a73e-64f914b97b54",
      "resource": {
        "resourceType": "Medication",
        "id": "ae0da098-a5cc-448f-a73e-64f914b97b54",
        "meta": {
          "profile": [
            "http://hl7.org/fhir/uv/ips/StructureDefinition/Medication-uv-ips"
          ]
        },
        "code": {
          "coding": [
            {
              "code": "705129",
              "system": "http://www.nlm.nih.gov/research/umls/rxnorm",
              "display": "nitroglycerin 0.4 MG/ACTUAT Mucosal Spray"
            },
            {
              "code": "425176000",
              "system": "http://snomed.info/sct",
              "display": "Product containing precisely glyceryl trinitrate 400 microgram/1 actuation conventional release sublingual spray (clinical drug)"
            }
          ],
          "text": "Nitroglycerin 400 microgram/actuation sublingual spray"
        },
        "form": {
          "coding": [
            {
              "code": "385074009",
              "system": "http://snomed.info/sct",
              "display": "Sublingual spray"
            }
          ]
        },
        "ingredient": [
          {
            "itemCodeableConcept": {
              "coding": [
                {
                  "code": "387404004",
                  "system": "http://snomed.info/sct",
                  "display": "Glyceryl trinitrate"
                }
              ]
            },
            "isActive": true
          }
        ]
      }
    },
    {
      "fullUrl": "urn:uuid:42e8f806-b90f-4837-8796-c475b029a8f3",
      "resource": {
        "resourceType": "MedicationStatement",
        "id": "42e8f806-b90f-4837-8796-c475b029a8f3",
        "meta": {
          "profile": [
            "http://hl7.org/fhir/uv/ips/StructureDefinition/MedicationStatement-uv-ips"
          ]
        },
        "effectivePeriod": {
          "start": "1997-03-11"
        },
        "dosage": [
          {
            "doseAndRate": [
              {
                "doseQuantity": {
                  "value": 400,
                  "unit": "microgram",
                  "code": "ug"
                }
              }
            ],
            "timing": {
              "repeat": {
                "frequency": 1,
                "period": 5,
                "periodUnit": "min"
              }
            },
            "text": "400 micrograms (1 spray) under the tongue as needed for chest pain, may repeat every 5 minutes as needed, up to 3 sprays in 15 minutes",
            "asNeededBoolean": true
          }
        ],
        "status": "active",
        "medicationReference": {
          "reference": "Medication/ae0da098-a5cc-448f-a73e-64f914b97b54",
          "display": "Nitroglycerin 400 microgram/actuation sublingual spray"
        },
        "subject": {
          "reference": "Patient/57c1bb7d-a6b5-4bee-92a4-933aed7544bc",
          "display": "Bent Bertelsen"
        }
      }
    },
    {
      "fullUrl": "urn:uuid:9026fd24-048b-4be3-98a1-07268dd8f832",
      "resource": {
        "resourceType": "Medication",
        "id": "9026fd24-048b-4be3-98a1-07268dd8f832",
        "meta": {
          "profile": [
            "http://hl7.org/fhir/uv/ips/StructureDefinition/Medication-uv-ips"
          ]
        },
        "code": {
          "coding": [
            {
              "code": "866412",
              "system": "http://www.nlm.nih.gov/research/umls/rxnorm",
              "display": "24 HR metoprolol succinate 100 MG Extended Release Oral Tablet"
            },
            {
              "code": "879980009",
              "system": "http://snomed.info/sct",
              "display": "Product containing precisely metoprolol tartrate (as metoprolol succinate) 100 milligram/1 each prolonged-release oral tablet (clinical drug)"
            }
          ],
          "text": "Metoprolol tartrate (as metoprolol succinate) 100 mg prolonged-release oral tablet"
        },
        "form": {
          "coding": [
            {
              "code": "385060002",
              "system": "http://snomed.info/sct",
              "display": "Prolonged-release oral tablet"
            }
          ]
        },
        "ingredient": [
          {
            "itemCodeableConcept": {
              "coding": [
                {
                  "code": "412432007",
                  "system": "http://snomed.info/sct",
                  "display": "Metoprolol succinate"
                }
              ]
            },
            "isActive": true
          }
        ]
      }
    },
    {
      "fullUrl": "urn:uuid:45410943-04c3-47a3-b3bd-912ca4d1bf3f",
      "resource": {
        "resourceType": "MedicationStatement",
        "id": "45410943-04c3-47a3-b3bd-912ca4d1bf3f",
        "meta": {
          "profile": [
            "http://hl7.org/fhir/uv/ips/StructureDefinition/MedicationStatement-uv-ips"
          ]
        },
        "effectivePeriod": {
          "start": "1997-03-11"
        },
        "dosage": [
          {
            "doseAndRate": [
              {
                "doseQuantity": {
                  "value": 1,
                  "unit": "{tbl}",
                  "code": "{tbl}"
                }
              }
            ],
            "timing": {
              "repeat": {
                "frequency": 1,
                "period": 1,
                "periodUnit": "d"
              }
            },
            "text": "1 tablet (100 mg) once daily",
            "asNeededBoolean": false
          }
        ],
        "status": "active",
        "medicationReference": {
          "reference": "Medication/9026fd24-048b-4be3-98a1-07268dd8f832",
          "display": "Metoprolol tartrate (as metoprolol succinate) 100 mg prolonged-release oral tablet"
        },
        "subject": {
          "reference": "Patient/57c1bb7d-a6b5-4bee-92a4-933aed7544bc",
          "display": "Bent Bertelsen"
        }
      }
    },
    {
      "fullUrl": "urn:uuid:34d4b1e9-7de2-45be-80c7-b0573d588a36",
      "resource": {
        "resourceType": "AllergyIntolerance",
        "id": "34d4b1e9-7de2-45be-80c7-b0573d588a36",
        "meta": {
          "profile": [
            "http://hl7.eu/fhir/eps/StructureDefinition/allergyIntolerance-eu-eps"
          ]
        },
        "code": {
          "coding": [
            {
              "code": "716186003",
              "system": "http://snomed.info/sct",
              "display": "No known allergy (situation)"
            }
          ]
        },
        "patient": {
          "reference": "Patient/57c1bb7d-a6b5-4bee-92a4-933aed7544bc",
          "display": "Bent Bertelsen"
        },
        "_onsetDateTime": {
          "extension": [
            {
              "url": "http://hl7.org/fhir/StructureDefinition/data-absent-reason",
              "valueCode": "unknown"
            }
          ]
        }
      }
    },
    {
      "fullUrl": "urn:uuid:0edb2520-f2b9-4c29-8eee-752608635bbe",
      "resource": {
        "resourceType": "Procedure",
        "id": "0edb2520-f2b9-4c29-8eee-752608635bbe",
        "meta": {
          "profile": [
            "http://hl7.org/fhir/uv/ips/StructureDefinition/Procedure-uv-ips"
          ]
        },
        "code": {
          "coding": [
            {
              "code": "103697008",
              "system": "http://snomed.info/sct",
              "display": "Patient referral for dental care (procedure)"
            }
          ],
          "text": "Patient referral for dental care"
        },
        "reasonCode": [
          {
            "coding": [
              {
                "code": "66383009",
                "system": "http://snomed.info/sct",
                "display": "Gingivitis (disorder)"
              }
            ]
          }
        ],
        "status": "completed",
        "subject": {
          "reference": "Patient/57c1bb7d-a6b5-4bee-92a4-933aed7544bc",
          "display": "Bent Bertelsen"
        },
        "performedDateTime": "2025-03-04"
      }
    },
    {
      "fullUrl": "urn:uuid:06b299fc-8d82-4eb0-9af4-850337a6b3fb",
      "resource": {
        "resourceType": "Procedure",
        "id": "06b299fc-8d82-4eb0-9af4-850337a6b3fb",
        "meta": {
          "profile": [
            "http://hl7.org/fhir/uv/ips/StructureDefinition/Procedure-uv-ips"
          ]
        },
        "code": {
          "coding": [
            {
              "code": "171207006",
              "system": "http://snomed.info/sct",
              "display": "Depression screening (procedure)"
            }
          ],
          "text": "Depression screening"
        },
        "status": "completed",
        "subject": {
          "reference": "Patient/57c1bb7d-a6b5-4bee-92a4-933aed7544bc",
          "display": "Bent Bertelsen"
        },
        "performedDateTime": "2025-03-04"
      }
    },
    {
      "fullUrl": "urn:uuid:01f5887a-ba8e-4d87-9eb2-dd01e5695e9e",
      "resource": {
        "resourceType": "Procedure",
        "id": "01f5887a-ba8e-4d87-9eb2-dd01e5695e9e",
        "meta": {
          "profile": [
            "http://hl7.org/fhir/uv/ips/StructureDefinition/Procedure-uv-ips"
          ]
        },
        "code": {
          "coding": [
            {
              "code": "710824005",
              "system": "http://snomed.info/sct",
              "display": "Assessment of health and social care needs (procedure)"
            }
          ],
          "text": "Assessment of health and social care needs"
        },
        "status": "completed",
        "subject": {
          "reference": "Patient/57c1bb7d-a6b5-4bee-92a4-933aed7544bc",
          "display": "Bent Bertelsen"
        },
        "performedDateTime": "2025-03-04"
      }
    },
    {
      "fullUrl": "urn:uuid:a3c44677-8328-4268-9e55-42af649fa95e",
      "resource": {
        "resourceType": "Procedure",
        "id": "a3c44677-8328-4268-9e55-42af649fa95e",
        "meta": {
          "profile": [
            "http://hl7.org/fhir/uv/ips/StructureDefinition/Procedure-uv-ips"
          ]
        },
        "code": {
          "coding": [
            {
              "code": "710841007",
              "system": "http://snomed.info/sct",
              "display": "Assessment of anxiety (procedure)"
            }
          ],
          "text": "Assessment of anxiety"
        },
        "status": "completed",
        "subject": {
          "reference": "Patient/57c1bb7d-a6b5-4bee-92a4-933aed7544bc",
          "display": "Bent Bertelsen"
        },
        "performedDateTime": "2025-02-04"
      }
    },
    {
      "fullUrl": "urn:uuid:ff6bf28f-e183-4d83-acb2-7d0ab676ebe0",
      "resource": {
        "resourceType": "Procedure",
        "id": "ff6bf28f-e183-4d83-acb2-7d0ab676ebe0",
        "meta": {
          "profile": [
            "http://hl7.org/fhir/uv/ips/StructureDefinition/Procedure-uv-ips"
          ]
        },
        "code": {
          "coding": [
            {
              "code": "713106006",
              "system": "http://snomed.info/sct",
              "display": "Screening for drug abuse (procedure)"
            }
          ],
          "text": "Screening for drug abuse"
        },
        "status": "completed",
        "subject": {
          "reference": "Patient/57c1bb7d-a6b5-4bee-92a4-933aed7544bc",
          "display": "Bent Bertelsen"
        },
        "performedDateTime": "2025-02-04"
      }
    },
    {
      "fullUrl": "urn:uuid:e2c228a5-7deb-4e3f-a151-7433b4f3e439",
      "resource": {
        "resourceType": "Procedure",
        "id": "e2c228a5-7deb-4e3f-a151-7433b4f3e439",
        "meta": {
          "profile": [
            "http://hl7.org/fhir/uv/ips/StructureDefinition/Procedure-uv-ips"
          ]
        },
        "code": {
          "coding": [
            {
              "code": "762993000",
              "system": "http://snomed.info/sct",
              "display": "Assessment using Morse Fall Scale (procedure)"
            }
          ],
          "text": "Assessment using Morse Fall Scale"
        },
        "status": "completed",
        "subject": {
          "reference": "Patient/57c1bb7d-a6b5-4bee-92a4-933aed7544bc",
          "display": "Bent Bertelsen"
        },
        "performedDateTime": "2025-02-04"
      }
    },
    {
      "fullUrl": "urn:uuid:40a55979-b9df-4f66-b72c-d48eadd3be0c",
      "resource": {
        "resourceType": "Procedure",
        "id": "40a55979-b9df-4f66-b72c-d48eadd3be0c",
        "meta": {
          "profile": [
            "http://hl7.org/fhir/uv/ips/StructureDefinition/Procedure-uv-ips"
          ]
        },
        "code": {
          "coding": [
            {
              "code": "428211000124100",
              "system": "http://snomed.info/sct",
              "display": "Assessment of substance use (procedure)"
            }
          ],
          "text": "Assessment of substance use"
        },
        "status": "completed",
        "subject": {
          "reference": "Patient/57c1bb7d-a6b5-4bee-92a4-933aed7544bc",
          "display": "Bent Bertelsen"
        },
        "performedDateTime": "2025-02-04"
      }
    },
    {
      "fullUrl": "urn:uuid:e2533551-fafc-4f0e-8788-b3689121bf38",
      "resource": {
        "resourceType": "Procedure",
        "id": "e2533551-fafc-4f0e-8788-b3689121bf38",
        "meta": {
          "profile": [
            "http://hl7.org/fhir/uv/ips/StructureDefinition/Procedure-uv-ips"
          ]
        },
        "code": {
          "coding": [
            {
              "code": "866148006",
              "system": "http://snomed.info/sct",
              "display": "Screening for domestic abuse (procedure)"
            }
          ],
          "text": "Screening for domestic abuse"
        },
        "status": "completed",
        "subject": {
          "reference": "Patient/57c1bb7d-a6b5-4bee-92a4-933aed7544bc",
          "display": "Bent Bertelsen"
        },
        "performedDateTime": "2025-01-14"
      }
    },
    {
      "fullUrl": "urn:uuid:c9079c48-2afc-47ec-9308-2cd658cf5c99",
      "resource": {
        "resourceType": "Procedure",
        "id": "c9079c48-2afc-47ec-9308-2cd658cf5c99",
        "meta": {
          "profile": [
            "http://hl7.org/fhir/uv/ips/StructureDefinition/Procedure-uv-ips"
          ]
        },
        "code": {
          "coding": [
            {
              "code": "430193006",
              "system": "http://snomed.info/sct",
              "display": "Medication reconciliation (procedure)"
            }
          ],
          "text": "Medication reconciliation"
        },
        "status": "completed",
        "subject": {
          "reference": "Patient/57c1bb7d-a6b5-4bee-92a4-933aed7544bc",
          "display": "Bent Bertelsen"
        },
        "performedDateTime": "2025-01-07"
      }
    },
    {
      "fullUrl": "urn:uuid:d55ead9c-ecea-4586-904d-96a27fead4da",
      "resource": {
        "resourceType": "Procedure",
        "id": "d55ead9c-ecea-4586-904d-96a27fead4da",
        "meta": {
          "profile": [
            "http://hl7.org/fhir/uv/ips/StructureDefinition/Procedure-uv-ips"
          ]
        },
        "code": {
          "coding": [
            {
              "code": "763302001",
              "system": "http://snomed.info/sct",
              "display": "Assessment using Alcohol Use Disorders Identification Test - Consumption (procedure)"
            }
          ],
          "text": "Assessment using AUDIT-C (Alcohol Use Disorders Identification Test - Consumption)"
        },
        "status": "completed",
        "subject": {
          "reference": "Patient/57c1bb7d-a6b5-4bee-92a4-933aed7544bc",
          "display": "Bent Bertelsen"
        },
        "performedDateTime": "2023-03-21"
      }
    },
    {
      "fullUrl": "urn:uuid:39f4b1db-fc9f-4450-b60e-36ef1bb172d0",
      "resource": {
        "resourceType": "Procedure",
        "id": "39f4b1db-fc9f-4450-b60e-36ef1bb172d0",
        "meta": {
          "profile": [
            "http://hl7.org/fhir/uv/ips/StructureDefinition/Procedure-uv-ips"
          ]
        },
        "code": {
          "coding": [
            {
              "code": "417511005",
              "system": "http://snomed.info/sct",
              "display": "Referral to home health care service (procedure)"
            }
          ],
          "text": "Referral to home health care service"
        },
        "status": "completed",
        "subject": {
          "reference": "Patient/57c1bb7d-a6b5-4bee-92a4-933aed7544bc",
          "display": "Bent Bertelsen"
        },
        "performedDateTime": "2019-04-23"
      }
    },
    {
      "fullUrl": "urn:uuid:855f78eb-9bbf-41e3-a779-d8a51d2e1c44",
      "resource": {
        "resourceType": "Immunization",
        "id": "855f78eb-9bbf-41e3-a779-d8a51d2e1c44",
        "meta": {
          "profile": [
            "http://hl7.org/fhir/uv/ips/StructureDefinition/Immunization-uv-ips"
          ]
        },
        "vaccineCode": {
          "coding": [
            {
              "code": "1181000221105",
              "system": "http://snomed.info/sct",
              "display": "Vaccine product containing Influenza virus antigen"
            },
            {
              "code": "J07BB02",
              "system": "http://www.whocc.no/atc",
              "display": "Influenza, inactivated, split virus"
            },
            {
              "code": "140",
              "system": "http://hl7.org/fhir/sid/cvx",
              "display": "Influenza  seasonal  injectable  preservative free"
            }
          ],
          "text": "Influenza virus antigen only vaccine product"
        },
        "site": {
          "coding": [
            {
              "code": "73776007",
              "system": "http://snomed.info/sct",
              "display": "Structure of muscle of upper arm"
            }
          ],
          "text": "Structure of muscle of upper arm"
        },
        "route": {
          "coding": [
            {
              "code": "78421000",
              "system": "http://snomed.info/sct",
              "display": "Intramuscular route"
            }
          ],
          "text": "Intramuscular route"
        },
        "status": "completed",
        "patient": {
          "reference": "Patient/57c1bb7d-a6b5-4bee-92a4-933aed7544bc",
          "display": "Bent Bertelsen"
        },
        "occurrenceDateTime": "2024-12-03",
        "lotNumber": "AQ-40R1C",
        "expirationDate": "2025-06-02"
      }
    },
    {
      "fullUrl": "urn:uuid:d5d4740b-8e2b-4d36-806b-d6ae594c44c7",
      "resource": {
        "resourceType": "Immunization",
        "id": "d5d4740b-8e2b-4d36-806b-d6ae594c44c7",
        "meta": {
          "profile": [
            "http://hl7.org/fhir/uv/ips/StructureDefinition/Immunization-uv-ips"
          ]
        },
        "vaccineCode": {
          "coding": [
            {
              "code": "1119349007",
              "system": "http://snomed.info/sct",
              "display": "Vaccine product containing SARS-CoV-2 mRNA"
            },
            {
              "code": "J07BX03",
              "system": "http://www.whocc.no/atc",
              "display": "COVID-19 mRNA vaccines"
            },
            {
              "code": "208",
              "system": "http://hl7.org/fhir/sid/cvx",
              "display": "COVID-19  mRNA  LNP-S  PF  30 mcg/0.3 mL dose"
            }
          ],
          "text": "SARS-CoV-2 mRNA vaccine"
        },
        "site": {
          "coding": [
            {
              "code": "73776007",
              "system": "http://snomed.info/sct",
              "display": "Structure of muscle of upper arm"
            }
          ],
          "text": "Structure of muscle of upper arm"
        },
        "route": {
          "coding": [
            {
              "code": "78421000",
              "system": "http://snomed.info/sct",
              "display": "Intramuscular route"
            }
          ],
          "text": "Intramuscular route"
        },
        "status": "completed",
        "patient": {
          "reference": "Patient/57c1bb7d-a6b5-4bee-92a4-933aed7544bc",
          "display": "Bent Bertelsen"
        },
        "occurrenceDateTime": "2021-03-02",
        "lotNumber": "IQ-RZxd7S",
        "expirationDate": "2021-08-18"
      }
    },
    {
      "fullUrl": "urn:uuid:d2aa155b-30cf-4262-bda3-276e0e2a80d3",
      "resource": {
        "resourceType": "Immunization",
        "id": "d2aa155b-30cf-4262-bda3-276e0e2a80d3",
        "meta": {
          "profile": [
            "http://hl7.org/fhir/uv/ips/StructureDefinition/Immunization-uv-ips"
          ]
        },
        "vaccineCode": {
          "coding": [
            {
              "code": "777725002",
              "system": "http://snomed.info/sct",
              "display": "Vaccine product containing only Clostridium tetani toxoid antigen adsorbed"
            },
            {
              "code": "J07AM51",
              "system": "http://www.whocc.no/atc",
              "display": "Diphtheria-tetanus vaccines, adult type"
            },
            {
              "code": "113",
              "system": "http://hl7.org/fhir/sid/cvx",
              "display": "Td (adult)  5 Lf tetanus toxoid  preservative free  adsorbed"
            }
          ],
          "text": "Clostridium tetani toxoid antigen adsorbed only vaccine product"
        },
        "site": {
          "coding": [
            {
              "code": "73776007",
              "system": "http://snomed.info/sct",
              "display": "Structure of muscle of upper arm"
            }
          ],
          "text": "Structure of muscle of upper arm"
        },
        "route": {
          "coding": [
            {
              "code": "78421000",
              "system": "http://snomed.info/sct",
              "display": "Intramuscular route"
            }
          ],
          "text": "Intramuscular route"
        },
        "status": "completed",
        "patient": {
          "reference": "Patient/57c1bb7d-a6b5-4bee-92a4-933aed7544bc",
          "display": "Bent Bertelsen"
        },
        "occurrenceDateTime": "2018-07-17",
        "lotNumber": "JT-P8syuQ0",
        "expirationDate": "2019-05-03"
      }
    }
  ],
  "type": "document",
  "timestamp": "2025-06-17T11:26:49Z"
}
