{
  "resourceType": "Bundle",
  "id": "Instance-Bundle-d761413f-974d-4230-ad74-ac482d5f2aeb",
  "meta": {
    "profile": [
      "http://hl7.eu/fhir/eps/StructureDefinition/bundle-eu-eps"
    ]
  },
  "identifier": {
    "assigner": {
      "display": "HL7 Europe"
    },
    "system": "urn:oid:2.16.840.1.113883.2.51.999",
    "value": "4c60c86c-a45c-4fc0-8732-e51e971cf56d"
  },
  "entry": [
    {
      "fullUrl": "urn:uuid:a61fe978-7351-4a62-b826-aeb490b2fa1e",
      "resource": {
        "resourceType": "Composition",
        "id": "a61fe978-7351-4a62-b826-aeb490b2fa1e",
        "meta": {
          "profile": [
            "http://hl7.eu/fhir/eps/StructureDefinition/composition-eu-eps"
          ]
        },
        "identifier": {
          "assigner": {
            "display": "HL7 Europe"
          },
          "system": "urn:oid:2.16.840.1.113883.2.51.999",
          "value": "d32d7c9c-0a0c-41dd-ac2c-4922248097f6"
        },
        "type": {
          "coding": [
            {
              "system": "http://loinc.org",
              "code": "60591-5",
              "display": "European Patient Summary"
            }
          ],
          "text": "European Patient Summary"
        },
        "author": [
          {
            "reference": "urn:uuid:46771f1f-f9e1-4b0b-a49d-8d9e621f4bb4"
          }
        ],
        "section": [
          {
            "text": {
              "status": "generated",
              "div": "<div xmlns=\"http://www.w3.org/1999/xhtml\"><table class=\"hl7__ips\"><tr><td>Acute ST segment elevation myocardial infarction</td><td>2015-02-21</td><td>active</td></tr><tr><td>Ischemic heart disease</td><td>2014-07-18</td><td>active</td></tr><tr><td>Metabolic syndrome X</td><td>2005-05-27</td><td>active</td></tr><tr><td>Hypertriglyceridemia</td><td>2005-05-27</td><td>active</td></tr><tr><td>Neuropathy due to type 2 diabetes mellitus</td><td>2005-05-27</td><td>active</td></tr><tr><td>Type 2 diabetes mellitus</td><td>2004-05-21</td><td>active</td></tr><tr><td>Essential hypertension</td><td>2001-05-04</td><td>active</td></tr><tr><td>Hyperlipidemia</td><td>1991-04-19</td><td>active</td></tr><tr><td>Chronic sinusitis</td><td>1990-05-12</td><td>active</td></tr><tr><td>Anemia</td><td>1976-06-11</td><td>active</td></tr><tr><td>Primary dental caries</td><td>2024-09-27</td><td>inactive</td></tr><tr><td>Gingivitis</td><td>2022-09-02</td><td>inactive</td></tr><tr><td>COVID-19</td><td>2020-08-31</td><td>inactive</td></tr><tr><td>Gingivitis</td><td>2020-08-21</td><td>inactive</td></tr><tr><td>Viral sinusitis</td><td>2015-07-07</td><td>inactive</td></tr></table></div>"
            },
            "entry": [
              {
                "reference": "urn:uuid:7747336d-1eb3-4daf-8c1c-64e63077981c"
              },
              {
                "reference": "urn:uuid:5f16e263-dfab-4c2b-9935-80e27ace0822"
              },
              {
                "reference": "urn:uuid:d55de749-edfa-427e-9cc9-4876669e17de"
              },
              {
                "reference": "urn:uuid:a72040b1-b8d3-4b8c-b8ce-f20b46947bae"
              },
              {
                "reference": "urn:uuid:209c6130-7044-4783-9a1d-8b1722200149"
              },
              {
                "reference": "urn:uuid:81d54b66-a823-4910-83ae-e31d0927e446"
              },
              {
                "reference": "urn:uuid:7a0aee3e-23db-465b-88d4-e618a6a02947"
              },
              {
                "reference": "urn:uuid:1bfd89a0-6f84-4142-b4ee-d3aaa9855254"
              },
              {
                "reference": "urn:uuid:9634eddc-5df7-4249-b4e9-c17549ebff74"
              },
              {
                "reference": "urn:uuid:b3be80bc-823b-4859-a2a6-74a818db1977"
              },
              {
                "reference": "urn:uuid:ac132d96-11e6-4737-b55a-04f2f6c9c34e"
              },
              {
                "reference": "urn:uuid:f195d21a-9e0b-4993-9bf9-09c2fe2ee4a5"
              },
              {
                "reference": "urn:uuid:5a097d38-bb6b-4e1f-b0a8-9dc6657606ca"
              },
              {
                "reference": "urn:uuid:aee1703a-bda0-48b5-885e-c165b7274e24"
              },
              {
                "reference": "urn:uuid:279e1d4c-21f1-4e8b-9e48-8ae02f2205f4"
              }
            ],
            "code": {
              "coding": [
                {
                  "system": "http://loinc.org",
                  "code": "11450-4",
                  "display": "Problem list - Reported"
                }
              ]
            },
            "title": "Problem list"
          },
          {
            "text": {
              "status": "generated",
              "div": "<div xmlns=\"http://www.w3.org/1999/xhtml\"><table class=\"hl7__ips\"><tr><td>Simvastatin 10 mg oral tablet</td><td>2024-09-14</td><td>Oral tablet</td><td>1 tablet (10 mg) by mouth once daily\"</td><td>Reason: Hyperlipidemia (disorder)</td></tr><tr><td>Amlodipine (as amlodipine besylate) 2.5 mg oral tablet</td><td>2024-09-13</td><td>Oral tablet</td><td>1 tablet (2.5 mg) by mouth once daily\"</td><td>Reason: Essential hypertension (disorder)</td></tr><tr><td>Hydrochlorothiazide 25 mg oral tablet</td><td>2024-09-13</td><td>Oral tablet</td><td>1 tablet (25 mg) by mouth once daily\"</td><td>Reason: Essential hypertension (disorder)</td></tr><tr><td>Carvedilol 6.25 mg oral tablet</td><td>2015-02-21</td><td>Oral tablet</td><td>1 tablet (6.25 mg) by mouth twice daily\"</td><td></td></tr><tr><td>aspirin 81 MG Oral Tablet</td><td>2015-02-21</td><td></td><td>1 tablet (81 mg) by mouth once daily\"</td><td></td></tr><tr><td>Atorvastatin (as atorvastatin calcium) 40 mg oral tablet</td><td>2015-02-21</td><td>Oral tablet</td><td>1 tablet (40 mg) by mouth once daily\"</td><td></td></tr><tr><td>Enalapril maleate 10 mg oral tablet</td><td>2015-02-21</td><td>Oral tablet</td><td>1 tablet (10 mg) by mouth once daily\"</td><td></td></tr><tr><td>Vitamin B12 5 MG/ML Injectable Solution</td><td>1976-06-18</td><td></td><td>5 mg (1 mL) intramuscularly once weekly\"</td><td></td></tr><tr><td>Hydrocortisone 10 mg/g and urea 100 mg/g cutaneous cream</td><td>1965-06-20</td><td>Cutaneous cream</td><td>Apply a thin layer (containing 10 mg/g hydrocortisone and 100 mg/g urea) to the affected area twice daily\"</td><td>Reason: Contact dermatitis (disorder)</td></tr></table></div>"
            },
            "entry": [
              {
                "reference": "urn:uuid:c402ce67-54eb-4f38-a710-44ed702dac50"
              },
              {
                "reference": "urn:uuid:584bdc61-13a5-4c69-8e26-590113761258"
              },
              {
                "reference": "urn:uuid:1f0ddf3a-f68a-4778-94d6-4d0209c1a74b"
              },
              {
                "reference": "urn:uuid:4b0e8155-042d-435b-83f9-d648d7601325"
              },
              {
                "reference": "urn:uuid:c51bc1b6-4543-4609-a0cd-b8d249c4ddb0"
              },
              {
                "reference": "urn:uuid:f479cf0c-ef50-4caa-8010-76d1cb6087fb"
              },
              {
                "reference": "urn:uuid:062986a4-3577-455d-af65-0c68d41730f8"
              },
              {
                "reference": "urn:uuid:9a2c7f85-1a94-48c4-9bad-f161d6f33fee"
              },
              {
                "reference": "urn:uuid:28feead2-e80c-4a69-9db0-2bd7cc592f2f"
              }
            ],
            "code": {
              "coding": [
                {
                  "system": "http://loinc.org",
                  "code": "10160-0",
                  "display": "History of Medication use Narrative"
                }
              ]
            },
            "title": "Medication list"
          },
          {
            "text": {
              "status": "generated",
              "div": "<div xmlns=\"http://www.w3.org/1999/xhtml\"><table class=\"hl7__ips\"><tr><td>Allergic disposition</td><td>1965-07-03</td><td>active</td><td>environment</td></tr></table></div>"
            },
            "entry": [
              {
                "reference": "urn:uuid:7c30c433-2563-41dd-b5d1-c02839124c83"
              }
            ],
            "code": {
              "coding": [
                {
                  "system": "http://loinc.org",
                  "code": "48765-2",
                  "display": "Allergies and adverse reactions Document"
                }
              ]
            },
            "title": "Allergies and Intolerances"
          },
          {
            "text": {
              "status": "generated",
              "div": "<div xmlns=\"http://www.w3.org/1999/xhtml\"><table class=\"hl7__ips\"><tr><td>Referral to home health care service</td><td>2018-04-06</td><td>-</td></tr></table></div>"
            },
            "entry": [
              {
                "reference": "urn:uuid:94148fac-1684-493a-a24a-c6c1cc5ef8a6"
              }
            ],
            "code": {
              "coding": [
                {
                  "system": "http://loinc.org",
                  "code": "47519-4",
                  "display": "History of Procedures Document"
                }
              ]
            },
            "title": "Procedure History list"
          },
          {
            "text": {
              "status": "generated",
              "div": "<div xmlns=\"http://www.w3.org/1999/xhtml\"><table class=\"hl7__ips\"><tr><td>Influenza virus antigen only vaccine product</td><td>2024-09-13</td></tr><tr><td>SARS-CoV-2 mRNA vaccine</td><td>2021-04-23</td></tr><tr><td>Clostridium tetani toxoid antigen adsorbed only vaccine product</td><td>2016-07-29</td></tr></table></div>"
            },
            "entry": [
              {
                "reference": "urn:uuid:a81ef84d-359a-484a-8f82-e460e326da19"
              },
              {
                "reference": "urn:uuid:7f17dad7-c661-4c50-b4a5-2a9aad78d176"
              },
              {
                "reference": "urn:uuid:1afc309a-d72a-407e-a3da-9e5f160ed775"
              }
            ],
            "code": {
              "coding": [
                {
                  "system": "http://loinc.org",
                  "code": "11369-6",
                  "display": "History of Immunization Narrative"
                }
              ]
            },
            "title": "Immunizations list"
          }
        ],
        "title": "European Patient Summary",
        "status": "final",
        "subject": {
          "reference": "urn:uuid:de00080c-4528-43f4-b175-74204c1f428b"
        },
        "custodian": {
          "reference": "urn:uuid:65a0a72d-72f3-4007-ad02-9e1131b3c5a2"
        },
        "date": "2025-06-16T17:28:57Z",
        "confidentiality": "N"
      }
    },
    {
      "fullUrl": "urn:uuid:de00080c-4528-43f4-b175-74204c1f428b",
      "resource": {
        "resourceType": "Patient",
        "id": "de00080c-4528-43f4-b175-74204c1f428b",
        "meta": {
          "profile": [
            "http://hl7.eu/fhir/eps/StructureDefinition/patient-eu-eps"
          ]
        },
        "identifier": [
          {
            "type": {
              "coding": [
                {
                  "code": "NI",
                  "system": "http://terminology.hl7.org/CodeSystem/v2-0203"
                }
              ]
            },
            "system": "http://ec.europa.eu/identifier/eci",
            "value": "1054-284421-1"
          },
          {
            "type": {
              "coding": [
                {
                  "code": "MR",
                  "system": "http://terminology.hl7.org/CodeSystem/v2-0203"
                }
              ]
            },
            "system": "http://local.setting.eu/identifier",
            "value": "8b3c98b0-2c6a-fcd2-b8a8-e4d1966d72ae"
          }
        ],
        "name": [
          {
            "given": [
              "Malachy"
            ],
            "family": "Dodd",
            "text": "Malachy Dodd"
          }
        ],
        "address": [
          {
            "line": [
              "43 Leicester Road"
            ],
            "use": "home",
            "type": "physical",
            "city": "Babbacombe",
            "postalCode": "TQ1 3JG",
            "country": "United Kingdom"
          }
        ],
        "telecom": [
          {
            "system": "phone",
            "value": "+44 077 2242 4617"
          }
        ],
        "gender": "male",
        "birthDate": "1950-09-12"
      }
    },
    {
      "fullUrl": "urn:uuid:46771f1f-f9e1-4b0b-a49d-8d9e621f4bb4",
      "resource": {
        "resourceType": "PractitionerRole",
        "id": "46771f1f-f9e1-4b0b-a49d-8d9e621f4bb4",
        "meta": {
          "profile": [
            "http://hl7.eu/fhir/base/StructureDefinition/practitionerRole-eu"
          ]
        },
        "practitioner": {
          "reference": "urn:uuid:751ff1b3-2a3b-419c-8f24-5937f6b7eaee"
        },
        "organization": {
          "reference": "urn:uuid:65a0a72d-72f3-4007-ad02-9e1131b3c5a2"
        }
      }
    },
    {
      "fullUrl": "urn:uuid:751ff1b3-2a3b-419c-8f24-5937f6b7eaee",
      "resource": {
        "resourceType": "Practitioner",
        "id": "751ff1b3-2a3b-419c-8f24-5937f6b7eaee",
        "meta": {
          "profile": [
            "http://hl7.eu/fhir/base/StructureDefinition/practitioner-eu"
          ]
        },
        "name": [
          {
            "prefix": [
              "Dr."
            ],
            "given": [
              "Hel"
            ],
            "family": "Ping"
          }
        ]
      }
    },
    {
      "fullUrl": "urn:uuid:7747336d-1eb3-4daf-8c1c-64e63077981c",
      "resource": {
        "resourceType": "Condition",
        "id": "7747336d-1eb3-4daf-8c1c-64e63077981c",
        "meta": {
          "profile": [
            "http://hl7.org/fhir/uv/ips/StructureDefinition/Condition-uv-ips"
          ]
        },
        "category": [
          {
            "coding": [
              {
                "code": "problem-list-item",
                "system": "http://terminology.hl7.org/CodeSystem/condition-category",
                "display": "Problem List Item"
              }
            ]
          }
        ],
        "code": {
          "coding": [
            {
              "code": "401303003",
              "system": "http://snomed.info/sct",
              "display": "Acute ST segment elevation myocardial infarction (disorder)"
            }
          ],
          "text": "Acute ST segment elevation myocardial infarction"
        },
        "onsetDateTime": "2015-02-21",
        "clinicalStatus": {
          "coding": [
            {
              "code": "active",
              "system": "http://terminology.hl7.org/CodeSystem/condition-clinical"
            }
          ]
        },
        "subject": {
          "reference": "Patient/de00080c-4528-43f4-b175-74204c1f428b",
          "display": "Malachy Dodd"
        },
        "asserter": {
          "reference": "Practitioner/751ff1b3-2a3b-419c-8f24-5937f6b7eaee",
          "display": "Dr. Hel Ping"
        }
      }
    },
    {
      "fullUrl": "urn:uuid:5f16e263-dfab-4c2b-9935-80e27ace0822",
      "resource": {
        "resourceType": "Condition",
        "id": "5f16e263-dfab-4c2b-9935-80e27ace0822",
        "meta": {
          "profile": [
            "http://hl7.org/fhir/uv/ips/StructureDefinition/Condition-uv-ips"
          ]
        },
        "category": [
          {
            "coding": [
              {
                "code": "problem-list-item",
                "system": "http://terminology.hl7.org/CodeSystem/condition-category",
                "display": "Problem List Item"
              }
            ]
          }
        ],
        "code": {
          "coding": [
            {
              "code": "414545008",
              "system": "http://snomed.info/sct",
              "display": "Ischemic heart disease (disorder)"
            }
          ],
          "text": "Ischemic heart disease"
        },
        "onsetDateTime": "2014-07-18",
        "clinicalStatus": {
          "coding": [
            {
              "code": "active",
              "system": "http://terminology.hl7.org/CodeSystem/condition-clinical"
            }
          ]
        },
        "subject": {
          "reference": "Patient/de00080c-4528-43f4-b175-74204c1f428b",
          "display": "Malachy Dodd"
        },
        "asserter": {
          "reference": "Practitioner/751ff1b3-2a3b-419c-8f24-5937f6b7eaee",
          "display": "Dr. Hel Ping"
        }
      }
    },
    {
      "fullUrl": "urn:uuid:d55de749-edfa-427e-9cc9-4876669e17de",
      "resource": {
        "resourceType": "Condition",
        "id": "d55de749-edfa-427e-9cc9-4876669e17de",
        "meta": {
          "profile": [
            "http://hl7.org/fhir/uv/ips/StructureDefinition/Condition-uv-ips"
          ]
        },
        "category": [
          {
            "coding": [
              {
                "code": "problem-list-item",
                "system": "http://terminology.hl7.org/CodeSystem/condition-category",
                "display": "Problem List Item"
              }
            ]
          }
        ],
        "code": {
          "coding": [
            {
              "code": "237602007",
              "system": "http://snomed.info/sct",
              "display": "Metabolic syndrome X (disorder)"
            }
          ],
          "text": "Metabolic syndrome X"
        },
        "onsetDateTime": "2005-05-27",
        "clinicalStatus": {
          "coding": [
            {
              "code": "active",
              "system": "http://terminology.hl7.org/CodeSystem/condition-clinical"
            }
          ]
        },
        "subject": {
          "reference": "Patient/de00080c-4528-43f4-b175-74204c1f428b",
          "display": "Malachy Dodd"
        },
        "asserter": {
          "reference": "Practitioner/751ff1b3-2a3b-419c-8f24-5937f6b7eaee",
          "display": "Dr. Hel Ping"
        }
      }
    },
    {
      "fullUrl": "urn:uuid:a72040b1-b8d3-4b8c-b8ce-f20b46947bae",
      "resource": {
        "resourceType": "Condition",
        "id": "a72040b1-b8d3-4b8c-b8ce-f20b46947bae",
        "meta": {
          "profile": [
            "http://hl7.org/fhir/uv/ips/StructureDefinition/Condition-uv-ips"
          ]
        },
        "category": [
          {
            "coding": [
              {
                "code": "problem-list-item",
                "system": "http://terminology.hl7.org/CodeSystem/condition-category",
                "display": "Problem List Item"
              }
            ]
          }
        ],
        "code": {
          "coding": [
            {
              "code": "302870006",
              "system": "http://snomed.info/sct",
              "display": "Hypertriglyceridemia (disorder)"
            }
          ],
          "text": "Hypertriglyceridemia"
        },
        "onsetDateTime": "2005-05-27",
        "clinicalStatus": {
          "coding": [
            {
              "code": "active",
              "system": "http://terminology.hl7.org/CodeSystem/condition-clinical"
            }
          ]
        },
        "subject": {
          "reference": "Patient/de00080c-4528-43f4-b175-74204c1f428b",
          "display": "Malachy Dodd"
        },
        "asserter": {
          "reference": "Practitioner/751ff1b3-2a3b-419c-8f24-5937f6b7eaee",
          "display": "Dr. Hel Ping"
        }
      }
    },
    {
      "fullUrl": "urn:uuid:209c6130-7044-4783-9a1d-8b1722200149",
      "resource": {
        "resourceType": "Condition",
        "id": "209c6130-7044-4783-9a1d-8b1722200149",
        "meta": {
          "profile": [
            "http://hl7.org/fhir/uv/ips/StructureDefinition/Condition-uv-ips"
          ]
        },
        "category": [
          {
            "coding": [
              {
                "code": "problem-list-item",
                "system": "http://terminology.hl7.org/CodeSystem/condition-category",
                "display": "Problem List Item"
              }
            ]
          }
        ],
        "code": {
          "coding": [
            {
              "code": "368581000119106",
              "system": "http://snomed.info/sct",
              "display": "Neuropathy due to type 2 diabetes mellitus (disorder)"
            }
          ],
          "text": "Neuropathy due to type 2 diabetes mellitus"
        },
        "onsetDateTime": "2005-05-27",
        "clinicalStatus": {
          "coding": [
            {
              "code": "active",
              "system": "http://terminology.hl7.org/CodeSystem/condition-clinical"
            }
          ]
        },
        "subject": {
          "reference": "Patient/de00080c-4528-43f4-b175-74204c1f428b",
          "display": "Malachy Dodd"
        },
        "asserter": {
          "reference": "Practitioner/751ff1b3-2a3b-419c-8f24-5937f6b7eaee",
          "display": "Dr. Hel Ping"
        }
      }
    },
    {
      "fullUrl": "urn:uuid:81d54b66-a823-4910-83ae-e31d0927e446",
      "resource": {
        "resourceType": "Condition",
        "id": "81d54b66-a823-4910-83ae-e31d0927e446",
        "meta": {
          "profile": [
            "http://hl7.org/fhir/uv/ips/StructureDefinition/Condition-uv-ips"
          ]
        },
        "category": [
          {
            "coding": [
              {
                "code": "problem-list-item",
                "system": "http://terminology.hl7.org/CodeSystem/condition-category",
                "display": "Problem List Item"
              }
            ]
          }
        ],
        "code": {
          "coding": [
            {
              "code": "44054006",
              "system": "http://snomed.info/sct",
              "display": "Diabetes mellitus type 2 (disorder)"
            }
          ],
          "text": "Type 2 diabetes mellitus"
        },
        "onsetDateTime": "2004-05-21",
        "clinicalStatus": {
          "coding": [
            {
              "code": "active",
              "system": "http://terminology.hl7.org/CodeSystem/condition-clinical"
            }
          ]
        },
        "subject": {
          "reference": "Patient/de00080c-4528-43f4-b175-74204c1f428b",
          "display": "Malachy Dodd"
        },
        "asserter": {
          "reference": "Practitioner/751ff1b3-2a3b-419c-8f24-5937f6b7eaee",
          "display": "Dr. Hel Ping"
        }
      }
    },
    {
      "fullUrl": "urn:uuid:7a0aee3e-23db-465b-88d4-e618a6a02947",
      "resource": {
        "resourceType": "Condition",
        "id": "7a0aee3e-23db-465b-88d4-e618a6a02947",
        "meta": {
          "profile": [
            "http://hl7.org/fhir/uv/ips/StructureDefinition/Condition-uv-ips"
          ]
        },
        "category": [
          {
            "coding": [
              {
                "code": "problem-list-item",
                "system": "http://terminology.hl7.org/CodeSystem/condition-category",
                "display": "Problem List Item"
              }
            ]
          }
        ],
        "code": {
          "coding": [
            {
              "code": "59621000",
              "system": "http://snomed.info/sct",
              "display": "Essential hypertension (disorder)"
            }
          ],
          "text": "Essential hypertension"
        },
        "onsetDateTime": "2001-05-04",
        "clinicalStatus": {
          "coding": [
            {
              "code": "active",
              "system": "http://terminology.hl7.org/CodeSystem/condition-clinical"
            }
          ]
        },
        "subject": {
          "reference": "Patient/de00080c-4528-43f4-b175-74204c1f428b",
          "display": "Malachy Dodd"
        },
        "asserter": {
          "reference": "Practitioner/751ff1b3-2a3b-419c-8f24-5937f6b7eaee",
          "display": "Dr. Hel Ping"
        }
      }
    },
    {
      "fullUrl": "urn:uuid:1bfd89a0-6f84-4142-b4ee-d3aaa9855254",
      "resource": {
        "resourceType": "Condition",
        "id": "1bfd89a0-6f84-4142-b4ee-d3aaa9855254",
        "meta": {
          "profile": [
            "http://hl7.org/fhir/uv/ips/StructureDefinition/Condition-uv-ips"
          ]
        },
        "category": [
          {
            "coding": [
              {
                "code": "problem-list-item",
                "system": "http://terminology.hl7.org/CodeSystem/condition-category",
                "display": "Problem List Item"
              }
            ]
          }
        ],
        "code": {
          "coding": [
            {
              "code": "55822004",
              "system": "http://snomed.info/sct",
              "display": "Hyperlipidemia (disorder)"
            }
          ],
          "text": "Hyperlipidemia"
        },
        "onsetDateTime": "1991-04-19",
        "clinicalStatus": {
          "coding": [
            {
              "code": "active",
              "system": "http://terminology.hl7.org/CodeSystem/condition-clinical"
            }
          ]
        },
        "subject": {
          "reference": "Patient/de00080c-4528-43f4-b175-74204c1f428b",
          "display": "Malachy Dodd"
        },
        "asserter": {
          "reference": "Practitioner/751ff1b3-2a3b-419c-8f24-5937f6b7eaee",
          "display": "Dr. Hel Ping"
        }
      }
    },
    {
      "fullUrl": "urn:uuid:9634eddc-5df7-4249-b4e9-c17549ebff74",
      "resource": {
        "resourceType": "Condition",
        "id": "9634eddc-5df7-4249-b4e9-c17549ebff74",
        "meta": {
          "profile": [
            "http://hl7.org/fhir/uv/ips/StructureDefinition/Condition-uv-ips"
          ]
        },
        "category": [
          {
            "coding": [
              {
                "code": "problem-list-item",
                "system": "http://terminology.hl7.org/CodeSystem/condition-category",
                "display": "Problem List Item"
              }
            ]
          }
        ],
        "code": {
          "coding": [
            {
              "code": "40055000",
              "system": "http://snomed.info/sct",
              "display": "Chronic sinusitis (disorder)"
            }
          ],
          "text": "Chronic sinusitis"
        },
        "onsetDateTime": "1990-05-12",
        "clinicalStatus": {
          "coding": [
            {
              "code": "active",
              "system": "http://terminology.hl7.org/CodeSystem/condition-clinical"
            }
          ]
        },
        "subject": {
          "reference": "Patient/de00080c-4528-43f4-b175-74204c1f428b",
          "display": "Malachy Dodd"
        },
        "asserter": {
          "reference": "Practitioner/751ff1b3-2a3b-419c-8f24-5937f6b7eaee",
          "display": "Dr. Hel Ping"
        }
      }
    },
    {
      "fullUrl": "urn:uuid:b3be80bc-823b-4859-a2a6-74a818db1977",
      "resource": {
        "resourceType": "Condition",
        "id": "b3be80bc-823b-4859-a2a6-74a818db1977",
        "meta": {
          "profile": [
            "http://hl7.org/fhir/uv/ips/StructureDefinition/Condition-uv-ips"
          ]
        },
        "category": [
          {
            "coding": [
              {
                "code": "problem-list-item",
                "system": "http://terminology.hl7.org/CodeSystem/condition-category",
                "display": "Problem List Item"
              }
            ]
          }
        ],
        "code": {
          "coding": [
            {
              "code": "271737000",
              "system": "http://snomed.info/sct",
              "display": "Anemia (disorder)"
            }
          ],
          "text": "Anemia"
        },
        "onsetDateTime": "1976-06-11",
        "clinicalStatus": {
          "coding": [
            {
              "code": "active",
              "system": "http://terminology.hl7.org/CodeSystem/condition-clinical"
            }
          ]
        },
        "subject": {
          "reference": "Patient/de00080c-4528-43f4-b175-74204c1f428b",
          "display": "Malachy Dodd"
        },
        "asserter": {
          "reference": "Practitioner/751ff1b3-2a3b-419c-8f24-5937f6b7eaee",
          "display": "Dr. Hel Ping"
        }
      }
    },
    {
      "fullUrl": "urn:uuid:ac132d96-11e6-4737-b55a-04f2f6c9c34e",
      "resource": {
        "resourceType": "Condition",
        "id": "ac132d96-11e6-4737-b55a-04f2f6c9c34e",
        "meta": {
          "profile": [
            "http://hl7.org/fhir/uv/ips/StructureDefinition/Condition-uv-ips"
          ]
        },
        "category": [
          {
            "coding": [
              {
                "code": "problem-list-item",
                "system": "http://terminology.hl7.org/CodeSystem/condition-category",
                "display": "Problem List Item"
              }
            ]
          }
        ],
        "code": {
          "coding": [
            {
              "code": "109570002",
              "system": "http://snomed.info/sct",
              "display": "Primary dental caries (disorder)"
            }
          ],
          "text": "Primary dental caries"
        },
        "onsetDateTime": "2024-09-27",
        "clinicalStatus": {
          "coding": [
            {
              "code": "inactive",
              "system": "http://terminology.hl7.org/CodeSystem/condition-clinical"
            }
          ]
        },
        "subject": {
          "reference": "Patient/de00080c-4528-43f4-b175-74204c1f428b",
          "display": "Malachy Dodd"
        },
        "asserter": {
          "reference": "Practitioner/751ff1b3-2a3b-419c-8f24-5937f6b7eaee",
          "display": "Dr. Hel Ping"
        }
      }
    },
    {
      "fullUrl": "urn:uuid:f195d21a-9e0b-4993-9bf9-09c2fe2ee4a5",
      "resource": {
        "resourceType": "Condition",
        "id": "f195d21a-9e0b-4993-9bf9-09c2fe2ee4a5",
        "meta": {
          "profile": [
            "http://hl7.org/fhir/uv/ips/StructureDefinition/Condition-uv-ips"
          ]
        },
        "category": [
          {
            "coding": [
              {
                "code": "problem-list-item",
                "system": "http://terminology.hl7.org/CodeSystem/condition-category",
                "display": "Problem List Item"
              }
            ]
          }
        ],
        "code": {
          "coding": [
            {
              "code": "66383009",
              "system": "http://snomed.info/sct",
              "display": "Gingivitis (disorder)"
            }
          ],
          "text": "Gingivitis"
        },
        "onsetDateTime": "2022-09-02",
        "clinicalStatus": {
          "coding": [
            {
              "code": "inactive",
              "system": "http://terminology.hl7.org/CodeSystem/condition-clinical"
            }
          ]
        },
        "subject": {
          "reference": "Patient/de00080c-4528-43f4-b175-74204c1f428b",
          "display": "Malachy Dodd"
        },
        "asserter": {
          "reference": "Practitioner/751ff1b3-2a3b-419c-8f24-5937f6b7eaee",
          "display": "Dr. Hel Ping"
        }
      }
    },
    {
      "fullUrl": "urn:uuid:5a097d38-bb6b-4e1f-b0a8-9dc6657606ca",
      "resource": {
        "resourceType": "Condition",
        "id": "5a097d38-bb6b-4e1f-b0a8-9dc6657606ca",
        "meta": {
          "profile": [
            "http://hl7.org/fhir/uv/ips/StructureDefinition/Condition-uv-ips"
          ]
        },
        "category": [
          {
            "coding": [
              {
                "code": "problem-list-item",
                "system": "http://terminology.hl7.org/CodeSystem/condition-category",
                "display": "Problem List Item"
              }
            ]
          }
        ],
        "code": {
          "coding": [
            {
              "code": "840539006",
              "system": "http://snomed.info/sct",
              "display": "Disease caused by severe acute respiratory syndrome coronavirus 2 (disorder)"
            }
          ],
          "text": "COVID-19"
        },
        "onsetDateTime": "2020-08-31",
        "clinicalStatus": {
          "coding": [
            {
              "code": "inactive",
              "system": "http://terminology.hl7.org/CodeSystem/condition-clinical"
            }
          ]
        },
        "subject": {
          "reference": "Patient/de00080c-4528-43f4-b175-74204c1f428b",
          "display": "Malachy Dodd"
        },
        "asserter": {
          "reference": "Practitioner/751ff1b3-2a3b-419c-8f24-5937f6b7eaee",
          "display": "Dr. Hel Ping"
        }
      }
    },
    {
      "fullUrl": "urn:uuid:aee1703a-bda0-48b5-885e-c165b7274e24",
      "resource": {
        "resourceType": "Condition",
        "id": "aee1703a-bda0-48b5-885e-c165b7274e24",
        "meta": {
          "profile": [
            "http://hl7.org/fhir/uv/ips/StructureDefinition/Condition-uv-ips"
          ]
        },
        "category": [
          {
            "coding": [
              {
                "code": "problem-list-item",
                "system": "http://terminology.hl7.org/CodeSystem/condition-category",
                "display": "Problem List Item"
              }
            ]
          }
        ],
        "code": {
          "coding": [
            {
              "code": "66383009",
              "system": "http://snomed.info/sct",
              "display": "Gingivitis (disorder)"
            }
          ],
          "text": "Gingivitis"
        },
        "onsetDateTime": "2020-08-21",
        "clinicalStatus": {
          "coding": [
            {
              "code": "inactive",
              "system": "http://terminology.hl7.org/CodeSystem/condition-clinical"
            }
          ]
        },
        "subject": {
          "reference": "Patient/de00080c-4528-43f4-b175-74204c1f428b",
          "display": "Malachy Dodd"
        },
        "asserter": {
          "reference": "Practitioner/751ff1b3-2a3b-419c-8f24-5937f6b7eaee",
          "display": "Dr. Hel Ping"
        }
      }
    },
    {
      "fullUrl": "urn:uuid:279e1d4c-21f1-4e8b-9e48-8ae02f2205f4",
      "resource": {
        "resourceType": "Condition",
        "id": "279e1d4c-21f1-4e8b-9e48-8ae02f2205f4",
        "meta": {
          "profile": [
            "http://hl7.org/fhir/uv/ips/StructureDefinition/Condition-uv-ips"
          ]
        },
        "category": [
          {
            "coding": [
              {
                "code": "problem-list-item",
                "system": "http://terminology.hl7.org/CodeSystem/condition-category",
                "display": "Problem List Item"
              }
            ]
          }
        ],
        "code": {
          "coding": [
            {
              "code": "444814009",
              "system": "http://snomed.info/sct",
              "display": "Viral sinusitis (disorder)"
            }
          ],
          "text": "Viral sinusitis"
        },
        "onsetDateTime": "2015-07-07",
        "clinicalStatus": {
          "coding": [
            {
              "code": "inactive",
              "system": "http://terminology.hl7.org/CodeSystem/condition-clinical"
            }
          ]
        },
        "subject": {
          "reference": "Patient/de00080c-4528-43f4-b175-74204c1f428b",
          "display": "Malachy Dodd"
        },
        "asserter": {
          "reference": "Practitioner/751ff1b3-2a3b-419c-8f24-5937f6b7eaee",
          "display": "Dr. Hel Ping"
        }
      }
    },
    {
      "fullUrl": "urn:uuid:ebe5a02b-9279-46db-8527-46536d816dd8",
      "resource": {
        "resourceType": "Medication",
        "id": "ebe5a02b-9279-46db-8527-46536d816dd8",
        "meta": {
          "profile": [
            "http://hl7.org/fhir/uv/ips/StructureDefinition/Medication-uv-ips"
          ]
        },
        "code": {
          "coding": [
            {
              "code": "314231",
              "system": "http://www.nlm.nih.gov/research/umls/rxnorm",
              "display": "simvastatin 10 MG Oral Tablet"
            },
            {
              "code": "319996000",
              "system": "http://snomed.info/sct",
              "display": "Product containing precisely simvastatin 10 milligram/1 each conventional release oral tablet (clinical drug)"
            }
          ],
          "text": "Simvastatin 10 mg oral tablet"
        },
        "form": {
          "coding": [
            {
              "code": "421026006",
              "system": "http://snomed.info/sct",
              "display": "Oral tablet"
            }
          ]
        },
        "ingredient": [
          {
            "itemCodeableConcept": {
              "coding": [
                {
                  "code": "387584000",
                  "system": "http://snomed.info/sct",
                  "display": "Simvastatin"
                }
              ]
            },
            "isActive": true
          }
        ]
      }
    },
    {
      "fullUrl": "urn:uuid:c402ce67-54eb-4f38-a710-44ed702dac50",
      "resource": {
        "resourceType": "MedicationStatement",
        "id": "c402ce67-54eb-4f38-a710-44ed702dac50",
        "effectivePeriod": {
          "start": "2024-09-14"
        },
        "dosage": [
          {
            "doseAndRate": [
              {
                "doseQuantity": {
                  "value": 1,
                  "unit": "{tbl}",
                  "code": "{tbl}"
                }
              }
            ],
            "timing": {
              "repeat": {
                "frequency": 1,
                "period": 1,
                "periodUnit": "d"
              }
            },
            "text": "1 tablet (10 mg) by mouth once daily",
            "asNeededBoolean": false
          }
        ],
        "reasonCode": [
          {
            "coding": [
              {
                "code": "55822004",
                "system": "http://snomed.info/sct",
                "display": "Hyperlipidemia (disorder)"
              }
            ]
          }
        ],
        "status": "active",
        "medicationReference": {
          "reference": "Medication/ebe5a02b-9279-46db-8527-46536d816dd8",
          "display": "Simvastatin 10 mg oral tablet"
        },
        "subject": {
          "reference": "Patient/de00080c-4528-43f4-b175-74204c1f428b",
          "display": "Malachy Dodd"
        }
      }
    },
    {
      "fullUrl": "urn:uuid:27cf9b0e-a9a1-42bf-becd-e5736075d9a8",
      "resource": {
        "resourceType": "Medication",
        "id": "27cf9b0e-a9a1-42bf-becd-e5736075d9a8",
        "meta": {
          "profile": [
            "http://hl7.org/fhir/uv/ips/StructureDefinition/Medication-uv-ips"
          ]
        },
        "code": {
          "coding": [
            {
              "code": "308136",
              "system": "http://www.nlm.nih.gov/research/umls/rxnorm",
              "display": "amlodipine 2.5 MG Oral Tablet"
            },
            {
              "code": "1153431000",
              "system": "http://snomed.info/sct",
              "display": "Product containing precisely amlodipine (as amlodipine besilate) 2.5 milligram/1 each conventional release oral tablet (clinical drug)"
            }
          ],
          "text": "Amlodipine (as amlodipine besylate) 2.5 mg oral tablet"
        },
        "form": {
          "coding": [
            {
              "code": "421026006",
              "system": "http://snomed.info/sct",
              "display": "Oral tablet"
            }
          ]
        },
        "ingredient": [
          {
            "itemCodeableConcept": {
              "coding": [
                {
                  "code": "384976003",
                  "system": "http://snomed.info/sct",
                  "display": "Amlodipine besylate"
                }
              ]
            },
            "isActive": true
          }
        ]
      }
    },
    {
      "fullUrl": "urn:uuid:584bdc61-13a5-4c69-8e26-590113761258",
      "resource": {
        "resourceType": "MedicationStatement",
        "id": "584bdc61-13a5-4c69-8e26-590113761258",
        "effectivePeriod": {
          "start": "2024-09-13"
        },
        "dosage": [
          {
            "doseAndRate": [
              {
                "doseQuantity": {
                  "value": 1,
                  "unit": "{tbl}",
                  "code": "{tbl}"
                }
              }
            ],
            "timing": {
              "repeat": {
                "frequency": 1,
                "period": 1,
                "periodUnit": "d"
              }
            },
            "text": "1 tablet (2.5 mg) by mouth once daily",
            "asNeededBoolean": false
          }
        ],
        "reasonCode": [
          {
            "coding": [
              {
                "code": "59621000",
                "system": "http://snomed.info/sct",
                "display": "Essential hypertension (disorder)"
              }
            ]
          }
        ],
        "status": "active",
        "medicationReference": {
          "reference": "Medication/27cf9b0e-a9a1-42bf-becd-e5736075d9a8",
          "display": "Amlodipine (as amlodipine besylate) 2.5 mg oral tablet"
        },
        "subject": {
          "reference": "Patient/de00080c-4528-43f4-b175-74204c1f428b",
          "display": "Malachy Dodd"
        }
      }
    },
    {
      "fullUrl": "urn:uuid:0100b604-ea78-4ef1-b10d-83b1d565f47d",
      "resource": {
        "resourceType": "Medication",
        "id": "0100b604-ea78-4ef1-b10d-83b1d565f47d",
        "meta": {
          "profile": [
            "http://hl7.org/fhir/uv/ips/StructureDefinition/Medication-uv-ips"
          ]
        },
        "code": {
          "coding": [
            {
              "code": "310798",
              "system": "http://www.nlm.nih.gov/research/umls/rxnorm",
              "display": "hydrochlorothiazide 25 MG Oral Tablet"
            },
            {
              "code": "376209006",
              "system": "http://snomed.info/sct",
              "display": "Product containing precisely hydrochlorothiazide 25 milligram/1 each conventional release oral tablet (clinical drug)"
            }
          ],
          "text": "Hydrochlorothiazide 25 mg oral tablet"
        },
        "form": {
          "coding": [
            {
              "code": "421026006",
              "system": "http://snomed.info/sct",
              "display": "Oral tablet"
            }
          ]
        },
        "ingredient": [
          {
            "itemCodeableConcept": {
              "coding": [
                {
                  "code": "387525002",
                  "system": "http://snomed.info/sct",
                  "display": "Hydrochlorothiazide"
                }
              ]
            },
            "isActive": true
          }
        ]
      }
    },
    {
      "fullUrl": "urn:uuid:1f0ddf3a-f68a-4778-94d6-4d0209c1a74b",
      "resource": {
        "resourceType": "MedicationStatement",
        "id": "1f0ddf3a-f68a-4778-94d6-4d0209c1a74b",
        "effectivePeriod": {
          "start": "2024-09-13"
        },
        "dosage": [
          {
            "doseAndRate": [
              {
                "doseQuantity": {
                  "value": 1,
                  "unit": "{tbl}",
                  "code": "{tbl}"
                }
              }
            ],
            "timing": {
              "repeat": {
                "frequency": 1,
                "period": 1,
                "periodUnit": "d"
              }
            },
            "text": "1 tablet (25 mg) by mouth once daily",
            "asNeededBoolean": false
          }
        ],
        "reasonCode": [
          {
            "coding": [
              {
                "code": "59621000",
                "system": "http://snomed.info/sct",
                "display": "Essential hypertension (disorder)"
              }
            ]
          }
        ],
        "status": "active",
        "medicationReference": {
          "reference": "Medication/0100b604-ea78-4ef1-b10d-83b1d565f47d",
          "display": "Hydrochlorothiazide 25 mg oral tablet"
        },
        "subject": {
          "reference": "Patient/de00080c-4528-43f4-b175-74204c1f428b",
          "display": "Malachy Dodd"
        }
      }
    },
    {
      "fullUrl": "urn:uuid:49b573bc-219d-4105-b183-d1490f39ad3f",
      "resource": {
        "resourceType": "Medication",
        "id": "49b573bc-219d-4105-b183-d1490f39ad3f",
        "meta": {
          "profile": [
            "http://hl7.org/fhir/uv/ips/StructureDefinition/Medication-uv-ips"
          ]
        },
        "code": {
          "coding": [
            {
              "code": "200031",
              "system": "http://www.nlm.nih.gov/research/umls/rxnorm",
              "display": "carvedilol 6.25 MG Oral Tablet"
            },
            {
              "code": "318635007",
              "system": "http://snomed.info/sct",
              "display": "Product containing precisely carvedilol 6.25 milligram/1 each conventional release oral tablet (clinical drug)"
            }
          ],
          "text": "Carvedilol 6.25 mg oral tablet"
        },
        "form": {
          "coding": [
            {
              "code": "421026006",
              "system": "http://snomed.info/sct",
              "display": "Oral tablet"
            }
          ]
        },
        "ingredient": [
          {
            "itemCodeableConcept": {
              "coding": [
                {
                  "code": "386870007",
                  "system": "http://snomed.info/sct",
                  "display": "Carvedilol"
                }
              ]
            },
            "isActive": true
          }
        ]
      }
    },
    {
      "fullUrl": "urn:uuid:4b0e8155-042d-435b-83f9-d648d7601325",
      "resource": {
        "resourceType": "MedicationStatement",
        "id": "4b0e8155-042d-435b-83f9-d648d7601325",
        "effectivePeriod": {
          "start": "2015-02-21"
        },
        "dosage": [
          {
            "doseAndRate": [
              {
                "doseQuantity": {
                  "value": 1,
                  "unit": "{tbl}",
                  "code": "{tbl}"
                }
              }
            ],
            "timing": {
              "repeat": {
                "frequency": 2,
                "period": 1,
                "periodUnit": "d"
              }
            },
            "text": "1 tablet (6.25 mg) by mouth twice daily",
            "asNeededBoolean": false
          }
        ],
        "status": "active",
        "medicationReference": {
          "reference": "Medication/49b573bc-219d-4105-b183-d1490f39ad3f",
          "display": "Carvedilol 6.25 mg oral tablet"
        },
        "subject": {
          "reference": "Patient/de00080c-4528-43f4-b175-74204c1f428b",
          "display": "Malachy Dodd"
        }
      }
    },
    {
      "fullUrl": "urn:uuid:2d7ecc66-17f7-4410-b105-499b786d15cd",
      "resource": {
        "resourceType": "Medication",
        "id": "2d7ecc66-17f7-4410-b105-499b786d15cd",
        "meta": {
          "profile": [
            "http://hl7.org/fhir/uv/ips/StructureDefinition/Medication-uv-ips"
          ]
        },
        "code": {
          "coding": [
            {
              "code": "243670",
              "system": "http://www.nlm.nih.gov/research/umls/rxnorm",
              "display": "aspirin 81 MG Oral Tablet"
            }
          ],
          "text": "aspirin 81 MG Oral Tablet"
        }
      }
    },
    {
      "fullUrl": "urn:uuid:c51bc1b6-4543-4609-a0cd-b8d249c4ddb0",
      "resource": {
        "resourceType": "MedicationStatement",
        "id": "c51bc1b6-4543-4609-a0cd-b8d249c4ddb0",
        "effectivePeriod": {
          "start": "2015-02-21"
        },
        "dosage": [
          {
            "doseAndRate": [
              {
                "doseQuantity": {
                  "value": 1,
                  "unit": "{tbl}",
                  "code": "{tbl}"
                }
              }
            ],
            "timing": {
              "repeat": {
                "frequency": 1,
                "period": 1,
                "periodUnit": "d"
              }
            },
            "text": "1 tablet (81 mg) by mouth once daily",
            "asNeededBoolean": false
          }
        ],
        "status": "active",
        "medicationReference": {
          "reference": "Medication/2d7ecc66-17f7-4410-b105-499b786d15cd",
          "display": "aspirin 81 MG Oral Tablet"
        },
        "subject": {
          "reference": "Patient/de00080c-4528-43f4-b175-74204c1f428b",
          "display": "Malachy Dodd"
        }
      }
    },
    {
      "fullUrl": "urn:uuid:a806682d-1aff-4937-8761-67b2502de03b",
      "resource": {
        "resourceType": "Medication",
        "id": "a806682d-1aff-4937-8761-67b2502de03b",
        "meta": {
          "profile": [
            "http://hl7.org/fhir/uv/ips/StructureDefinition/Medication-uv-ips"
          ]
        },
        "code": {
          "coding": [
            {
              "code": "617311",
              "system": "http://www.nlm.nih.gov/research/umls/rxnorm",
              "display": "atorvastatin 40 MG Oral Tablet"
            },
            {
              "code": "1145421000",
              "system": "http://snomed.info/sct",
              "display": "Product containing precisely atorvastatin (as atorvastatin calcium) 40 milligram/1 each conventional release oral tablet (clinical drug)"
            }
          ],
          "text": "Atorvastatin (as atorvastatin calcium) 40 mg oral tablet"
        },
        "form": {
          "coding": [
            {
              "code": "421026006",
              "system": "http://snomed.info/sct",
              "display": "Oral tablet"
            }
          ]
        },
        "ingredient": [
          {
            "itemCodeableConcept": {
              "coding": [
                {
                  "code": "108601004",
                  "system": "http://snomed.info/sct",
                  "display": "Atorvastatin calcium"
                }
              ]
            },
            "isActive": true
          }
        ]
      }
    },
    {
      "fullUrl": "urn:uuid:f479cf0c-ef50-4caa-8010-76d1cb6087fb",
      "resource": {
        "resourceType": "MedicationStatement",
        "id": "f479cf0c-ef50-4caa-8010-76d1cb6087fb",
        "effectivePeriod": {
          "start": "2015-02-21"
        },
        "dosage": [
          {
            "doseAndRate": [
              {
                "doseQuantity": {
                  "value": 1,
                  "unit": "{tbl}",
                  "code": "{tbl}"
                }
              }
            ],
            "timing": {
              "repeat": {
                "frequency": 1,
                "period": 1,
                "periodUnit": "d"
              }
            },
            "text": "1 tablet (40 mg) by mouth once daily",
            "asNeededBoolean": false
          }
        ],
        "status": "active",
        "medicationReference": {
          "reference": "Medication/a806682d-1aff-4937-8761-67b2502de03b",
          "display": "Atorvastatin (as atorvastatin calcium) 40 mg oral tablet"
        },
        "subject": {
          "reference": "Patient/de00080c-4528-43f4-b175-74204c1f428b",
          "display": "Malachy Dodd"
        }
      }
    },
    {
      "fullUrl": "urn:uuid:5e1cefcf-5db1-427f-90c5-dc201b0845eb",
      "resource": {
        "resourceType": "Medication",
        "id": "5e1cefcf-5db1-427f-90c5-dc201b0845eb",
        "meta": {
          "profile": [
            "http://hl7.org/fhir/uv/ips/StructureDefinition/Medication-uv-ips"
          ]
        },
        "code": {
          "coding": [
            {
              "code": "858817",
              "system": "http://www.nlm.nih.gov/research/umls/rxnorm",
              "display": "enalapril maleate 10 MG Oral Tablet"
            },
            {
              "code": "318853004",
              "system": "http://snomed.info/sct",
              "display": "Product containing precisely enalapril maleate 10 milligram/1 each conventional release oral tablet (clinical drug)"
            }
          ],
          "text": "Enalapril maleate 10 mg oral tablet"
        },
        "form": {
          "coding": [
            {
              "code": "421026006",
              "system": "http://snomed.info/sct",
              "display": "Oral tablet"
            }
          ]
        },
        "ingredient": [
          {
            "itemCodeableConcept": {
              "coding": [
                {
                  "code": "387165009",
                  "system": "http://snomed.info/sct",
                  "display": "Enalapril maleate"
                }
              ]
            },
            "isActive": true
          }
        ]
      }
    },
    {
      "fullUrl": "urn:uuid:062986a4-3577-455d-af65-0c68d41730f8",
      "resource": {
        "resourceType": "MedicationStatement",
        "id": "062986a4-3577-455d-af65-0c68d41730f8",
        "effectivePeriod": {
          "start": "2015-02-21"
        },
        "dosage": [
          {
            "doseAndRate": [
              {
                "doseQuantity": {
                  "value": 1,
                  "unit": "{tbl}",
                  "code": "{tbl}"
                }
              }
            ],
            "timing": {
              "repeat": {
                "frequency": 1,
                "period": 1,
                "periodUnit": "d"
              }
            },
            "text": "1 tablet (10 mg) by mouth once daily",
            "asNeededBoolean": false
          }
        ],
        "status": "active",
        "medicationReference": {
          "reference": "Medication/5e1cefcf-5db1-427f-90c5-dc201b0845eb",
          "display": "Enalapril maleate 10 mg oral tablet"
        },
        "subject": {
          "reference": "Patient/de00080c-4528-43f4-b175-74204c1f428b",
          "display": "Malachy Dodd"
        }
      }
    },
    {
      "fullUrl": "urn:uuid:b358028f-44a0-4711-a361-193fca2f8bb2",
      "resource": {
        "resourceType": "Medication",
        "id": "b358028f-44a0-4711-a361-193fca2f8bb2",
        "meta": {
          "profile": [
            "http://hl7.org/fhir/uv/ips/StructureDefinition/Medication-uv-ips"
          ]
        },
        "code": {
          "coding": [
            {
              "code": "2001499",
              "system": "http://www.nlm.nih.gov/research/umls/rxnorm",
              "display": "Vitamin B12 5 MG/ML Injectable Solution"
            }
          ],
          "text": "Vitamin B12 5 MG/ML Injectable Solution"
        }
      }
    },
    {
      "fullUrl": "urn:uuid:9a2c7f85-1a94-48c4-9bad-f161d6f33fee",
      "resource": {
        "resourceType": "MedicationStatement",
        "id": "9a2c7f85-1a94-48c4-9bad-f161d6f33fee",
        "effectivePeriod": {
          "start": "1976-06-18"
        },
        "dosage": [
          {
            "doseAndRate": [
              {
                "doseQuantity": {
                  "value": 5,
                  "unit": "mg",
                  "code": "mg"
                }
              }
            ],
            "timing": {
              "repeat": {
                "frequency": 1,
                "period": 1,
                "periodUnit": "wk"
              }
            },
            "text": "5 mg (1 mL) intramuscularly once weekly",
            "asNeededBoolean": false
          }
        ],
        "status": "active",
        "medicationReference": {
          "reference": "Medication/b358028f-44a0-4711-a361-193fca2f8bb2",
          "display": "Vitamin B12 5 MG/ML Injectable Solution"
        },
        "subject": {
          "reference": "Patient/de00080c-4528-43f4-b175-74204c1f428b",
          "display": "Malachy Dodd"
        }
      }
    },
    {
      "fullUrl": "urn:uuid:8b1c8ca2-3bf0-40b4-b334-75cdf5717423",
      "resource": {
        "resourceType": "Medication",
        "id": "8b1c8ca2-3bf0-40b4-b334-75cdf5717423",
        "meta": {
          "profile": [
            "http://hl7.org/fhir/uv/ips/StructureDefinition/Medication-uv-ips"
          ]
        },
        "code": {
          "coding": [
            {
              "code": "106258",
              "system": "http://www.nlm.nih.gov/research/umls/rxnorm",
              "display": "hydrocortisone 10 MG/ML Topical Cream"
            },
            {
              "code": "331722005",
              "system": "http://snomed.info/sct",
              "display": "Product containing precisely hydrocortisone 10 milligram/1 gram and urea 100 milligram/1 gram conventional release cutaneous cream (clinical drug)"
            }
          ],
          "text": "Hydrocortisone 10 mg/g and urea 100 mg/g cutaneous cream"
        },
        "form": {
          "coding": [
            {
              "code": "421628006",
              "system": "http://snomed.info/sct",
              "display": "Cutaneous cream"
            }
          ]
        },
        "ingredient": [
          {
            "itemCodeableConcept": {
              "coding": [
                {
                  "code": "387092000",
                  "system": "http://snomed.info/sct",
                  "display": "Urea"
                }
              ]
            },
            "isActive": true
          }
        ]
      }
    },
    {
      "fullUrl": "urn:uuid:28feead2-e80c-4a69-9db0-2bd7cc592f2f",
      "resource": {
        "resourceType": "MedicationStatement",
        "id": "28feead2-e80c-4a69-9db0-2bd7cc592f2f",
        "effectivePeriod": {
          "start": "1965-06-20"
        },
        "dosage": [
          {
            "doseAndRate": [
              {
                "doseQuantity": {
                  "value": 1,
                  "unit": "application",
                  "code": "{application}"
                }
              }
            ],
            "timing": {
              "repeat": {
                "frequency": 2,
                "period": 1,
                "periodUnit": "d"
              }
            },
            "text": "Apply a thin layer (containing 10 mg/g hydrocortisone and 100 mg/g urea) to the affected area twice daily",
            "asNeededBoolean": false
          }
        ],
        "reasonCode": [
          {
            "coding": [
              {
                "code": "40275004",
                "system": "http://snomed.info/sct",
                "display": "Contact dermatitis (disorder)"
              }
            ]
          }
        ],
        "status": "active",
        "medicationReference": {
          "reference": "Medication/8b1c8ca2-3bf0-40b4-b334-75cdf5717423",
          "display": "Hydrocortisone 10 mg/g and urea 100 mg/g cutaneous cream"
        },
        "subject": {
          "reference": "Patient/de00080c-4528-43f4-b175-74204c1f428b",
          "display": "Malachy Dodd"
        }
      }
    },
    {
      "fullUrl": "urn:uuid:7c30c433-2563-41dd-b5d1-c02839124c83",
      "resource": {
        "resourceType": "AllergyIntolerance",
        "id": "7c30c433-2563-41dd-b5d1-c02839124c83",
        "meta": {
          "profile": [
            "http://hl7.eu/fhir/eps/StructureDefinition/allergyIntolerance-eu-eps"
          ]
        },
        "code": {
          "coding": [
            {
              "code": "609328004",
              "system": "http://snomed.info/sct",
              "display": "Allergic disposition (finding)"
            }
          ],
          "text": "Allergic disposition"
        },
        "category": [
          "environment"
        ],
        "verificationStatus": {
          "coding": [
            {
              "code": "confirmed"
            }
          ]
        },
        "type": "allergy",
        "onsetDateTime": "1965-07-03",
        "clinicalStatus": {
          "coding": [
            {
              "code": "active"
            }
          ]
        },
        "patient": {
          "reference": "Patient/de00080c-4528-43f4-b175-74204c1f428b",
          "display": "Malachy Dodd"
        }
      }
    },
    {
      "fullUrl": "urn:uuid:94148fac-1684-493a-a24a-c6c1cc5ef8a6",
      "resource": {
        "resourceType": "Procedure",
        "id": "94148fac-1684-493a-a24a-c6c1cc5ef8a6",
        "meta": {
          "profile": [
            "http://hl7.org/fhir/uv/ips/StructureDefinition/Procedure-uv-ips"
          ]
        },
        "code": {
          "coding": [
            {
              "code": "417511005",
              "system": "http://snomed.info/sct",
              "display": "Referral to home health care service (procedure)"
            }
          ],
          "text": "Referral to home health care service"
        },
        "status": "completed",
        "subject": {
          "reference": "Patient/de00080c-4528-43f4-b175-74204c1f428b",
          "display": "Malachy Dodd"
        },
        "performedDateTime": "2018-04-06"
      }
    },
    {
      "fullUrl": "urn:uuid:a81ef84d-359a-484a-8f82-e460e326da19",
      "resource": {
        "resourceType": "Immunization",
        "id": "a81ef84d-359a-484a-8f82-e460e326da19",
        "meta": {
          "profile": [
            "http://hl7.org/fhir/uv/ips/StructureDefinition/Immunization-uv-ips"
          ]
        },
        "vaccineCode": {
          "coding": [
            {
              "code": "1181000221105",
              "system": "http://snomed.info/sct",
              "display": "Vaccine product containing Influenza virus antigen"
            },
            {
              "code": "J07BB02",
              "system": "http://www.whocc.no/atc",
              "display": "Influenza, inactivated, split virus"
            },
            {
              "code": "140",
              "system": "http://hl7.org/fhir/sid/cvx",
              "display": "Influenza  seasonal  injectable  preservative free"
            }
          ],
          "text": "Influenza virus antigen only vaccine product"
        },
        "site": {
          "coding": [
            {
              "code": "73776007",
              "system": "http://snomed.info/sct",
              "display": "Structure of muscle of upper arm"
            }
          ],
          "text": "Structure of muscle of upper arm"
        },
        "route": {
          "coding": [
            {
              "code": "78421000",
              "system": "http://snomed.info/sct",
              "display": "Intramuscular route"
            }
          ],
          "text": "Intramuscular route"
        },
        "status": "completed",
        "patient": {
          "reference": "Patient/de00080c-4528-43f4-b175-74204c1f428b",
          "display": "Malachy Dodd"
        },
        "occurrenceDateTime": "2024-09-13",
        "lotNumber": "WX-aerRTmY",
        "expirationDate": "2025-05-22"
      }
    },
    {
      "fullUrl": "urn:uuid:7f17dad7-c661-4c50-b4a5-2a9aad78d176",
      "resource": {
        "resourceType": "Immunization",
        "id": "7f17dad7-c661-4c50-b4a5-2a9aad78d176",
        "meta": {
          "profile": [
            "http://hl7.org/fhir/uv/ips/StructureDefinition/Immunization-uv-ips"
          ]
        },
        "vaccineCode": {
          "coding": [
            {
              "code": "1119349007",
              "system": "http://snomed.info/sct",
              "display": "Vaccine product containing SARS-CoV-2 mRNA"
            },
            {
              "code": "J07BX03",
              "system": "http://www.whocc.no/atc",
              "display": "COVID-19 mRNA vaccines"
            },
            {
              "code": "208",
              "system": "http://hl7.org/fhir/sid/cvx",
              "display": "COVID-19  mRNA  LNP-S  PF  30 mcg/0.3 mL dose"
            }
          ],
          "text": "SARS-CoV-2 mRNA vaccine"
        },
        "site": {
          "coding": [
            {
              "code": "73776007",
              "system": "http://snomed.info/sct",
              "display": "Structure of muscle of upper arm"
            }
          ],
          "text": "Structure of muscle of upper arm"
        },
        "route": {
          "coding": [
            {
              "code": "78421000",
              "system": "http://snomed.info/sct",
              "display": "Intramuscular route"
            }
          ],
          "text": "Intramuscular route"
        },
        "status": "completed",
        "patient": {
          "reference": "Patient/de00080c-4528-43f4-b175-74204c1f428b",
          "display": "Malachy Dodd"
        },
        "occurrenceDateTime": "2021-04-23",
        "lotNumber": "YT-Ml5p9gk4f",
        "expirationDate": "2022-03-31"
      }
    },
    {
      "fullUrl": "urn:uuid:1afc309a-d72a-407e-a3da-9e5f160ed775",
      "resource": {
        "resourceType": "Immunization",
        "id": "1afc309a-d72a-407e-a3da-9e5f160ed775",
        "meta": {
          "profile": [
            "http://hl7.org/fhir/uv/ips/StructureDefinition/Immunization-uv-ips"
          ]
        },
        "vaccineCode": {
          "coding": [
            {
              "code": "777725002",
              "system": "http://snomed.info/sct",
              "display": "Vaccine product containing only Clostridium tetani toxoid antigen adsorbed"
            },
            {
              "code": "J07AM51",
              "system": "http://www.whocc.no/atc",
              "display": "Diphtheria-tetanus vaccines, adult type"
            },
            {
              "code": "113",
              "system": "http://hl7.org/fhir/sid/cvx",
              "display": "Td (adult)  5 Lf tetanus toxoid  preservative free  adsorbed"
            }
          ],
          "text": "Clostridium tetani toxoid antigen adsorbed only vaccine product"
        },
        "site": {
          "coding": [
            {
              "code": "73776007",
              "system": "http://snomed.info/sct",
              "display": "Structure of muscle of upper arm"
            }
          ],
          "text": "Structure of muscle of upper arm"
        },
        "route": {
          "coding": [
            {
              "code": "78421000",
              "system": "http://snomed.info/sct",
              "display": "Intramuscular route"
            }
          ],
          "text": "Intramuscular route"
        },
        "status": "completed",
        "patient": {
          "reference": "Patient/de00080c-4528-43f4-b175-74204c1f428b",
          "display": "Malachy Dodd"
        },
        "occurrenceDateTime": "2016-07-29",
        "lotNumber": "YA-THaKRWmM",
        "expirationDate": "2016-11-07"
      }
    }
  ],
  "type": "document",
  "timestamp": "2025-06-16T17:28:57Z"
}
