{
  "resourceType": "Bundle",
  "id": "Instance-Bundle-81292f09-c6cb-46a0-a280-172fda986e65",
  "meta": {
    "profile": [
      "http://hl7.eu/fhir/eps/StructureDefinition/bundle-eu-eps"
    ]
  },
  "identifier": {
    "assigner": {
      "display": "HL7 Europe"
    },
    "system": "urn:oid:2.16.840.1.113883.2.51.999",
    "value": "9c6076a6-7820-4f26-a0a2-669f03a6eedd"
  },
  "entry": [
    {
      "fullUrl": "urn:uuid:de848536-e5f8-4238-81be-a533b556e029",
      "resource": {
        "resourceType": "Composition",
        "id": "de848536-e5f8-4238-81be-a533b556e029",
        "meta": {
          "profile": [
            "http://hl7.eu/fhir/eps/StructureDefinition/composition-eu-eps"
          ]
        },
        "identifier": {
          "assigner": {
            "display": "HL7 Europe"
          },
          "system": "urn:oid:2.16.840.1.113883.2.51.999",
          "value": "406d157f-7706-42c6-af57-3ed6a0a21ba3"
        },
        "type": {
          "coding": [
            {
              "system": "http://loinc.org",
              "code": "60591-5",
              "display": "European Patient Summary"
            }
          ],
          "text": "European Patient Summary"
        },
        "author": [
          {
            "reference": "urn:uuid:125dfc30-bf1b-4268-afda-3ff83b6c4f3b"
          }
        ],
        "section": [
          {
            "text": {
              "status": "generated",
              "div": "<div xmlns=\"http://www.w3.org/1999/xhtml\"><table class=\"hl7__ips\"><tr><th>Condition</th><th>Onset Date</th><th>Status</th></tr><tr><td>Acute ST segment elevation myocardial infarction</td><td><span class=\"nb\">2015-02-21</span></td><td>active</td></tr><tr><td>Ischemic heart disease</td><td><span class=\"nb\">2014-07-18</span></td><td>active</td></tr><tr><td>Metabolic syndrome X</td><td><span class=\"nb\">2005-05-27</span></td><td>active</td></tr><tr><td>Hypertriglyceridemia</td><td><span class=\"nb\">2005-05-27</span></td><td>active</td></tr><tr><td>Neuropathy due to type 2 diabetes mellitus</td><td><span class=\"nb\">2005-05-27</span></td><td>active</td></tr><tr><td>Type 2 diabetes mellitus</td><td><span class=\"nb\">2004-05-21</span></td><td>active</td></tr><tr><td>Essential hypertension</td><td><span class=\"nb\">2001-05-04</span></td><td>active</td></tr><tr><td>Hyperlipidemia</td><td><span class=\"nb\">1991-04-19</span></td><td>active</td></tr><tr><td>Chronic sinusitis</td><td><span class=\"nb\">1990-05-12</span></td><td>active</td></tr><tr><td>Anemia</td><td><span class=\"nb\">1976-06-11</span></td><td>active</td></tr><tr><td><span class=\"grayedout\">Primary dental caries</span></td><td><span class=\"nb\">2024-09-27</span></td><td><span class=\"grayedout\">inactive</span></td></tr><tr><td><span class=\"grayedout\">Gingivitis</span></td><td><span class=\"nb\">2022-09-02</span></td><td><span class=\"grayedout\">inactive</span></td></tr><tr><td><span class=\"grayedout\">COVID-19</span></td><td><span class=\"nb\">2020-08-31</span></td><td><span class=\"grayedout\">inactive</span></td></tr><tr><td><span class=\"grayedout\">Gingivitis</span></td><td><span class=\"nb\">2020-08-21</span></td><td><span class=\"grayedout\">inactive</span></td></tr><tr><td><span class=\"grayedout\">Viral sinusitis</span></td><td><span class=\"nb\">2015-07-07</span></td><td><span class=\"grayedout\">inactive</span></td></tr></table></div>"
            },
            "entry": [
              {
                "reference": "urn:uuid:d7f12ebe-c4c4-4cc7-9b9a-9a505795e380"
              },
              {
                "reference": "urn:uuid:46fab8dd-dde8-430e-9c30-ae58744a77bc"
              },
              {
                "reference": "urn:uuid:a4011ba1-b73b-4df7-8ad4-3e47c24789b3"
              },
              {
                "reference": "urn:uuid:28cfa038-2d73-4e3e-97b7-c314d4369f35"
              },
              {
                "reference": "urn:uuid:78b6bccf-46c7-4845-b23a-0bb816e50d65"
              },
              {
                "reference": "urn:uuid:f1287de8-d2f9-4ae5-8265-e1433ad2d382"
              },
              {
                "reference": "urn:uuid:f00775ce-b4e1-4aa7-b62d-910248747691"
              },
              {
                "reference": "urn:uuid:4ce76053-3e72-47a3-88f1-7b5f3aacfeb2"
              },
              {
                "reference": "urn:uuid:ffc0f39f-6d35-4719-aa77-be1406a5f0b0"
              },
              {
                "reference": "urn:uuid:a21271ac-ae10-4a12-9598-710ec4e2eda4"
              },
              {
                "reference": "urn:uuid:930e39d3-8cbd-4a43-be5b-5956e32bc17f"
              },
              {
                "reference": "urn:uuid:6e8c99aa-2198-4a11-aa31-f53bddb64c79"
              },
              {
                "reference": "urn:uuid:3d4cd1de-820b-492b-81ca-ab3822397fb0"
              },
              {
                "reference": "urn:uuid:8239920f-d016-409f-ac6e-53b9b32cfaa5"
              },
              {
                "reference": "urn:uuid:ae51badd-acff-412a-bfbf-149e0a092771"
              }
            ],
            "code": {
              "coding": [
                {
                  "system": "http://loinc.org",
                  "code": "11450-4",
                  "display": "Problem list - Reported"
                }
              ]
            },
            "title": "Problem list"
          },
          {
            "text": {
              "status": "generated",
              "div": "<div xmlns=\"http://www.w3.org/1999/xhtml\"><table class=\"hl7__ips\"><tr><th>Medication</th><th>Since</th><th>Form</th><th>Dosage</th><th>Reason</th></tr><tr><td>Simvastatin 10 mg oral tablet</td><td><span class=\"nb\">2024-09-14</span></td><td>Oral tablet</td><td>1 tablet (10 mg) by mouth once daily</td><td>Hyperlipidemia (disorder)</td></tr><tr><td>Amlodipine (as amlodipine besylate) 2.5 mg oral tablet</td><td><span class=\"nb\">2024-09-13</span></td><td>Oral tablet</td><td>1 tablet (2.5 mg) by mouth once daily</td><td>Essential hypertension (disorder)</td></tr><tr><td>Hydrochlorothiazide 25 mg oral tablet</td><td><span class=\"nb\">2024-09-13</span></td><td>Oral tablet</td><td>1 tablet (25 mg) by mouth once daily</td><td>Essential hypertension (disorder)</td></tr><tr><td>Carvedilol 6.25 mg oral tablet</td><td><span class=\"nb\">2015-02-21</span></td><td>Oral tablet</td><td>1 tablet (6.25 mg) by mouth twice daily</td><td></td></tr><tr><td>aspirin 81 MG Oral Tablet</td><td><span class=\"nb\">2015-02-21</span></td><td></td><td>1 tablet (81 mg) by mouth once daily</td><td></td></tr><tr><td>Atorvastatin (as atorvastatin calcium) 40 mg oral tablet</td><td><span class=\"nb\">2015-02-21</span></td><td>Oral tablet</td><td>1 tablet (40 mg) by mouth once daily</td><td></td></tr><tr><td>Enalapril maleate 10 mg oral tablet</td><td><span class=\"nb\">2015-02-21</span></td><td>Oral tablet</td><td>1 tablet (10 mg) by mouth once daily</td><td></td></tr><tr><td>Vitamin B12 5 MG/ML Injectable Solution</td><td><span class=\"nb\">1976-06-18</span></td><td></td><td>5 mg (1 mL) intramuscularly once monthly</td><td></td></tr><tr><td>Hydrocortisone 10 mg/g and urea 100 mg/g cutaneous cream</td><td><span class=\"nb\">1965-06-20</span></td><td>Cutaneous cream</td><td>Apply a thin layer (containing 10 mg/g hydrocortisone and 100 mg/g urea) to the affected area twice daily</td><td>Contact dermatitis (disorder)</td></tr></table></div>"
            },
            "entry": [
              {
                "reference": "urn:uuid:1ac94763-cc6c-4415-be65-b7f9fe3184d8"
              },
              {
                "reference": "urn:uuid:9e64ed67-f8b7-4b46-ab26-b847e84fcdfd"
              },
              {
                "reference": "urn:uuid:65cfea73-185f-4b15-884e-53b8e2b8a8bc"
              },
              {
                "reference": "urn:uuid:5ca13bcf-a020-4431-ad7d-662c65aff09c"
              },
              {
                "reference": "urn:uuid:6163bed4-a46c-4de2-b57d-33ae0e5b68a5"
              },
              {
                "reference": "urn:uuid:062da706-6f49-4418-8f46-86faf68c0140"
              },
              {
                "reference": "urn:uuid:e54baa9e-2f88-428c-8ba8-1cad14edc6db"
              },
              {
                "reference": "urn:uuid:71feae84-e67d-4d0a-81a5-3ca49c4f74ae"
              },
              {
                "reference": "urn:uuid:40d23087-8187-4f56-998d-3518bec05dce"
              }
            ],
            "code": {
              "coding": [
                {
                  "system": "http://loinc.org",
                  "code": "10160-0",
                  "display": "History of Medication use Narrative"
                }
              ]
            },
            "title": "Medication list"
          },
          {
            "text": {
              "status": "generated",
              "div": "<div xmlns=\"http://www.w3.org/1999/xhtml\"><table class=\"hl7__ips\"><tr><th>Allergy/Intolerance</th><th>Onset Date</th><th>Status</th><th>Type</th><th>Reaction</th></tr><tr><td>Allergic disposition</td><td><span class=\"nb\">1965-07-03</span></td><td>active</td><td>environment</td><td></td></tr></table></div>"
            },
            "entry": [
              {
                "reference": "urn:uuid:df0041ff-d7d2-4736-8ed5-b5ed27c0e341"
              }
            ],
            "code": {
              "coding": [
                {
                  "system": "http://loinc.org",
                  "code": "48765-2",
                  "display": "Allergies and adverse reactions Document"
                }
              ]
            },
            "title": "Allergies and Intolerances"
          },
          {
            "text": {
              "status": "generated",
              "div": "<div xmlns=\"http://www.w3.org/1999/xhtml\"><table class=\"hl7__ips\"><tr><th>Procedure</th><th>Date</th><th>Reason</th></tr><tr><td>Referral to home health care service</td><td><span class=\"nb\">2018-04-06</span></td><td>-</td></tr></table></div>"
            },
            "entry": [
              {
                "reference": "urn:uuid:cfab134d-0080-4a99-bee6-8a1f9fbff0e2"
              }
            ],
            "code": {
              "coding": [
                {
                  "system": "http://loinc.org",
                  "code": "47519-4",
                  "display": "History of Procedures Document"
                }
              ]
            },
            "title": "Procedure History list"
          },
          {
            "text": {
              "status": "generated",
              "div": "<div xmlns=\"http://www.w3.org/1999/xhtml\"><table class=\"hl7__ips\"><tr><th>Vaccine</th><th>Date</th></tr><tr><td>Influenza virus antigen only vaccine product</td><td><span class=\"nb\">2024-09-13</span></td></tr><tr><td>SARS-CoV-2 mRNA vaccine</td><td><span class=\"nb\">2021-04-23</span></td></tr><tr><td>Clostridium tetani toxoid antigen adsorbed only vaccine product</td><td><span class=\"nb\">2016-07-29</span></td></tr></table></div>"
            },
            "entry": [
              {
                "reference": "urn:uuid:0b80d7bf-ceae-46ed-abe0-5a6d318a457e"
              },
              {
                "reference": "urn:uuid:cd8681ae-67f9-413d-9dde-0d89746dca6d"
              },
              {
                "reference": "urn:uuid:1e57ee53-78ef-4441-bb00-ce6a3d4e8fa6"
              }
            ],
            "code": {
              "coding": [
                {
                  "system": "http://loinc.org",
                  "code": "11369-6",
                  "display": "History of Immunization Narrative"
                }
              ]
            },
            "title": "Immunizations list"
          }
        ],
        "title": "European Patient Summary",
        "status": "final",
        "subject": {
          "reference": "urn:uuid:ccb5182f-f3af-4b4e-9f0f-262c58a340cb"
        },
        "custodian": {
          "reference": "urn:uuid:894b0865-48ba-4e87-8100-e122191e7c5d"
        },
        "date": "2025-06-17T11:26:49Z",
        "confidentiality": "N"
      }
    },
    {
      "fullUrl": "urn:uuid:ccb5182f-f3af-4b4e-9f0f-262c58a340cb",
      "resource": {
        "resourceType": "Patient",
        "id": "ccb5182f-f3af-4b4e-9f0f-262c58a340cb",
        "meta": {
          "profile": [
            "http://hl7.eu/fhir/eps/StructureDefinition/patient-eu-eps"
          ]
        },
        "identifier": [
          {
            "type": {
              "coding": [
                {
                  "code": "NI",
                  "system": "http://terminology.hl7.org/CodeSystem/v2-0203"
                }
              ]
            },
            "system": "http://ec.europa.eu/identifier/eci",
            "value": "7321-512116-8"
          },
          {
            "type": {
              "coding": [
                {
                  "code": "MR",
                  "system": "http://terminology.hl7.org/CodeSystem/v2-0203"
                }
              ]
            },
            "system": "http://local.setting.eu/identifier",
            "value": "8b3c98b0-2c6a-fcd2-b8a8-e4d1966d72ae"
          }
        ],
        "name": [
          {
            "given": [
              "Vicente"
            ],
            "family": "Ferreira",
            "text": "Vicente Ferreira"
          }
        ],
        "address": [
          {
            "line": [
              "R São Domingos 111"
            ],
            "use": "home",
            "type": "physical",
            "city": "Alcabideche",
            "postalCode": "2645-065",
            "country": "Portugal"
          }
        ],
        "telecom": [
          {
            "system": "phone",
            "value": "+351 21 211 632 1063"
          }
        ],
        "gender": "male",
        "birthDate": "1941-12-26"
      }
    },
    {
      "fullUrl": "urn:uuid:125dfc30-bf1b-4268-afda-3ff83b6c4f3b",
      "resource": {
        "resourceType": "PractitionerRole",
        "id": "125dfc30-bf1b-4268-afda-3ff83b6c4f3b",
        "meta": {
          "profile": [
            "http://hl7.eu/fhir/base/StructureDefinition/practitionerRole-eu"
          ]
        },
        "practitioner": {
          "reference": "urn:uuid:e7057c48-5e69-45c5-bdfd-249424b7445a"
        },
        "organization": {
          "reference": "urn:uuid:894b0865-48ba-4e87-8100-e122191e7c5d"
        }
      }
    },
    {
      "fullUrl": "urn:uuid:e7057c48-5e69-45c5-bdfd-249424b7445a",
      "resource": {
        "resourceType": "Practitioner",
        "id": "e7057c48-5e69-45c5-bdfd-249424b7445a",
        "meta": {
          "profile": [
            "http://hl7.eu/fhir/base/StructureDefinition/practitioner-eu"
          ]
        },
        "name": [
          {
            "prefix": [
              "Dr."
            ],
            "given": [
              "Hel"
            ],
            "family": "Ping"
          }
        ]
      }
    },
    {
      "fullUrl": "urn:uuid:d7f12ebe-c4c4-4cc7-9b9a-9a505795e380",
      "resource": {
        "resourceType": "Condition",
        "id": "d7f12ebe-c4c4-4cc7-9b9a-9a505795e380",
        "meta": {
          "profile": [
            "http://hl7.org/fhir/uv/ips/StructureDefinition/Condition-uv-ips"
          ]
        },
        "category": [
          {
            "coding": [
              {
                "code": "problem-list-item",
                "system": "http://terminology.hl7.org/CodeSystem/condition-category",
                "display": "Problem List Item"
              }
            ]
          }
        ],
        "code": {
          "coding": [
            {
              "code": "401303003",
              "system": "http://snomed.info/sct",
              "display": "Acute ST segment elevation myocardial infarction (disorder)"
            }
          ],
          "text": "Acute ST segment elevation myocardial infarction"
        },
        "onsetDateTime": "2015-02-21",
        "clinicalStatus": {
          "coding": [
            {
              "code": "active",
              "system": "http://terminology.hl7.org/CodeSystem/condition-clinical"
            }
          ]
        },
        "subject": {
          "reference": "Patient/ccb5182f-f3af-4b4e-9f0f-262c58a340cb",
          "display": "Vicente Ferreira"
        },
        "asserter": {
          "reference": "Practitioner/e7057c48-5e69-45c5-bdfd-249424b7445a",
          "display": "Dr. Hel Ping"
        }
      }
    },
    {
      "fullUrl": "urn:uuid:46fab8dd-dde8-430e-9c30-ae58744a77bc",
      "resource": {
        "resourceType": "Condition",
        "id": "46fab8dd-dde8-430e-9c30-ae58744a77bc",
        "meta": {
          "profile": [
            "http://hl7.org/fhir/uv/ips/StructureDefinition/Condition-uv-ips"
          ]
        },
        "category": [
          {
            "coding": [
              {
                "code": "problem-list-item",
                "system": "http://terminology.hl7.org/CodeSystem/condition-category",
                "display": "Problem List Item"
              }
            ]
          }
        ],
        "code": {
          "coding": [
            {
              "code": "414545008",
              "system": "http://snomed.info/sct",
              "display": "Ischemic heart disease (disorder)"
            }
          ],
          "text": "Ischemic heart disease"
        },
        "onsetDateTime": "2014-07-18",
        "clinicalStatus": {
          "coding": [
            {
              "code": "active",
              "system": "http://terminology.hl7.org/CodeSystem/condition-clinical"
            }
          ]
        },
        "subject": {
          "reference": "Patient/ccb5182f-f3af-4b4e-9f0f-262c58a340cb",
          "display": "Vicente Ferreira"
        },
        "asserter": {
          "reference": "Practitioner/e7057c48-5e69-45c5-bdfd-249424b7445a",
          "display": "Dr. Hel Ping"
        }
      }
    },
    {
      "fullUrl": "urn:uuid:a4011ba1-b73b-4df7-8ad4-3e47c24789b3",
      "resource": {
        "resourceType": "Condition",
        "id": "a4011ba1-b73b-4df7-8ad4-3e47c24789b3",
        "meta": {
          "profile": [
            "http://hl7.org/fhir/uv/ips/StructureDefinition/Condition-uv-ips"
          ]
        },
        "category": [
          {
            "coding": [
              {
                "code": "problem-list-item",
                "system": "http://terminology.hl7.org/CodeSystem/condition-category",
                "display": "Problem List Item"
              }
            ]
          }
        ],
        "code": {
          "coding": [
            {
              "code": "237602007",
              "system": "http://snomed.info/sct",
              "display": "Metabolic syndrome X (disorder)"
            }
          ],
          "text": "Metabolic syndrome X"
        },
        "onsetDateTime": "2005-05-27",
        "clinicalStatus": {
          "coding": [
            {
              "code": "active",
              "system": "http://terminology.hl7.org/CodeSystem/condition-clinical"
            }
          ]
        },
        "subject": {
          "reference": "Patient/ccb5182f-f3af-4b4e-9f0f-262c58a340cb",
          "display": "Vicente Ferreira"
        },
        "asserter": {
          "reference": "Practitioner/e7057c48-5e69-45c5-bdfd-249424b7445a",
          "display": "Dr. Hel Ping"
        }
      }
    },
    {
      "fullUrl": "urn:uuid:28cfa038-2d73-4e3e-97b7-c314d4369f35",
      "resource": {
        "resourceType": "Condition",
        "id": "28cfa038-2d73-4e3e-97b7-c314d4369f35",
        "meta": {
          "profile": [
            "http://hl7.org/fhir/uv/ips/StructureDefinition/Condition-uv-ips"
          ]
        },
        "category": [
          {
            "coding": [
              {
                "code": "problem-list-item",
                "system": "http://terminology.hl7.org/CodeSystem/condition-category",
                "display": "Problem List Item"
              }
            ]
          }
        ],
        "code": {
          "coding": [
            {
              "code": "302870006",
              "system": "http://snomed.info/sct",
              "display": "Hypertriglyceridemia (disorder)"
            }
          ],
          "text": "Hypertriglyceridemia"
        },
        "onsetDateTime": "2005-05-27",
        "clinicalStatus": {
          "coding": [
            {
              "code": "active",
              "system": "http://terminology.hl7.org/CodeSystem/condition-clinical"
            }
          ]
        },
        "subject": {
          "reference": "Patient/ccb5182f-f3af-4b4e-9f0f-262c58a340cb",
          "display": "Vicente Ferreira"
        },
        "asserter": {
          "reference": "Practitioner/e7057c48-5e69-45c5-bdfd-249424b7445a",
          "display": "Dr. Hel Ping"
        }
      }
    },
    {
      "fullUrl": "urn:uuid:78b6bccf-46c7-4845-b23a-0bb816e50d65",
      "resource": {
        "resourceType": "Condition",
        "id": "78b6bccf-46c7-4845-b23a-0bb816e50d65",
        "meta": {
          "profile": [
            "http://hl7.org/fhir/uv/ips/StructureDefinition/Condition-uv-ips"
          ]
        },
        "category": [
          {
            "coding": [
              {
                "code": "problem-list-item",
                "system": "http://terminology.hl7.org/CodeSystem/condition-category",
                "display": "Problem List Item"
              }
            ]
          }
        ],
        "code": {
          "coding": [
            {
              "code": "368581000119106",
              "system": "http://snomed.info/sct",
              "display": "Neuropathy due to type 2 diabetes mellitus (disorder)"
            }
          ],
          "text": "Neuropathy due to type 2 diabetes mellitus"
        },
        "onsetDateTime": "2005-05-27",
        "clinicalStatus": {
          "coding": [
            {
              "code": "active",
              "system": "http://terminology.hl7.org/CodeSystem/condition-clinical"
            }
          ]
        },
        "subject": {
          "reference": "Patient/ccb5182f-f3af-4b4e-9f0f-262c58a340cb",
          "display": "Vicente Ferreira"
        },
        "asserter": {
          "reference": "Practitioner/e7057c48-5e69-45c5-bdfd-249424b7445a",
          "display": "Dr. Hel Ping"
        }
      }
    },
    {
      "fullUrl": "urn:uuid:f1287de8-d2f9-4ae5-8265-e1433ad2d382",
      "resource": {
        "resourceType": "Condition",
        "id": "f1287de8-d2f9-4ae5-8265-e1433ad2d382",
        "meta": {
          "profile": [
            "http://hl7.org/fhir/uv/ips/StructureDefinition/Condition-uv-ips"
          ]
        },
        "category": [
          {
            "coding": [
              {
                "code": "problem-list-item",
                "system": "http://terminology.hl7.org/CodeSystem/condition-category",
                "display": "Problem List Item"
              }
            ]
          }
        ],
        "code": {
          "coding": [
            {
              "code": "44054006",
              "system": "http://snomed.info/sct",
              "display": "Diabetes mellitus type 2 (disorder)"
            }
          ],
          "text": "Type 2 diabetes mellitus"
        },
        "onsetDateTime": "2004-05-21",
        "clinicalStatus": {
          "coding": [
            {
              "code": "active",
              "system": "http://terminology.hl7.org/CodeSystem/condition-clinical"
            }
          ]
        },
        "subject": {
          "reference": "Patient/ccb5182f-f3af-4b4e-9f0f-262c58a340cb",
          "display": "Vicente Ferreira"
        },
        "asserter": {
          "reference": "Practitioner/e7057c48-5e69-45c5-bdfd-249424b7445a",
          "display": "Dr. Hel Ping"
        }
      }
    },
    {
      "fullUrl": "urn:uuid:f00775ce-b4e1-4aa7-b62d-910248747691",
      "resource": {
        "resourceType": "Condition",
        "id": "f00775ce-b4e1-4aa7-b62d-910248747691",
        "meta": {
          "profile": [
            "http://hl7.org/fhir/uv/ips/StructureDefinition/Condition-uv-ips"
          ]
        },
        "category": [
          {
            "coding": [
              {
                "code": "problem-list-item",
                "system": "http://terminology.hl7.org/CodeSystem/condition-category",
                "display": "Problem List Item"
              }
            ]
          }
        ],
        "code": {
          "coding": [
            {
              "code": "59621000",
              "system": "http://snomed.info/sct",
              "display": "Essential hypertension (disorder)"
            }
          ],
          "text": "Essential hypertension"
        },
        "onsetDateTime": "2001-05-04",
        "clinicalStatus": {
          "coding": [
            {
              "code": "active",
              "system": "http://terminology.hl7.org/CodeSystem/condition-clinical"
            }
          ]
        },
        "subject": {
          "reference": "Patient/ccb5182f-f3af-4b4e-9f0f-262c58a340cb",
          "display": "Vicente Ferreira"
        },
        "asserter": {
          "reference": "Practitioner/e7057c48-5e69-45c5-bdfd-249424b7445a",
          "display": "Dr. Hel Ping"
        }
      }
    },
    {
      "fullUrl": "urn:uuid:4ce76053-3e72-47a3-88f1-7b5f3aacfeb2",
      "resource": {
        "resourceType": "Condition",
        "id": "4ce76053-3e72-47a3-88f1-7b5f3aacfeb2",
        "meta": {
          "profile": [
            "http://hl7.org/fhir/uv/ips/StructureDefinition/Condition-uv-ips"
          ]
        },
        "category": [
          {
            "coding": [
              {
                "code": "problem-list-item",
                "system": "http://terminology.hl7.org/CodeSystem/condition-category",
                "display": "Problem List Item"
              }
            ]
          }
        ],
        "code": {
          "coding": [
            {
              "code": "55822004",
              "system": "http://snomed.info/sct",
              "display": "Hyperlipidemia (disorder)"
            }
          ],
          "text": "Hyperlipidemia"
        },
        "onsetDateTime": "1991-04-19",
        "clinicalStatus": {
          "coding": [
            {
              "code": "active",
              "system": "http://terminology.hl7.org/CodeSystem/condition-clinical"
            }
          ]
        },
        "subject": {
          "reference": "Patient/ccb5182f-f3af-4b4e-9f0f-262c58a340cb",
          "display": "Vicente Ferreira"
        },
        "asserter": {
          "reference": "Practitioner/e7057c48-5e69-45c5-bdfd-249424b7445a",
          "display": "Dr. Hel Ping"
        }
      }
    },
    {
      "fullUrl": "urn:uuid:ffc0f39f-6d35-4719-aa77-be1406a5f0b0",
      "resource": {
        "resourceType": "Condition",
        "id": "ffc0f39f-6d35-4719-aa77-be1406a5f0b0",
        "meta": {
          "profile": [
            "http://hl7.org/fhir/uv/ips/StructureDefinition/Condition-uv-ips"
          ]
        },
        "category": [
          {
            "coding": [
              {
                "code": "problem-list-item",
                "system": "http://terminology.hl7.org/CodeSystem/condition-category",
                "display": "Problem List Item"
              }
            ]
          }
        ],
        "code": {
          "coding": [
            {
              "code": "40055000",
              "system": "http://snomed.info/sct",
              "display": "Chronic sinusitis (disorder)"
            }
          ],
          "text": "Chronic sinusitis"
        },
        "onsetDateTime": "1990-05-12",
        "clinicalStatus": {
          "coding": [
            {
              "code": "active",
              "system": "http://terminology.hl7.org/CodeSystem/condition-clinical"
            }
          ]
        },
        "subject": {
          "reference": "Patient/ccb5182f-f3af-4b4e-9f0f-262c58a340cb",
          "display": "Vicente Ferreira"
        },
        "asserter": {
          "reference": "Practitioner/e7057c48-5e69-45c5-bdfd-249424b7445a",
          "display": "Dr. Hel Ping"
        }
      }
    },
    {
      "fullUrl": "urn:uuid:a21271ac-ae10-4a12-9598-710ec4e2eda4",
      "resource": {
        "resourceType": "Condition",
        "id": "a21271ac-ae10-4a12-9598-710ec4e2eda4",
        "meta": {
          "profile": [
            "http://hl7.org/fhir/uv/ips/StructureDefinition/Condition-uv-ips"
          ]
        },
        "category": [
          {
            "coding": [
              {
                "code": "problem-list-item",
                "system": "http://terminology.hl7.org/CodeSystem/condition-category",
                "display": "Problem List Item"
              }
            ]
          }
        ],
        "code": {
          "coding": [
            {
              "code": "271737000",
              "system": "http://snomed.info/sct",
              "display": "Anemia (disorder)"
            }
          ],
          "text": "Anemia"
        },
        "onsetDateTime": "1976-06-11",
        "clinicalStatus": {
          "coding": [
            {
              "code": "active",
              "system": "http://terminology.hl7.org/CodeSystem/condition-clinical"
            }
          ]
        },
        "subject": {
          "reference": "Patient/ccb5182f-f3af-4b4e-9f0f-262c58a340cb",
          "display": "Vicente Ferreira"
        },
        "asserter": {
          "reference": "Practitioner/e7057c48-5e69-45c5-bdfd-249424b7445a",
          "display": "Dr. Hel Ping"
        }
      }
    },
    {
      "fullUrl": "urn:uuid:930e39d3-8cbd-4a43-be5b-5956e32bc17f",
      "resource": {
        "resourceType": "Condition",
        "id": "930e39d3-8cbd-4a43-be5b-5956e32bc17f",
        "meta": {
          "profile": [
            "http://hl7.org/fhir/uv/ips/StructureDefinition/Condition-uv-ips"
          ]
        },
        "category": [
          {
            "coding": [
              {
                "code": "problem-list-item",
                "system": "http://terminology.hl7.org/CodeSystem/condition-category",
                "display": "Problem List Item"
              }
            ]
          }
        ],
        "code": {
          "coding": [
            {
              "code": "109570002",
              "system": "http://snomed.info/sct",
              "display": "Primary dental caries (disorder)"
            }
          ],
          "text": "Primary dental caries"
        },
        "onsetDateTime": "2024-09-27",
        "clinicalStatus": {
          "coding": [
            {
              "code": "inactive",
              "system": "http://terminology.hl7.org/CodeSystem/condition-clinical"
            }
          ]
        },
        "subject": {
          "reference": "Patient/ccb5182f-f3af-4b4e-9f0f-262c58a340cb",
          "display": "Vicente Ferreira"
        },
        "asserter": {
          "reference": "Practitioner/e7057c48-5e69-45c5-bdfd-249424b7445a",
          "display": "Dr. Hel Ping"
        }
      }
    },
    {
      "fullUrl": "urn:uuid:6e8c99aa-2198-4a11-aa31-f53bddb64c79",
      "resource": {
        "resourceType": "Condition",
        "id": "6e8c99aa-2198-4a11-aa31-f53bddb64c79",
        "meta": {
          "profile": [
            "http://hl7.org/fhir/uv/ips/StructureDefinition/Condition-uv-ips"
          ]
        },
        "category": [
          {
            "coding": [
              {
                "code": "problem-list-item",
                "system": "http://terminology.hl7.org/CodeSystem/condition-category",
                "display": "Problem List Item"
              }
            ]
          }
        ],
        "code": {
          "coding": [
            {
              "code": "66383009",
              "system": "http://snomed.info/sct",
              "display": "Gingivitis (disorder)"
            }
          ],
          "text": "Gingivitis"
        },
        "onsetDateTime": "2022-09-02",
        "clinicalStatus": {
          "coding": [
            {
              "code": "inactive",
              "system": "http://terminology.hl7.org/CodeSystem/condition-clinical"
            }
          ]
        },
        "subject": {
          "reference": "Patient/ccb5182f-f3af-4b4e-9f0f-262c58a340cb",
          "display": "Vicente Ferreira"
        },
        "asserter": {
          "reference": "Practitioner/e7057c48-5e69-45c5-bdfd-249424b7445a",
          "display": "Dr. Hel Ping"
        }
      }
    },
    {
      "fullUrl": "urn:uuid:3d4cd1de-820b-492b-81ca-ab3822397fb0",
      "resource": {
        "resourceType": "Condition",
        "id": "3d4cd1de-820b-492b-81ca-ab3822397fb0",
        "meta": {
          "profile": [
            "http://hl7.org/fhir/uv/ips/StructureDefinition/Condition-uv-ips"
          ]
        },
        "category": [
          {
            "coding": [
              {
                "code": "problem-list-item",
                "system": "http://terminology.hl7.org/CodeSystem/condition-category",
                "display": "Problem List Item"
              }
            ]
          }
        ],
        "code": {
          "coding": [
            {
              "code": "840539006",
              "system": "http://snomed.info/sct",
              "display": "Disease caused by severe acute respiratory syndrome coronavirus 2 (disorder)"
            }
          ],
          "text": "COVID-19"
        },
        "onsetDateTime": "2020-08-31",
        "clinicalStatus": {
          "coding": [
            {
              "code": "inactive",
              "system": "http://terminology.hl7.org/CodeSystem/condition-clinical"
            }
          ]
        },
        "subject": {
          "reference": "Patient/ccb5182f-f3af-4b4e-9f0f-262c58a340cb",
          "display": "Vicente Ferreira"
        },
        "asserter": {
          "reference": "Practitioner/e7057c48-5e69-45c5-bdfd-249424b7445a",
          "display": "Dr. Hel Ping"
        }
      }
    },
    {
      "fullUrl": "urn:uuid:8239920f-d016-409f-ac6e-53b9b32cfaa5",
      "resource": {
        "resourceType": "Condition",
        "id": "8239920f-d016-409f-ac6e-53b9b32cfaa5",
        "meta": {
          "profile": [
            "http://hl7.org/fhir/uv/ips/StructureDefinition/Condition-uv-ips"
          ]
        },
        "category": [
          {
            "coding": [
              {
                "code": "problem-list-item",
                "system": "http://terminology.hl7.org/CodeSystem/condition-category",
                "display": "Problem List Item"
              }
            ]
          }
        ],
        "code": {
          "coding": [
            {
              "code": "66383009",
              "system": "http://snomed.info/sct",
              "display": "Gingivitis (disorder)"
            }
          ],
          "text": "Gingivitis"
        },
        "onsetDateTime": "2020-08-21",
        "clinicalStatus": {
          "coding": [
            {
              "code": "inactive",
              "system": "http://terminology.hl7.org/CodeSystem/condition-clinical"
            }
          ]
        },
        "subject": {
          "reference": "Patient/ccb5182f-f3af-4b4e-9f0f-262c58a340cb",
          "display": "Vicente Ferreira"
        },
        "asserter": {
          "reference": "Practitioner/e7057c48-5e69-45c5-bdfd-249424b7445a",
          "display": "Dr. Hel Ping"
        }
      }
    },
    {
      "fullUrl": "urn:uuid:ae51badd-acff-412a-bfbf-149e0a092771",
      "resource": {
        "resourceType": "Condition",
        "id": "ae51badd-acff-412a-bfbf-149e0a092771",
        "meta": {
          "profile": [
            "http://hl7.org/fhir/uv/ips/StructureDefinition/Condition-uv-ips"
          ]
        },
        "category": [
          {
            "coding": [
              {
                "code": "problem-list-item",
                "system": "http://terminology.hl7.org/CodeSystem/condition-category",
                "display": "Problem List Item"
              }
            ]
          }
        ],
        "code": {
          "coding": [
            {
              "code": "444814009",
              "system": "http://snomed.info/sct",
              "display": "Viral sinusitis (disorder)"
            }
          ],
          "text": "Viral sinusitis"
        },
        "onsetDateTime": "2015-07-07",
        "clinicalStatus": {
          "coding": [
            {
              "code": "inactive",
              "system": "http://terminology.hl7.org/CodeSystem/condition-clinical"
            }
          ]
        },
        "subject": {
          "reference": "Patient/ccb5182f-f3af-4b4e-9f0f-262c58a340cb",
          "display": "Vicente Ferreira"
        },
        "asserter": {
          "reference": "Practitioner/e7057c48-5e69-45c5-bdfd-249424b7445a",
          "display": "Dr. Hel Ping"
        }
      }
    },
    {
      "fullUrl": "urn:uuid:242dde48-77a1-4772-9ecd-341f2c9fe815",
      "resource": {
        "resourceType": "Medication",
        "id": "242dde48-77a1-4772-9ecd-341f2c9fe815",
        "meta": {
          "profile": [
            "http://hl7.org/fhir/uv/ips/StructureDefinition/Medication-uv-ips"
          ]
        },
        "code": {
          "coding": [
            {
              "code": "314231",
              "system": "http://www.nlm.nih.gov/research/umls/rxnorm",
              "display": "simvastatin 10 MG Oral Tablet"
            },
            {
              "code": "319996000",
              "system": "http://snomed.info/sct",
              "display": "Product containing precisely simvastatin 10 milligram/1 each conventional release oral tablet (clinical drug)"
            }
          ],
          "text": "Simvastatin 10 mg oral tablet"
        },
        "form": {
          "coding": [
            {
              "code": "421026006",
              "system": "http://snomed.info/sct",
              "display": "Oral tablet"
            }
          ]
        },
        "ingredient": [
          {
            "itemCodeableConcept": {
              "coding": [
                {
                  "code": "387584000",
                  "system": "http://snomed.info/sct",
                  "display": "Simvastatin"
                }
              ]
            },
            "isActive": true
          }
        ]
      }
    },
    {
      "fullUrl": "urn:uuid:1ac94763-cc6c-4415-be65-b7f9fe3184d8",
      "resource": {
        "resourceType": "MedicationStatement",
        "id": "1ac94763-cc6c-4415-be65-b7f9fe3184d8",
        "meta": {
          "profile": [
            "http://hl7.org/fhir/uv/ips/StructureDefinition/MedicationStatement-uv-ips"
          ]
        },
        "effectivePeriod": {
          "start": "2024-09-14"
        },
        "dosage": [
          {
            "doseAndRate": [
              {
                "doseQuantity": {
                  "value": 1,
                  "unit": "{tbl}",
                  "code": "{tbl}"
                }
              }
            ],
            "timing": {
              "repeat": {
                "frequency": 1,
                "period": 1,
                "periodUnit": "d"
              }
            },
            "text": "1 tablet (10 mg) by mouth once daily",
            "asNeededBoolean": false
          }
        ],
        "reasonCode": [
          {
            "coding": [
              {
                "code": "55822004",
                "system": "http://snomed.info/sct",
                "display": "Hyperlipidemia (disorder)"
              }
            ]
          }
        ],
        "status": "active",
        "medicationReference": {
          "reference": "Medication/242dde48-77a1-4772-9ecd-341f2c9fe815",
          "display": "Simvastatin 10 mg oral tablet"
        },
        "subject": {
          "reference": "Patient/ccb5182f-f3af-4b4e-9f0f-262c58a340cb",
          "display": "Vicente Ferreira"
        }
      }
    },
    {
      "fullUrl": "urn:uuid:26115465-e085-46df-8543-3de13d23c54b",
      "resource": {
        "resourceType": "Medication",
        "id": "26115465-e085-46df-8543-3de13d23c54b",
        "meta": {
          "profile": [
            "http://hl7.org/fhir/uv/ips/StructureDefinition/Medication-uv-ips"
          ]
        },
        "code": {
          "coding": [
            {
              "code": "308136",
              "system": "http://www.nlm.nih.gov/research/umls/rxnorm",
              "display": "amlodipine 2.5 MG Oral Tablet"
            },
            {
              "code": "1153431000",
              "system": "http://snomed.info/sct",
              "display": "Product containing precisely amlodipine (as amlodipine besilate) 2.5 milligram/1 each conventional release oral tablet (clinical drug)"
            }
          ],
          "text": "Amlodipine (as amlodipine besylate) 2.5 mg oral tablet"
        },
        "form": {
          "coding": [
            {
              "code": "421026006",
              "system": "http://snomed.info/sct",
              "display": "Oral tablet"
            }
          ]
        },
        "ingredient": [
          {
            "itemCodeableConcept": {
              "coding": [
                {
                  "code": "384976003",
                  "system": "http://snomed.info/sct",
                  "display": "Amlodipine besylate"
                }
              ]
            },
            "isActive": true
          }
        ]
      }
    },
    {
      "fullUrl": "urn:uuid:9e64ed67-f8b7-4b46-ab26-b847e84fcdfd",
      "resource": {
        "resourceType": "MedicationStatement",
        "id": "9e64ed67-f8b7-4b46-ab26-b847e84fcdfd",
        "meta": {
          "profile": [
            "http://hl7.org/fhir/uv/ips/StructureDefinition/MedicationStatement-uv-ips"
          ]
        },
        "effectivePeriod": {
          "start": "2024-09-13"
        },
        "dosage": [
          {
            "doseAndRate": [
              {
                "doseQuantity": {
                  "value": 1,
                  "unit": "{tbl}",
                  "code": "{tbl}"
                }
              }
            ],
            "timing": {
              "repeat": {
                "frequency": 1,
                "period": 1,
                "periodUnit": "d"
              }
            },
            "text": "1 tablet (2.5 mg) by mouth once daily",
            "asNeededBoolean": false
          }
        ],
        "reasonCode": [
          {
            "coding": [
              {
                "code": "59621000",
                "system": "http://snomed.info/sct",
                "display": "Essential hypertension (disorder)"
              }
            ]
          }
        ],
        "status": "active",
        "medicationReference": {
          "reference": "Medication/26115465-e085-46df-8543-3de13d23c54b",
          "display": "Amlodipine (as amlodipine besylate) 2.5 mg oral tablet"
        },
        "subject": {
          "reference": "Patient/ccb5182f-f3af-4b4e-9f0f-262c58a340cb",
          "display": "Vicente Ferreira"
        }
      }
    },
    {
      "fullUrl": "urn:uuid:c11f349a-b78f-499b-a60e-7d74c34809ed",
      "resource": {
        "resourceType": "Medication",
        "id": "c11f349a-b78f-499b-a60e-7d74c34809ed",
        "meta": {
          "profile": [
            "http://hl7.org/fhir/uv/ips/StructureDefinition/Medication-uv-ips"
          ]
        },
        "code": {
          "coding": [
            {
              "code": "310798",
              "system": "http://www.nlm.nih.gov/research/umls/rxnorm",
              "display": "hydrochlorothiazide 25 MG Oral Tablet"
            },
            {
              "code": "376209006",
              "system": "http://snomed.info/sct",
              "display": "Product containing precisely hydrochlorothiazide 25 milligram/1 each conventional release oral tablet (clinical drug)"
            }
          ],
          "text": "Hydrochlorothiazide 25 mg oral tablet"
        },
        "form": {
          "coding": [
            {
              "code": "421026006",
              "system": "http://snomed.info/sct",
              "display": "Oral tablet"
            }
          ]
        },
        "ingredient": [
          {
            "itemCodeableConcept": {
              "coding": [
                {
                  "code": "387525002",
                  "system": "http://snomed.info/sct",
                  "display": "Hydrochlorothiazide"
                }
              ]
            },
            "isActive": true
          }
        ]
      }
    },
    {
      "fullUrl": "urn:uuid:65cfea73-185f-4b15-884e-53b8e2b8a8bc",
      "resource": {
        "resourceType": "MedicationStatement",
        "id": "65cfea73-185f-4b15-884e-53b8e2b8a8bc",
        "meta": {
          "profile": [
            "http://hl7.org/fhir/uv/ips/StructureDefinition/MedicationStatement-uv-ips"
          ]
        },
        "effectivePeriod": {
          "start": "2024-09-13"
        },
        "dosage": [
          {
            "doseAndRate": [
              {
                "doseQuantity": {
                  "value": 1,
                  "unit": "{tbl}",
                  "code": "{tbl}"
                }
              }
            ],
            "timing": {
              "repeat": {
                "frequency": 1,
                "period": 1,
                "periodUnit": "d"
              }
            },
            "text": "1 tablet (25 mg) by mouth once daily",
            "asNeededBoolean": false
          }
        ],
        "reasonCode": [
          {
            "coding": [
              {
                "code": "59621000",
                "system": "http://snomed.info/sct",
                "display": "Essential hypertension (disorder)"
              }
            ]
          }
        ],
        "status": "active",
        "medicationReference": {
          "reference": "Medication/c11f349a-b78f-499b-a60e-7d74c34809ed",
          "display": "Hydrochlorothiazide 25 mg oral tablet"
        },
        "subject": {
          "reference": "Patient/ccb5182f-f3af-4b4e-9f0f-262c58a340cb",
          "display": "Vicente Ferreira"
        }
      }
    },
    {
      "fullUrl": "urn:uuid:93102cfe-c442-4f04-bdd0-0c7dcac79a85",
      "resource": {
        "resourceType": "Medication",
        "id": "93102cfe-c442-4f04-bdd0-0c7dcac79a85",
        "meta": {
          "profile": [
            "http://hl7.org/fhir/uv/ips/StructureDefinition/Medication-uv-ips"
          ]
        },
        "code": {
          "coding": [
            {
              "code": "200031",
              "system": "http://www.nlm.nih.gov/research/umls/rxnorm",
              "display": "carvedilol 6.25 MG Oral Tablet"
            },
            {
              "code": "318635007",
              "system": "http://snomed.info/sct",
              "display": "Product containing precisely carvedilol 6.25 milligram/1 each conventional release oral tablet (clinical drug)"
            }
          ],
          "text": "Carvedilol 6.25 mg oral tablet"
        },
        "form": {
          "coding": [
            {
              "code": "421026006",
              "system": "http://snomed.info/sct",
              "display": "Oral tablet"
            }
          ]
        },
        "ingredient": [
          {
            "itemCodeableConcept": {
              "coding": [
                {
                  "code": "386870007",
                  "system": "http://snomed.info/sct",
                  "display": "Carvedilol"
                }
              ]
            },
            "isActive": true
          }
        ]
      }
    },
    {
      "fullUrl": "urn:uuid:5ca13bcf-a020-4431-ad7d-662c65aff09c",
      "resource": {
        "resourceType": "MedicationStatement",
        "id": "5ca13bcf-a020-4431-ad7d-662c65aff09c",
        "meta": {
          "profile": [
            "http://hl7.org/fhir/uv/ips/StructureDefinition/MedicationStatement-uv-ips"
          ]
        },
        "effectivePeriod": {
          "start": "2015-02-21"
        },
        "dosage": [
          {
            "doseAndRate": [
              {
                "doseQuantity": {
                  "value": 1,
                  "unit": "{tbl}",
                  "code": "{tbl}"
                }
              }
            ],
            "timing": {
              "repeat": {
                "frequency": 2,
                "period": 1,
                "periodUnit": "d"
              }
            },
            "text": "1 tablet (6.25 mg) by mouth twice daily",
            "asNeededBoolean": false
          }
        ],
        "status": "active",
        "medicationReference": {
          "reference": "Medication/93102cfe-c442-4f04-bdd0-0c7dcac79a85",
          "display": "Carvedilol 6.25 mg oral tablet"
        },
        "subject": {
          "reference": "Patient/ccb5182f-f3af-4b4e-9f0f-262c58a340cb",
          "display": "Vicente Ferreira"
        }
      }
    },
    {
      "fullUrl": "urn:uuid:16f71dba-71d7-4495-9fcd-aa4d3f79d5a8",
      "resource": {
        "resourceType": "Medication",
        "id": "16f71dba-71d7-4495-9fcd-aa4d3f79d5a8",
        "meta": {
          "profile": [
            "http://hl7.org/fhir/uv/ips/StructureDefinition/Medication-uv-ips"
          ]
        },
        "code": {
          "coding": [
            {
              "code": "243670",
              "system": "http://www.nlm.nih.gov/research/umls/rxnorm",
              "display": "aspirin 81 MG Oral Tablet"
            }
          ],
          "text": "aspirin 81 MG Oral Tablet"
        }
      }
    },
    {
      "fullUrl": "urn:uuid:6163bed4-a46c-4de2-b57d-33ae0e5b68a5",
      "resource": {
        "resourceType": "MedicationStatement",
        "id": "6163bed4-a46c-4de2-b57d-33ae0e5b68a5",
        "meta": {
          "profile": [
            "http://hl7.org/fhir/uv/ips/StructureDefinition/MedicationStatement-uv-ips"
          ]
        },
        "effectivePeriod": {
          "start": "2015-02-21"
        },
        "dosage": [
          {
            "doseAndRate": [
              {
                "doseQuantity": {
                  "value": 1,
                  "unit": "{tbl}",
                  "code": "{tbl}"
                }
              }
            ],
            "timing": {
              "repeat": {
                "frequency": 1,
                "period": 1,
                "periodUnit": "d"
              }
            },
            "text": "1 tablet (81 mg) by mouth once daily",
            "asNeededBoolean": false
          }
        ],
        "status": "active",
        "medicationReference": {
          "reference": "Medication/16f71dba-71d7-4495-9fcd-aa4d3f79d5a8",
          "display": "aspirin 81 MG Oral Tablet"
        },
        "subject": {
          "reference": "Patient/ccb5182f-f3af-4b4e-9f0f-262c58a340cb",
          "display": "Vicente Ferreira"
        }
      }
    },
    {
      "fullUrl": "urn:uuid:bcfce3bc-86f1-458d-87e1-13766fe6a293",
      "resource": {
        "resourceType": "Medication",
        "id": "bcfce3bc-86f1-458d-87e1-13766fe6a293",
        "meta": {
          "profile": [
            "http://hl7.org/fhir/uv/ips/StructureDefinition/Medication-uv-ips"
          ]
        },
        "code": {
          "coding": [
            {
              "code": "617311",
              "system": "http://www.nlm.nih.gov/research/umls/rxnorm",
              "display": "atorvastatin 40 MG Oral Tablet"
            },
            {
              "code": "1145421000",
              "system": "http://snomed.info/sct",
              "display": "Product containing precisely atorvastatin (as atorvastatin calcium) 40 milligram/1 each conventional release oral tablet (clinical drug)"
            }
          ],
          "text": "Atorvastatin (as atorvastatin calcium) 40 mg oral tablet"
        },
        "form": {
          "coding": [
            {
              "code": "421026006",
              "system": "http://snomed.info/sct",
              "display": "Oral tablet"
            }
          ]
        },
        "ingredient": [
          {
            "itemCodeableConcept": {
              "coding": [
                {
                  "code": "108601004",
                  "system": "http://snomed.info/sct",
                  "display": "Atorvastatin calcium"
                }
              ]
            },
            "isActive": true
          }
        ]
      }
    },
    {
      "fullUrl": "urn:uuid:062da706-6f49-4418-8f46-86faf68c0140",
      "resource": {
        "resourceType": "MedicationStatement",
        "id": "062da706-6f49-4418-8f46-86faf68c0140",
        "meta": {
          "profile": [
            "http://hl7.org/fhir/uv/ips/StructureDefinition/MedicationStatement-uv-ips"
          ]
        },
        "effectivePeriod": {
          "start": "2015-02-21"
        },
        "dosage": [
          {
            "doseAndRate": [
              {
                "doseQuantity": {
                  "value": 1,
                  "unit": "{tbl}",
                  "code": "{tbl}"
                }
              }
            ],
            "timing": {
              "repeat": {
                "frequency": 1,
                "period": 1,
                "periodUnit": "d"
              }
            },
            "text": "1 tablet (40 mg) by mouth once daily",
            "asNeededBoolean": false
          }
        ],
        "status": "active",
        "medicationReference": {
          "reference": "Medication/bcfce3bc-86f1-458d-87e1-13766fe6a293",
          "display": "Atorvastatin (as atorvastatin calcium) 40 mg oral tablet"
        },
        "subject": {
          "reference": "Patient/ccb5182f-f3af-4b4e-9f0f-262c58a340cb",
          "display": "Vicente Ferreira"
        }
      }
    },
    {
      "fullUrl": "urn:uuid:4422a9aa-e196-4dfc-9987-10b39a221acc",
      "resource": {
        "resourceType": "Medication",
        "id": "4422a9aa-e196-4dfc-9987-10b39a221acc",
        "meta": {
          "profile": [
            "http://hl7.org/fhir/uv/ips/StructureDefinition/Medication-uv-ips"
          ]
        },
        "code": {
          "coding": [
            {
              "code": "858817",
              "system": "http://www.nlm.nih.gov/research/umls/rxnorm",
              "display": "enalapril maleate 10 MG Oral Tablet"
            },
            {
              "code": "318853004",
              "system": "http://snomed.info/sct",
              "display": "Product containing precisely enalapril maleate 10 milligram/1 each conventional release oral tablet (clinical drug)"
            }
          ],
          "text": "Enalapril maleate 10 mg oral tablet"
        },
        "form": {
          "coding": [
            {
              "code": "421026006",
              "system": "http://snomed.info/sct",
              "display": "Oral tablet"
            }
          ]
        },
        "ingredient": [
          {
            "itemCodeableConcept": {
              "coding": [
                {
                  "code": "387165009",
                  "system": "http://snomed.info/sct",
                  "display": "Enalapril maleate"
                }
              ]
            },
            "isActive": true
          }
        ]
      }
    },
    {
      "fullUrl": "urn:uuid:e54baa9e-2f88-428c-8ba8-1cad14edc6db",
      "resource": {
        "resourceType": "MedicationStatement",
        "id": "e54baa9e-2f88-428c-8ba8-1cad14edc6db",
        "meta": {
          "profile": [
            "http://hl7.org/fhir/uv/ips/StructureDefinition/MedicationStatement-uv-ips"
          ]
        },
        "effectivePeriod": {
          "start": "2015-02-21"
        },
        "dosage": [
          {
            "doseAndRate": [
              {
                "doseQuantity": {
                  "value": 1,
                  "unit": "{tbl}",
                  "code": "{tbl}"
                }
              }
            ],
            "timing": {
              "repeat": {
                "frequency": 1,
                "period": 1,
                "periodUnit": "d"
              }
            },
            "text": "1 tablet (10 mg) by mouth once daily",
            "asNeededBoolean": false
          }
        ],
        "status": "active",
        "medicationReference": {
          "reference": "Medication/4422a9aa-e196-4dfc-9987-10b39a221acc",
          "display": "Enalapril maleate 10 mg oral tablet"
        },
        "subject": {
          "reference": "Patient/ccb5182f-f3af-4b4e-9f0f-262c58a340cb",
          "display": "Vicente Ferreira"
        }
      }
    },
    {
      "fullUrl": "urn:uuid:fc336360-721a-45df-a2f5-760401b5a2bf",
      "resource": {
        "resourceType": "Medication",
        "id": "fc336360-721a-45df-a2f5-760401b5a2bf",
        "meta": {
          "profile": [
            "http://hl7.org/fhir/uv/ips/StructureDefinition/Medication-uv-ips"
          ]
        },
        "code": {
          "coding": [
            {
              "code": "2001499",
              "system": "http://www.nlm.nih.gov/research/umls/rxnorm",
              "display": "Vitamin B12 5 MG/ML Injectable Solution"
            }
          ],
          "text": "Vitamin B12 5 MG/ML Injectable Solution"
        }
      }
    },
    {
      "fullUrl": "urn:uuid:71feae84-e67d-4d0a-81a5-3ca49c4f74ae",
      "resource": {
        "resourceType": "MedicationStatement",
        "id": "71feae84-e67d-4d0a-81a5-3ca49c4f74ae",
        "meta": {
          "profile": [
            "http://hl7.org/fhir/uv/ips/StructureDefinition/MedicationStatement-uv-ips"
          ]
        },
        "effectivePeriod": {
          "start": "1976-06-18"
        },
        "dosage": [
          {
            "doseAndRate": [
              {
                "doseQuantity": {
                  "value": 5,
                  "unit": "mg",
                  "code": "mg"
                }
              }
            ],
            "timing": {
              "repeat": {
                "frequency": 1,
                "period": 1,
                "periodUnit": "mo"
              }
            },
            "text": "5 mg (1 mL) intramuscularly once monthly",
            "asNeededBoolean": false
          }
        ],
        "status": "active",
        "medicationReference": {
          "reference": "Medication/fc336360-721a-45df-a2f5-760401b5a2bf",
          "display": "Vitamin B12 5 MG/ML Injectable Solution"
        },
        "subject": {
          "reference": "Patient/ccb5182f-f3af-4b4e-9f0f-262c58a340cb",
          "display": "Vicente Ferreira"
        }
      }
    },
    {
      "fullUrl": "urn:uuid:cde2f408-6f8d-4f8a-a8c4-8fa5ef59cf22",
      "resource": {
        "resourceType": "Medication",
        "id": "cde2f408-6f8d-4f8a-a8c4-8fa5ef59cf22",
        "meta": {
          "profile": [
            "http://hl7.org/fhir/uv/ips/StructureDefinition/Medication-uv-ips"
          ]
        },
        "code": {
          "coding": [
            {
              "code": "106258",
              "system": "http://www.nlm.nih.gov/research/umls/rxnorm",
              "display": "hydrocortisone 10 MG/ML Topical Cream"
            },
            {
              "code": "331722005",
              "system": "http://snomed.info/sct",
              "display": "Product containing precisely hydrocortisone 10 milligram/1 gram and urea 100 milligram/1 gram conventional release cutaneous cream (clinical drug)"
            }
          ],
          "text": "Hydrocortisone 10 mg/g and urea 100 mg/g cutaneous cream"
        },
        "form": {
          "coding": [
            {
              "code": "421628006",
              "system": "http://snomed.info/sct",
              "display": "Cutaneous cream"
            }
          ]
        },
        "ingredient": [
          {
            "itemCodeableConcept": {
              "coding": [
                {
                  "code": "387092000",
                  "system": "http://snomed.info/sct",
                  "display": "Urea"
                }
              ]
            },
            "isActive": true
          }
        ]
      }
    },
    {
      "fullUrl": "urn:uuid:40d23087-8187-4f56-998d-3518bec05dce",
      "resource": {
        "resourceType": "MedicationStatement",
        "id": "40d23087-8187-4f56-998d-3518bec05dce",
        "meta": {
          "profile": [
            "http://hl7.org/fhir/uv/ips/StructureDefinition/MedicationStatement-uv-ips"
          ]
        },
        "effectivePeriod": {
          "start": "1965-06-20"
        },
        "dosage": [
          {
            "doseAndRate": [
              {
                "doseQuantity": {
                  "value": 1,
                  "unit": "application",
                  "code": "415818006"
                }
              }
            ],
            "timing": {
              "repeat": {
                "frequency": 2,
                "period": 1,
                "periodUnit": "d"
              }
            },
            "text": "Apply a thin layer (containing 10 mg/g hydrocortisone and 100 mg/g urea) to the affected area twice daily",
            "asNeededBoolean": false
          }
        ],
        "reasonCode": [
          {
            "coding": [
              {
                "code": "40275004",
                "system": "http://snomed.info/sct",
                "display": "Contact dermatitis (disorder)"
              }
            ]
          }
        ],
        "status": "active",
        "medicationReference": {
          "reference": "Medication/cde2f408-6f8d-4f8a-a8c4-8fa5ef59cf22",
          "display": "Hydrocortisone 10 mg/g and urea 100 mg/g cutaneous cream"
        },
        "subject": {
          "reference": "Patient/ccb5182f-f3af-4b4e-9f0f-262c58a340cb",
          "display": "Vicente Ferreira"
        }
      }
    },
    {
      "fullUrl": "urn:uuid:df0041ff-d7d2-4736-8ed5-b5ed27c0e341",
      "resource": {
        "resourceType": "AllergyIntolerance",
        "id": "df0041ff-d7d2-4736-8ed5-b5ed27c0e341",
        "meta": {
          "profile": [
            "http://hl7.eu/fhir/eps/StructureDefinition/allergyIntolerance-eu-eps"
          ]
        },
        "code": {
          "coding": [
            {
              "code": "609328004",
              "system": "http://snomed.info/sct",
              "display": "Allergic disposition (finding)"
            }
          ],
          "text": "Allergic disposition"
        },
        "category": [
          "environment"
        ],
        "verificationStatus": {
          "coding": [
            {
              "code": "confirmed"
            }
          ]
        },
        "type": "allergy",
        "onsetDateTime": "1965-07-03",
        "clinicalStatus": {
          "coding": [
            {
              "code": "active"
            }
          ]
        },
        "patient": {
          "reference": "Patient/ccb5182f-f3af-4b4e-9f0f-262c58a340cb",
          "display": "Vicente Ferreira"
        }
      }
    },
    {
      "fullUrl": "urn:uuid:cfab134d-0080-4a99-bee6-8a1f9fbff0e2",
      "resource": {
        "resourceType": "Procedure",
        "id": "cfab134d-0080-4a99-bee6-8a1f9fbff0e2",
        "meta": {
          "profile": [
            "http://hl7.org/fhir/uv/ips/StructureDefinition/Procedure-uv-ips"
          ]
        },
        "code": {
          "coding": [
            {
              "code": "417511005",
              "system": "http://snomed.info/sct",
              "display": "Referral to home health care service (procedure)"
            }
          ],
          "text": "Referral to home health care service"
        },
        "status": "completed",
        "subject": {
          "reference": "Patient/ccb5182f-f3af-4b4e-9f0f-262c58a340cb",
          "display": "Vicente Ferreira"
        },
        "performedDateTime": "2018-04-06"
      }
    },
    {
      "fullUrl": "urn:uuid:0b80d7bf-ceae-46ed-abe0-5a6d318a457e",
      "resource": {
        "resourceType": "Immunization",
        "id": "0b80d7bf-ceae-46ed-abe0-5a6d318a457e",
        "meta": {
          "profile": [
            "http://hl7.org/fhir/uv/ips/StructureDefinition/Immunization-uv-ips"
          ]
        },
        "vaccineCode": {
          "coding": [
            {
              "code": "1181000221105",
              "system": "http://snomed.info/sct",
              "display": "Vaccine product containing Influenza virus antigen"
            },
            {
              "code": "J07BB02",
              "system": "http://www.whocc.no/atc",
              "display": "Influenza, inactivated, split virus"
            },
            {
              "code": "140",
              "system": "http://hl7.org/fhir/sid/cvx",
              "display": "Influenza  seasonal  injectable  preservative free"
            }
          ],
          "text": "Influenza virus antigen only vaccine product"
        },
        "site": {
          "coding": [
            {
              "code": "73776007",
              "system": "http://snomed.info/sct",
              "display": "Structure of muscle of upper arm"
            }
          ],
          "text": "Structure of muscle of upper arm"
        },
        "route": {
          "coding": [
            {
              "code": "78421000",
              "system": "http://snomed.info/sct",
              "display": "Intramuscular route"
            }
          ],
          "text": "Intramuscular route"
        },
        "status": "completed",
        "patient": {
          "reference": "Patient/ccb5182f-f3af-4b4e-9f0f-262c58a340cb",
          "display": "Vicente Ferreira"
        },
        "occurrenceDateTime": "2024-09-13",
        "lotNumber": "EW-qK3sGUm",
        "expirationDate": "2025-03-12"
      }
    },
    {
      "fullUrl": "urn:uuid:cd8681ae-67f9-413d-9dde-0d89746dca6d",
      "resource": {
        "resourceType": "Immunization",
        "id": "cd8681ae-67f9-413d-9dde-0d89746dca6d",
        "meta": {
          "profile": [
            "http://hl7.org/fhir/uv/ips/StructureDefinition/Immunization-uv-ips"
          ]
        },
        "vaccineCode": {
          "coding": [
            {
              "code": "1119349007",
              "system": "http://snomed.info/sct",
              "display": "Vaccine product containing SARS-CoV-2 mRNA"
            },
            {
              "code": "J07BX03",
              "system": "http://www.whocc.no/atc",
              "display": "COVID-19 mRNA vaccines"
            },
            {
              "code": "208",
              "system": "http://hl7.org/fhir/sid/cvx",
              "display": "COVID-19  mRNA  LNP-S  PF  30 mcg/0.3 mL dose"
            }
          ],
          "text": "SARS-CoV-2 mRNA vaccine"
        },
        "site": {
          "coding": [
            {
              "code": "73776007",
              "system": "http://snomed.info/sct",
              "display": "Structure of muscle of upper arm"
            }
          ],
          "text": "Structure of muscle of upper arm"
        },
        "route": {
          "coding": [
            {
              "code": "78421000",
              "system": "http://snomed.info/sct",
              "display": "Intramuscular route"
            }
          ],
          "text": "Intramuscular route"
        },
        "status": "completed",
        "patient": {
          "reference": "Patient/ccb5182f-f3af-4b4e-9f0f-262c58a340cb",
          "display": "Vicente Ferreira"
        },
        "occurrenceDateTime": "2021-04-23",
        "lotNumber": "DU-bzac",
        "expirationDate": "2021-06-26"
      }
    },
    {
      "fullUrl": "urn:uuid:1e57ee53-78ef-4441-bb00-ce6a3d4e8fa6",
      "resource": {
        "resourceType": "Immunization",
        "id": "1e57ee53-78ef-4441-bb00-ce6a3d4e8fa6",
        "meta": {
          "profile": [
            "http://hl7.org/fhir/uv/ips/StructureDefinition/Immunization-uv-ips"
          ]
        },
        "vaccineCode": {
          "coding": [
            {
              "code": "777725002",
              "system": "http://snomed.info/sct",
              "display": "Vaccine product containing only Clostridium tetani toxoid antigen adsorbed"
            },
            {
              "code": "J07AM51",
              "system": "http://www.whocc.no/atc",
              "display": "Diphtheria-tetanus vaccines, adult type"
            },
            {
              "code": "113",
              "system": "http://hl7.org/fhir/sid/cvx",
              "display": "Td (adult)  5 Lf tetanus toxoid  preservative free  adsorbed"
            }
          ],
          "text": "Clostridium tetani toxoid antigen adsorbed only vaccine product"
        },
        "site": {
          "coding": [
            {
              "code": "73776007",
              "system": "http://snomed.info/sct",
              "display": "Structure of muscle of upper arm"
            }
          ],
          "text": "Structure of muscle of upper arm"
        },
        "route": {
          "coding": [
            {
              "code": "78421000",
              "system": "http://snomed.info/sct",
              "display": "Intramuscular route"
            }
          ],
          "text": "Intramuscular route"
        },
        "status": "completed",
        "patient": {
          "reference": "Patient/ccb5182f-f3af-4b4e-9f0f-262c58a340cb",
          "display": "Vicente Ferreira"
        },
        "occurrenceDateTime": "2016-07-29",
        "lotNumber": "BF-47sTWO19U",
        "expirationDate": "2017-01-27"
      }
    }
  ],
  "type": "document",
  "timestamp": "2025-06-17T11:26:49Z"
}
