{
  "resourceType": "Bundle",
  "id": "Instance-Bundle-f6c58607-494d-47cd-848f-5d2445526ebd",
  "meta": {
    "profile": [
      "http://hl7.eu/fhir/eps/StructureDefinition/bundle-eu-eps"
    ]
  },
  "identifier": {
    "assigner": {
      "display": "HL7 Europe"
    },
    "system": "urn:oid:2.16.840.1.113883.2.51.999",
    "value": "ffe594e7-5dc1-463a-9c0e-d859bfc42a0d"
  },
  "entry": [
    {
      "fullUrl": "urn:uuid:302914da-03e6-4bba-956b-df2239de5162",
      "resource": {
        "resourceType": "Composition",
        "id": "302914da-03e6-4bba-956b-df2239de5162",
        "meta": {
          "profile": [
            "http://hl7.eu/fhir/eps/StructureDefinition/composition-eu-eps"
          ]
        },
        "identifier": {
          "assigner": {
            "display": "HL7 Europe"
          },
          "system": "urn:oid:2.16.840.1.113883.2.51.999",
          "value": "de0e664d-fb4f-471c-b2c8-d96f421963ab"
        },
        "type": {
          "coding": [
            {
              "system": "http://loinc.org",
              "code": "60591-5",
              "display": "European Patient Summary"
            }
          ],
          "text": "European Patient Summary"
        },
        "author": [
          {
            "reference": "urn:uuid:888f2721-358e-41be-9b1a-975282a2152a"
          }
        ],
        "section": [
          {
            "text": {
              "status": "generated",
              "div": "<div xmlns=\"http://www.w3.org/1999/xhtml\"><table class=\"hl7__ips\"><tr><td>Acute ST segment elevation myocardial infarction</td><td>2015-02-21</td><td>active</td></tr><tr><td>Ischemic heart disease</td><td>2014-07-18</td><td>active</td></tr><tr><td>Metabolic syndrome X</td><td>2005-05-27</td><td>active</td></tr><tr><td>Hypertriglyceridemia</td><td>2005-05-27</td><td>active</td></tr><tr><td>Neuropathy due to type 2 diabetes mellitus</td><td>2005-05-27</td><td>active</td></tr><tr><td>Type 2 diabetes mellitus</td><td>2004-05-21</td><td>active</td></tr><tr><td>Essential hypertension</td><td>2001-05-04</td><td>active</td></tr><tr><td>Hyperlipidemia</td><td>1991-04-19</td><td>active</td></tr><tr><td>Chronic sinusitis</td><td>1990-05-12</td><td>active</td></tr><tr><td>Anemia</td><td>1976-06-11</td><td>active</td></tr><tr><td>Primary dental caries</td><td>2024-09-27</td><td>inactive</td></tr><tr><td>Gingivitis</td><td>2022-09-02</td><td>inactive</td></tr><tr><td>COVID-19</td><td>2020-08-31</td><td>inactive</td></tr><tr><td>Gingivitis</td><td>2020-08-21</td><td>inactive</td></tr><tr><td>Viral sinusitis</td><td>2015-07-07</td><td>inactive</td></tr></table></div>"
            },
            "entry": [
              {
                "reference": "urn:uuid:5222aff6-253f-486d-9738-481b112f0f5f"
              },
              {
                "reference": "urn:uuid:0b2bc92d-0275-4b8d-9562-0f3c8f664e30"
              },
              {
                "reference": "urn:uuid:0a5cf8fb-bcad-4ee6-a003-0e6a28ad45d9"
              },
              {
                "reference": "urn:uuid:a688ff0b-6192-4ab8-beaa-e82bf427fed4"
              },
              {
                "reference": "urn:uuid:cb585a67-6927-4d20-97ab-12a051e0eaca"
              },
              {
                "reference": "urn:uuid:4eaefc8d-c20d-41ae-85d9-670cd0e014a1"
              },
              {
                "reference": "urn:uuid:9a55dec0-0183-4a4a-8a20-e6152355bfd8"
              },
              {
                "reference": "urn:uuid:711ffbee-e6fe-48ff-89ed-f7e181993181"
              },
              {
                "reference": "urn:uuid:5f2c528d-623c-4f32-bf6a-351e54d0ae98"
              },
              {
                "reference": "urn:uuid:ff28acca-bcec-45af-afc2-b204ece2c0c2"
              },
              {
                "reference": "urn:uuid:fd184127-4a85-430a-842c-e5b1add8d6f6"
              },
              {
                "reference": "urn:uuid:be20a612-a1ff-4cc8-bb27-756cccfab3ac"
              },
              {
                "reference": "urn:uuid:7e59a0a2-0ebd-4c2d-9aa1-673b486ca5b6"
              },
              {
                "reference": "urn:uuid:b4087276-c05c-4fac-a0d0-7b417c50e6de"
              },
              {
                "reference": "urn:uuid:edf66cbc-1e13-4807-993f-bec3da9383db"
              }
            ],
            "code": {
              "coding": [
                {
                  "system": "http://loinc.org",
                  "code": "11450-4",
                  "display": "Problem list - Reported"
                }
              ]
            },
            "title": "Problem list"
          },
          {
            "text": {
              "status": "generated",
              "div": "<div xmlns=\"http://www.w3.org/1999/xhtml\"><table class=\"hl7__ips\"><tr><td>Simvastatin 10 mg oral tablet</td><td>2024-09-14</td><td>Oral tablet</td><td>1 tablet (10 mg) by mouth once daily\"</td><td>Reason: Hyperlipidemia (disorder)</td></tr><tr><td>Amlodipine (as amlodipine besylate) 2.5 mg oral tablet</td><td>2024-09-13</td><td>Oral tablet</td><td>1 tablet (2.5 mg) by mouth once daily\"</td><td>Reason: Essential hypertension (disorder)</td></tr><tr><td>Hydrochlorothiazide 25 mg oral tablet</td><td>2024-09-13</td><td>Oral tablet</td><td>1 tablet (25 mg) by mouth once daily\"</td><td>Reason: Essential hypertension (disorder)</td></tr><tr><td>Carvedilol 6.25 mg oral tablet</td><td>2015-02-21</td><td>Oral tablet</td><td>1 tablet (6.25 mg) by mouth twice daily\"</td><td></td></tr><tr><td>aspirin 81 MG Oral Tablet</td><td>2015-02-21</td><td></td><td>1 tablet (81 mg) by mouth once daily\"</td><td></td></tr><tr><td>Atorvastatin (as atorvastatin calcium) 40 mg oral tablet</td><td>2015-02-21</td><td>Oral tablet</td><td>1 tablet (40 mg) by mouth once daily\"</td><td></td></tr><tr><td>Enalapril maleate 10 mg oral tablet</td><td>2015-02-21</td><td>Oral tablet</td><td>1 tablet (10 mg) by mouth once daily\"</td><td></td></tr><tr><td>Vitamin B12 5 MG/ML Injectable Solution</td><td>1976-06-18</td><td></td><td>5 mg (1 mL) intramuscularly once weekly\"</td><td></td></tr><tr><td>Hydrocortisone 10 mg/g and urea 100 mg/g cutaneous cream</td><td>1965-06-20</td><td>Cutaneous cream</td><td>Apply a thin layer (containing 10 mg/g hydrocortisone and 100 mg/g urea) to the affected area twice daily\"</td><td>Reason: Contact dermatitis (disorder)</td></tr></table></div>"
            },
            "entry": [
              {
                "reference": "urn:uuid:700cfab4-6fab-46e8-ab0c-bef059fda6b2"
              },
              {
                "reference": "urn:uuid:02662460-39ef-43d0-8ee0-8379533667bd"
              },
              {
                "reference": "urn:uuid:4b22a9fa-f8de-447f-b0a5-06c3877e0708"
              },
              {
                "reference": "urn:uuid:05faad16-e2ef-4507-8760-c566a3242f9b"
              },
              {
                "reference": "urn:uuid:5d50b09e-eccb-4da6-9a77-4eeabfd7ed4a"
              },
              {
                "reference": "urn:uuid:a9911f38-b5e9-446e-9ef5-786dfaac868f"
              },
              {
                "reference": "urn:uuid:c1bc4824-ff68-4634-932f-994e4be29bf6"
              },
              {
                "reference": "urn:uuid:47e77c10-c7c9-4292-9c3d-5b5aab88ef42"
              },
              {
                "reference": "urn:uuid:0babc61d-3ce7-458b-be2b-6aae5da6aa2c"
              }
            ],
            "code": {
              "coding": [
                {
                  "system": "http://loinc.org",
                  "code": "10160-0",
                  "display": "History of Medication use Narrative"
                }
              ]
            },
            "title": "Medication list"
          },
          {
            "text": {
              "status": "generated",
              "div": "<div xmlns=\"http://www.w3.org/1999/xhtml\"><table class=\"hl7__ips\"><tr><td>Allergic disposition</td><td>1965-07-03</td><td>active</td><td>environment</td></tr></table></div>"
            },
            "entry": [
              {
                "reference": "urn:uuid:55c2e8a2-8996-4790-b566-f53798d64daa"
              }
            ],
            "code": {
              "coding": [
                {
                  "system": "http://loinc.org",
                  "code": "48765-2",
                  "display": "Allergies and adverse reactions Document"
                }
              ]
            },
            "title": "Allergies and Intolerances"
          },
          {
            "text": {
              "status": "generated",
              "div": "<div xmlns=\"http://www.w3.org/1999/xhtml\"><table class=\"hl7__ips\"><tr><td>Referral to home health care service</td><td>2018-04-06</td><td>-</td></tr></table></div>"
            },
            "entry": [
              {
                "reference": "urn:uuid:6e2bc246-a177-4644-9fdf-7bcf83f9b150"
              }
            ],
            "code": {
              "coding": [
                {
                  "system": "http://loinc.org",
                  "code": "47519-4",
                  "display": "History of Procedures Document"
                }
              ]
            },
            "title": "Procedure History list"
          },
          {
            "text": {
              "status": "generated",
              "div": "<div xmlns=\"http://www.w3.org/1999/xhtml\"><table class=\"hl7__ips\"><tr><td>Influenza virus antigen only vaccine product</td><td>2024-09-13</td></tr><tr><td>SARS-CoV-2 mRNA vaccine</td><td>2021-04-23</td></tr><tr><td>Clostridium tetani toxoid antigen adsorbed only vaccine product</td><td>2016-07-29</td></tr></table></div>"
            },
            "entry": [
              {
                "reference": "urn:uuid:55004575-72a5-40be-9478-6b8997b84ec2"
              },
              {
                "reference": "urn:uuid:99b30719-c654-4e4f-94f8-16f70a4a3ea2"
              },
              {
                "reference": "urn:uuid:8d81b5ae-ce63-42cc-a7cf-a7bacc6029dd"
              }
            ],
            "code": {
              "coding": [
                {
                  "system": "http://loinc.org",
                  "code": "11369-6",
                  "display": "History of Immunization Narrative"
                }
              ]
            },
            "title": "Immunizations list"
          }
        ],
        "title": "European Patient Summary",
        "status": "final",
        "subject": {
          "reference": "urn:uuid:139fada0-a416-4ad8-a688-b2196f133b08"
        },
        "custodian": {
          "reference": "urn:uuid:44e5038c-2989-48fc-ab23-8947fe590ee1"
        },
        "date": "2025-06-16T17:28:57Z",
        "confidentiality": "N"
      }
    },
    {
      "fullUrl": "urn:uuid:139fada0-a416-4ad8-a688-b2196f133b08",
      "resource": {
        "resourceType": "Patient",
        "id": "139fada0-a416-4ad8-a688-b2196f133b08",
        "meta": {
          "profile": [
            "http://hl7.eu/fhir/eps/StructureDefinition/patient-eu-eps"
          ]
        },
        "identifier": [
          {
            "type": {
              "coding": [
                {
                  "code": "NI",
                  "system": "http://terminology.hl7.org/CodeSystem/v2-0203"
                }
              ]
            },
            "system": "http://ec.europa.eu/identifier/eci",
            "value": "1380-437420-8"
          },
          {
            "type": {
              "coding": [
                {
                  "code": "MR",
                  "system": "http://terminology.hl7.org/CodeSystem/v2-0203"
                }
              ]
            },
            "system": "http://local.setting.eu/identifier",
            "value": "8b3c98b0-2c6a-fcd2-b8a8-e4d1966d72ae"
          }
        ],
        "name": [
          {
            "given": [
              "Ludwig"
            ],
            "family": "Hedlund",
            "text": "Ludwig Hedlund"
          }
        ],
        "address": [
          {
            "line": [
              "Djursbo 24"
            ],
            "use": "home",
            "type": "physical",
            "city": "Näsviken",
            "postalCode": "820 64",
            "country": "Sweden"
          }
        ],
        "telecom": [
          {
            "system": "phone",
            "value": "+46 0650-6305261"
          }
        ],
        "gender": "male",
        "birthDate": "1950-03-02"
      }
    },
    {
      "fullUrl": "urn:uuid:888f2721-358e-41be-9b1a-975282a2152a",
      "resource": {
        "resourceType": "PractitionerRole",
        "id": "888f2721-358e-41be-9b1a-975282a2152a",
        "meta": {
          "profile": [
            "http://hl7.eu/fhir/base/StructureDefinition/practitionerRole-eu"
          ]
        },
        "practitioner": {
          "reference": "urn:uuid:90d39478-9dd6-48d7-b1ca-7c219f23d50e"
        },
        "organization": {
          "reference": "urn:uuid:44e5038c-2989-48fc-ab23-8947fe590ee1"
        }
      }
    },
    {
      "fullUrl": "urn:uuid:90d39478-9dd6-48d7-b1ca-7c219f23d50e",
      "resource": {
        "resourceType": "Practitioner",
        "id": "90d39478-9dd6-48d7-b1ca-7c219f23d50e",
        "meta": {
          "profile": [
            "http://hl7.eu/fhir/base/StructureDefinition/practitioner-eu"
          ]
        },
        "name": [
          {
            "prefix": [
              "Dr."
            ],
            "given": [
              "Hel"
            ],
            "family": "Ping"
          }
        ]
      }
    },
    {
      "fullUrl": "urn:uuid:5222aff6-253f-486d-9738-481b112f0f5f",
      "resource": {
        "resourceType": "Condition",
        "id": "5222aff6-253f-486d-9738-481b112f0f5f",
        "meta": {
          "profile": [
            "http://hl7.org/fhir/uv/ips/StructureDefinition/Condition-uv-ips"
          ]
        },
        "category": [
          {
            "coding": [
              {
                "code": "problem-list-item",
                "system": "http://terminology.hl7.org/CodeSystem/condition-category",
                "display": "Problem List Item"
              }
            ]
          }
        ],
        "code": {
          "coding": [
            {
              "code": "401303003",
              "system": "http://snomed.info/sct",
              "display": "Acute ST segment elevation myocardial infarction (disorder)"
            }
          ],
          "text": "Acute ST segment elevation myocardial infarction"
        },
        "onsetDateTime": "2015-02-21",
        "clinicalStatus": {
          "coding": [
            {
              "code": "active",
              "system": "http://terminology.hl7.org/CodeSystem/condition-clinical"
            }
          ]
        },
        "subject": {
          "reference": "Patient/139fada0-a416-4ad8-a688-b2196f133b08",
          "display": "Ludwig Hedlund"
        },
        "asserter": {
          "reference": "Practitioner/90d39478-9dd6-48d7-b1ca-7c219f23d50e",
          "display": "Dr. Hel Ping"
        }
      }
    },
    {
      "fullUrl": "urn:uuid:0b2bc92d-0275-4b8d-9562-0f3c8f664e30",
      "resource": {
        "resourceType": "Condition",
        "id": "0b2bc92d-0275-4b8d-9562-0f3c8f664e30",
        "meta": {
          "profile": [
            "http://hl7.org/fhir/uv/ips/StructureDefinition/Condition-uv-ips"
          ]
        },
        "category": [
          {
            "coding": [
              {
                "code": "problem-list-item",
                "system": "http://terminology.hl7.org/CodeSystem/condition-category",
                "display": "Problem List Item"
              }
            ]
          }
        ],
        "code": {
          "coding": [
            {
              "code": "414545008",
              "system": "http://snomed.info/sct",
              "display": "Ischemic heart disease (disorder)"
            }
          ],
          "text": "Ischemic heart disease"
        },
        "onsetDateTime": "2014-07-18",
        "clinicalStatus": {
          "coding": [
            {
              "code": "active",
              "system": "http://terminology.hl7.org/CodeSystem/condition-clinical"
            }
          ]
        },
        "subject": {
          "reference": "Patient/139fada0-a416-4ad8-a688-b2196f133b08",
          "display": "Ludwig Hedlund"
        },
        "asserter": {
          "reference": "Practitioner/90d39478-9dd6-48d7-b1ca-7c219f23d50e",
          "display": "Dr. Hel Ping"
        }
      }
    },
    {
      "fullUrl": "urn:uuid:0a5cf8fb-bcad-4ee6-a003-0e6a28ad45d9",
      "resource": {
        "resourceType": "Condition",
        "id": "0a5cf8fb-bcad-4ee6-a003-0e6a28ad45d9",
        "meta": {
          "profile": [
            "http://hl7.org/fhir/uv/ips/StructureDefinition/Condition-uv-ips"
          ]
        },
        "category": [
          {
            "coding": [
              {
                "code": "problem-list-item",
                "system": "http://terminology.hl7.org/CodeSystem/condition-category",
                "display": "Problem List Item"
              }
            ]
          }
        ],
        "code": {
          "coding": [
            {
              "code": "237602007",
              "system": "http://snomed.info/sct",
              "display": "Metabolic syndrome X (disorder)"
            }
          ],
          "text": "Metabolic syndrome X"
        },
        "onsetDateTime": "2005-05-27",
        "clinicalStatus": {
          "coding": [
            {
              "code": "active",
              "system": "http://terminology.hl7.org/CodeSystem/condition-clinical"
            }
          ]
        },
        "subject": {
          "reference": "Patient/139fada0-a416-4ad8-a688-b2196f133b08",
          "display": "Ludwig Hedlund"
        },
        "asserter": {
          "reference": "Practitioner/90d39478-9dd6-48d7-b1ca-7c219f23d50e",
          "display": "Dr. Hel Ping"
        }
      }
    },
    {
      "fullUrl": "urn:uuid:a688ff0b-6192-4ab8-beaa-e82bf427fed4",
      "resource": {
        "resourceType": "Condition",
        "id": "a688ff0b-6192-4ab8-beaa-e82bf427fed4",
        "meta": {
          "profile": [
            "http://hl7.org/fhir/uv/ips/StructureDefinition/Condition-uv-ips"
          ]
        },
        "category": [
          {
            "coding": [
              {
                "code": "problem-list-item",
                "system": "http://terminology.hl7.org/CodeSystem/condition-category",
                "display": "Problem List Item"
              }
            ]
          }
        ],
        "code": {
          "coding": [
            {
              "code": "302870006",
              "system": "http://snomed.info/sct",
              "display": "Hypertriglyceridemia (disorder)"
            }
          ],
          "text": "Hypertriglyceridemia"
        },
        "onsetDateTime": "2005-05-27",
        "clinicalStatus": {
          "coding": [
            {
              "code": "active",
              "system": "http://terminology.hl7.org/CodeSystem/condition-clinical"
            }
          ]
        },
        "subject": {
          "reference": "Patient/139fada0-a416-4ad8-a688-b2196f133b08",
          "display": "Ludwig Hedlund"
        },
        "asserter": {
          "reference": "Practitioner/90d39478-9dd6-48d7-b1ca-7c219f23d50e",
          "display": "Dr. Hel Ping"
        }
      }
    },
    {
      "fullUrl": "urn:uuid:cb585a67-6927-4d20-97ab-12a051e0eaca",
      "resource": {
        "resourceType": "Condition",
        "id": "cb585a67-6927-4d20-97ab-12a051e0eaca",
        "meta": {
          "profile": [
            "http://hl7.org/fhir/uv/ips/StructureDefinition/Condition-uv-ips"
          ]
        },
        "category": [
          {
            "coding": [
              {
                "code": "problem-list-item",
                "system": "http://terminology.hl7.org/CodeSystem/condition-category",
                "display": "Problem List Item"
              }
            ]
          }
        ],
        "code": {
          "coding": [
            {
              "code": "368581000119106",
              "system": "http://snomed.info/sct",
              "display": "Neuropathy due to type 2 diabetes mellitus (disorder)"
            }
          ],
          "text": "Neuropathy due to type 2 diabetes mellitus"
        },
        "onsetDateTime": "2005-05-27",
        "clinicalStatus": {
          "coding": [
            {
              "code": "active",
              "system": "http://terminology.hl7.org/CodeSystem/condition-clinical"
            }
          ]
        },
        "subject": {
          "reference": "Patient/139fada0-a416-4ad8-a688-b2196f133b08",
          "display": "Ludwig Hedlund"
        },
        "asserter": {
          "reference": "Practitioner/90d39478-9dd6-48d7-b1ca-7c219f23d50e",
          "display": "Dr. Hel Ping"
        }
      }
    },
    {
      "fullUrl": "urn:uuid:4eaefc8d-c20d-41ae-85d9-670cd0e014a1",
      "resource": {
        "resourceType": "Condition",
        "id": "4eaefc8d-c20d-41ae-85d9-670cd0e014a1",
        "meta": {
          "profile": [
            "http://hl7.org/fhir/uv/ips/StructureDefinition/Condition-uv-ips"
          ]
        },
        "category": [
          {
            "coding": [
              {
                "code": "problem-list-item",
                "system": "http://terminology.hl7.org/CodeSystem/condition-category",
                "display": "Problem List Item"
              }
            ]
          }
        ],
        "code": {
          "coding": [
            {
              "code": "44054006",
              "system": "http://snomed.info/sct",
              "display": "Diabetes mellitus type 2 (disorder)"
            }
          ],
          "text": "Type 2 diabetes mellitus"
        },
        "onsetDateTime": "2004-05-21",
        "clinicalStatus": {
          "coding": [
            {
              "code": "active",
              "system": "http://terminology.hl7.org/CodeSystem/condition-clinical"
            }
          ]
        },
        "subject": {
          "reference": "Patient/139fada0-a416-4ad8-a688-b2196f133b08",
          "display": "Ludwig Hedlund"
        },
        "asserter": {
          "reference": "Practitioner/90d39478-9dd6-48d7-b1ca-7c219f23d50e",
          "display": "Dr. Hel Ping"
        }
      }
    },
    {
      "fullUrl": "urn:uuid:9a55dec0-0183-4a4a-8a20-e6152355bfd8",
      "resource": {
        "resourceType": "Condition",
        "id": "9a55dec0-0183-4a4a-8a20-e6152355bfd8",
        "meta": {
          "profile": [
            "http://hl7.org/fhir/uv/ips/StructureDefinition/Condition-uv-ips"
          ]
        },
        "category": [
          {
            "coding": [
              {
                "code": "problem-list-item",
                "system": "http://terminology.hl7.org/CodeSystem/condition-category",
                "display": "Problem List Item"
              }
            ]
          }
        ],
        "code": {
          "coding": [
            {
              "code": "59621000",
              "system": "http://snomed.info/sct",
              "display": "Essential hypertension (disorder)"
            }
          ],
          "text": "Essential hypertension"
        },
        "onsetDateTime": "2001-05-04",
        "clinicalStatus": {
          "coding": [
            {
              "code": "active",
              "system": "http://terminology.hl7.org/CodeSystem/condition-clinical"
            }
          ]
        },
        "subject": {
          "reference": "Patient/139fada0-a416-4ad8-a688-b2196f133b08",
          "display": "Ludwig Hedlund"
        },
        "asserter": {
          "reference": "Practitioner/90d39478-9dd6-48d7-b1ca-7c219f23d50e",
          "display": "Dr. Hel Ping"
        }
      }
    },
    {
      "fullUrl": "urn:uuid:711ffbee-e6fe-48ff-89ed-f7e181993181",
      "resource": {
        "resourceType": "Condition",
        "id": "711ffbee-e6fe-48ff-89ed-f7e181993181",
        "meta": {
          "profile": [
            "http://hl7.org/fhir/uv/ips/StructureDefinition/Condition-uv-ips"
          ]
        },
        "category": [
          {
            "coding": [
              {
                "code": "problem-list-item",
                "system": "http://terminology.hl7.org/CodeSystem/condition-category",
                "display": "Problem List Item"
              }
            ]
          }
        ],
        "code": {
          "coding": [
            {
              "code": "55822004",
              "system": "http://snomed.info/sct",
              "display": "Hyperlipidemia (disorder)"
            }
          ],
          "text": "Hyperlipidemia"
        },
        "onsetDateTime": "1991-04-19",
        "clinicalStatus": {
          "coding": [
            {
              "code": "active",
              "system": "http://terminology.hl7.org/CodeSystem/condition-clinical"
            }
          ]
        },
        "subject": {
          "reference": "Patient/139fada0-a416-4ad8-a688-b2196f133b08",
          "display": "Ludwig Hedlund"
        },
        "asserter": {
          "reference": "Practitioner/90d39478-9dd6-48d7-b1ca-7c219f23d50e",
          "display": "Dr. Hel Ping"
        }
      }
    },
    {
      "fullUrl": "urn:uuid:5f2c528d-623c-4f32-bf6a-351e54d0ae98",
      "resource": {
        "resourceType": "Condition",
        "id": "5f2c528d-623c-4f32-bf6a-351e54d0ae98",
        "meta": {
          "profile": [
            "http://hl7.org/fhir/uv/ips/StructureDefinition/Condition-uv-ips"
          ]
        },
        "category": [
          {
            "coding": [
              {
                "code": "problem-list-item",
                "system": "http://terminology.hl7.org/CodeSystem/condition-category",
                "display": "Problem List Item"
              }
            ]
          }
        ],
        "code": {
          "coding": [
            {
              "code": "40055000",
              "system": "http://snomed.info/sct",
              "display": "Chronic sinusitis (disorder)"
            }
          ],
          "text": "Chronic sinusitis"
        },
        "onsetDateTime": "1990-05-12",
        "clinicalStatus": {
          "coding": [
            {
              "code": "active",
              "system": "http://terminology.hl7.org/CodeSystem/condition-clinical"
            }
          ]
        },
        "subject": {
          "reference": "Patient/139fada0-a416-4ad8-a688-b2196f133b08",
          "display": "Ludwig Hedlund"
        },
        "asserter": {
          "reference": "Practitioner/90d39478-9dd6-48d7-b1ca-7c219f23d50e",
          "display": "Dr. Hel Ping"
        }
      }
    },
    {
      "fullUrl": "urn:uuid:ff28acca-bcec-45af-afc2-b204ece2c0c2",
      "resource": {
        "resourceType": "Condition",
        "id": "ff28acca-bcec-45af-afc2-b204ece2c0c2",
        "meta": {
          "profile": [
            "http://hl7.org/fhir/uv/ips/StructureDefinition/Condition-uv-ips"
          ]
        },
        "category": [
          {
            "coding": [
              {
                "code": "problem-list-item",
                "system": "http://terminology.hl7.org/CodeSystem/condition-category",
                "display": "Problem List Item"
              }
            ]
          }
        ],
        "code": {
          "coding": [
            {
              "code": "271737000",
              "system": "http://snomed.info/sct",
              "display": "Anemia (disorder)"
            }
          ],
          "text": "Anemia"
        },
        "onsetDateTime": "1976-06-11",
        "clinicalStatus": {
          "coding": [
            {
              "code": "active",
              "system": "http://terminology.hl7.org/CodeSystem/condition-clinical"
            }
          ]
        },
        "subject": {
          "reference": "Patient/139fada0-a416-4ad8-a688-b2196f133b08",
          "display": "Ludwig Hedlund"
        },
        "asserter": {
          "reference": "Practitioner/90d39478-9dd6-48d7-b1ca-7c219f23d50e",
          "display": "Dr. Hel Ping"
        }
      }
    },
    {
      "fullUrl": "urn:uuid:fd184127-4a85-430a-842c-e5b1add8d6f6",
      "resource": {
        "resourceType": "Condition",
        "id": "fd184127-4a85-430a-842c-e5b1add8d6f6",
        "meta": {
          "profile": [
            "http://hl7.org/fhir/uv/ips/StructureDefinition/Condition-uv-ips"
          ]
        },
        "category": [
          {
            "coding": [
              {
                "code": "problem-list-item",
                "system": "http://terminology.hl7.org/CodeSystem/condition-category",
                "display": "Problem List Item"
              }
            ]
          }
        ],
        "code": {
          "coding": [
            {
              "code": "109570002",
              "system": "http://snomed.info/sct",
              "display": "Primary dental caries (disorder)"
            }
          ],
          "text": "Primary dental caries"
        },
        "onsetDateTime": "2024-09-27",
        "clinicalStatus": {
          "coding": [
            {
              "code": "inactive",
              "system": "http://terminology.hl7.org/CodeSystem/condition-clinical"
            }
          ]
        },
        "subject": {
          "reference": "Patient/139fada0-a416-4ad8-a688-b2196f133b08",
          "display": "Ludwig Hedlund"
        },
        "asserter": {
          "reference": "Practitioner/90d39478-9dd6-48d7-b1ca-7c219f23d50e",
          "display": "Dr. Hel Ping"
        }
      }
    },
    {
      "fullUrl": "urn:uuid:be20a612-a1ff-4cc8-bb27-756cccfab3ac",
      "resource": {
        "resourceType": "Condition",
        "id": "be20a612-a1ff-4cc8-bb27-756cccfab3ac",
        "meta": {
          "profile": [
            "http://hl7.org/fhir/uv/ips/StructureDefinition/Condition-uv-ips"
          ]
        },
        "category": [
          {
            "coding": [
              {
                "code": "problem-list-item",
                "system": "http://terminology.hl7.org/CodeSystem/condition-category",
                "display": "Problem List Item"
              }
            ]
          }
        ],
        "code": {
          "coding": [
            {
              "code": "66383009",
              "system": "http://snomed.info/sct",
              "display": "Gingivitis (disorder)"
            }
          ],
          "text": "Gingivitis"
        },
        "onsetDateTime": "2022-09-02",
        "clinicalStatus": {
          "coding": [
            {
              "code": "inactive",
              "system": "http://terminology.hl7.org/CodeSystem/condition-clinical"
            }
          ]
        },
        "subject": {
          "reference": "Patient/139fada0-a416-4ad8-a688-b2196f133b08",
          "display": "Ludwig Hedlund"
        },
        "asserter": {
          "reference": "Practitioner/90d39478-9dd6-48d7-b1ca-7c219f23d50e",
          "display": "Dr. Hel Ping"
        }
      }
    },
    {
      "fullUrl": "urn:uuid:7e59a0a2-0ebd-4c2d-9aa1-673b486ca5b6",
      "resource": {
        "resourceType": "Condition",
        "id": "7e59a0a2-0ebd-4c2d-9aa1-673b486ca5b6",
        "meta": {
          "profile": [
            "http://hl7.org/fhir/uv/ips/StructureDefinition/Condition-uv-ips"
          ]
        },
        "category": [
          {
            "coding": [
              {
                "code": "problem-list-item",
                "system": "http://terminology.hl7.org/CodeSystem/condition-category",
                "display": "Problem List Item"
              }
            ]
          }
        ],
        "code": {
          "coding": [
            {
              "code": "840539006",
              "system": "http://snomed.info/sct",
              "display": "Disease caused by severe acute respiratory syndrome coronavirus 2 (disorder)"
            }
          ],
          "text": "COVID-19"
        },
        "onsetDateTime": "2020-08-31",
        "clinicalStatus": {
          "coding": [
            {
              "code": "inactive",
              "system": "http://terminology.hl7.org/CodeSystem/condition-clinical"
            }
          ]
        },
        "subject": {
          "reference": "Patient/139fada0-a416-4ad8-a688-b2196f133b08",
          "display": "Ludwig Hedlund"
        },
        "asserter": {
          "reference": "Practitioner/90d39478-9dd6-48d7-b1ca-7c219f23d50e",
          "display": "Dr. Hel Ping"
        }
      }
    },
    {
      "fullUrl": "urn:uuid:b4087276-c05c-4fac-a0d0-7b417c50e6de",
      "resource": {
        "resourceType": "Condition",
        "id": "b4087276-c05c-4fac-a0d0-7b417c50e6de",
        "meta": {
          "profile": [
            "http://hl7.org/fhir/uv/ips/StructureDefinition/Condition-uv-ips"
          ]
        },
        "category": [
          {
            "coding": [
              {
                "code": "problem-list-item",
                "system": "http://terminology.hl7.org/CodeSystem/condition-category",
                "display": "Problem List Item"
              }
            ]
          }
        ],
        "code": {
          "coding": [
            {
              "code": "66383009",
              "system": "http://snomed.info/sct",
              "display": "Gingivitis (disorder)"
            }
          ],
          "text": "Gingivitis"
        },
        "onsetDateTime": "2020-08-21",
        "clinicalStatus": {
          "coding": [
            {
              "code": "inactive",
              "system": "http://terminology.hl7.org/CodeSystem/condition-clinical"
            }
          ]
        },
        "subject": {
          "reference": "Patient/139fada0-a416-4ad8-a688-b2196f133b08",
          "display": "Ludwig Hedlund"
        },
        "asserter": {
          "reference": "Practitioner/90d39478-9dd6-48d7-b1ca-7c219f23d50e",
          "display": "Dr. Hel Ping"
        }
      }
    },
    {
      "fullUrl": "urn:uuid:edf66cbc-1e13-4807-993f-bec3da9383db",
      "resource": {
        "resourceType": "Condition",
        "id": "edf66cbc-1e13-4807-993f-bec3da9383db",
        "meta": {
          "profile": [
            "http://hl7.org/fhir/uv/ips/StructureDefinition/Condition-uv-ips"
          ]
        },
        "category": [
          {
            "coding": [
              {
                "code": "problem-list-item",
                "system": "http://terminology.hl7.org/CodeSystem/condition-category",
                "display": "Problem List Item"
              }
            ]
          }
        ],
        "code": {
          "coding": [
            {
              "code": "444814009",
              "system": "http://snomed.info/sct",
              "display": "Viral sinusitis (disorder)"
            }
          ],
          "text": "Viral sinusitis"
        },
        "onsetDateTime": "2015-07-07",
        "clinicalStatus": {
          "coding": [
            {
              "code": "inactive",
              "system": "http://terminology.hl7.org/CodeSystem/condition-clinical"
            }
          ]
        },
        "subject": {
          "reference": "Patient/139fada0-a416-4ad8-a688-b2196f133b08",
          "display": "Ludwig Hedlund"
        },
        "asserter": {
          "reference": "Practitioner/90d39478-9dd6-48d7-b1ca-7c219f23d50e",
          "display": "Dr. Hel Ping"
        }
      }
    },
    {
      "fullUrl": "urn:uuid:7e8f6293-0692-41d7-9e6f-7518693bedb6",
      "resource": {
        "resourceType": "Medication",
        "id": "7e8f6293-0692-41d7-9e6f-7518693bedb6",
        "meta": {
          "profile": [
            "http://hl7.org/fhir/uv/ips/StructureDefinition/Medication-uv-ips"
          ]
        },
        "code": {
          "coding": [
            {
              "code": "314231",
              "system": "http://www.nlm.nih.gov/research/umls/rxnorm",
              "display": "simvastatin 10 MG Oral Tablet"
            },
            {
              "code": "319996000",
              "system": "http://snomed.info/sct",
              "display": "Product containing precisely simvastatin 10 milligram/1 each conventional release oral tablet (clinical drug)"
            }
          ],
          "text": "Simvastatin 10 mg oral tablet"
        },
        "form": {
          "coding": [
            {
              "code": "421026006",
              "system": "http://snomed.info/sct",
              "display": "Oral tablet"
            }
          ]
        },
        "ingredient": [
          {
            "itemCodeableConcept": {
              "coding": [
                {
                  "code": "387584000",
                  "system": "http://snomed.info/sct",
                  "display": "Simvastatin"
                }
              ]
            },
            "isActive": true
          }
        ]
      }
    },
    {
      "fullUrl": "urn:uuid:700cfab4-6fab-46e8-ab0c-bef059fda6b2",
      "resource": {
        "resourceType": "MedicationStatement",
        "id": "700cfab4-6fab-46e8-ab0c-bef059fda6b2",
        "effectivePeriod": {
          "start": "2024-09-14"
        },
        "dosage": [
          {
            "doseAndRate": [
              {
                "doseQuantity": {
                  "value": 1,
                  "unit": "{tbl}",
                  "code": "{tbl}"
                }
              }
            ],
            "timing": {
              "repeat": {
                "frequency": 1,
                "period": 1,
                "periodUnit": "d"
              }
            },
            "text": "1 tablet (10 mg) by mouth once daily",
            "asNeededBoolean": false
          }
        ],
        "reasonCode": [
          {
            "coding": [
              {
                "code": "55822004",
                "system": "http://snomed.info/sct",
                "display": "Hyperlipidemia (disorder)"
              }
            ]
          }
        ],
        "status": "active",
        "medicationReference": {
          "reference": "Medication/7e8f6293-0692-41d7-9e6f-7518693bedb6",
          "display": "Simvastatin 10 mg oral tablet"
        },
        "subject": {
          "reference": "Patient/139fada0-a416-4ad8-a688-b2196f133b08",
          "display": "Ludwig Hedlund"
        }
      }
    },
    {
      "fullUrl": "urn:uuid:d1b20426-4b53-42af-924a-6b1c99ded234",
      "resource": {
        "resourceType": "Medication",
        "id": "d1b20426-4b53-42af-924a-6b1c99ded234",
        "meta": {
          "profile": [
            "http://hl7.org/fhir/uv/ips/StructureDefinition/Medication-uv-ips"
          ]
        },
        "code": {
          "coding": [
            {
              "code": "308136",
              "system": "http://www.nlm.nih.gov/research/umls/rxnorm",
              "display": "amlodipine 2.5 MG Oral Tablet"
            },
            {
              "code": "1153431000",
              "system": "http://snomed.info/sct",
              "display": "Product containing precisely amlodipine (as amlodipine besilate) 2.5 milligram/1 each conventional release oral tablet (clinical drug)"
            }
          ],
          "text": "Amlodipine (as amlodipine besylate) 2.5 mg oral tablet"
        },
        "form": {
          "coding": [
            {
              "code": "421026006",
              "system": "http://snomed.info/sct",
              "display": "Oral tablet"
            }
          ]
        },
        "ingredient": [
          {
            "itemCodeableConcept": {
              "coding": [
                {
                  "code": "384976003",
                  "system": "http://snomed.info/sct",
                  "display": "Amlodipine besylate"
                }
              ]
            },
            "isActive": true
          }
        ]
      }
    },
    {
      "fullUrl": "urn:uuid:02662460-39ef-43d0-8ee0-8379533667bd",
      "resource": {
        "resourceType": "MedicationStatement",
        "id": "02662460-39ef-43d0-8ee0-8379533667bd",
        "effectivePeriod": {
          "start": "2024-09-13"
        },
        "dosage": [
          {
            "doseAndRate": [
              {
                "doseQuantity": {
                  "value": 1,
                  "unit": "{tbl}",
                  "code": "{tbl}"
                }
              }
            ],
            "timing": {
              "repeat": {
                "frequency": 1,
                "period": 1,
                "periodUnit": "d"
              }
            },
            "text": "1 tablet (2.5 mg) by mouth once daily",
            "asNeededBoolean": false
          }
        ],
        "reasonCode": [
          {
            "coding": [
              {
                "code": "59621000",
                "system": "http://snomed.info/sct",
                "display": "Essential hypertension (disorder)"
              }
            ]
          }
        ],
        "status": "active",
        "medicationReference": {
          "reference": "Medication/d1b20426-4b53-42af-924a-6b1c99ded234",
          "display": "Amlodipine (as amlodipine besylate) 2.5 mg oral tablet"
        },
        "subject": {
          "reference": "Patient/139fada0-a416-4ad8-a688-b2196f133b08",
          "display": "Ludwig Hedlund"
        }
      }
    },
    {
      "fullUrl": "urn:uuid:11b5a21d-1d1a-4af2-b63a-2e4abe3c8bb2",
      "resource": {
        "resourceType": "Medication",
        "id": "11b5a21d-1d1a-4af2-b63a-2e4abe3c8bb2",
        "meta": {
          "profile": [
            "http://hl7.org/fhir/uv/ips/StructureDefinition/Medication-uv-ips"
          ]
        },
        "code": {
          "coding": [
            {
              "code": "310798",
              "system": "http://www.nlm.nih.gov/research/umls/rxnorm",
              "display": "hydrochlorothiazide 25 MG Oral Tablet"
            },
            {
              "code": "376209006",
              "system": "http://snomed.info/sct",
              "display": "Product containing precisely hydrochlorothiazide 25 milligram/1 each conventional release oral tablet (clinical drug)"
            }
          ],
          "text": "Hydrochlorothiazide 25 mg oral tablet"
        },
        "form": {
          "coding": [
            {
              "code": "421026006",
              "system": "http://snomed.info/sct",
              "display": "Oral tablet"
            }
          ]
        },
        "ingredient": [
          {
            "itemCodeableConcept": {
              "coding": [
                {
                  "code": "387525002",
                  "system": "http://snomed.info/sct",
                  "display": "Hydrochlorothiazide"
                }
              ]
            },
            "isActive": true
          }
        ]
      }
    },
    {
      "fullUrl": "urn:uuid:4b22a9fa-f8de-447f-b0a5-06c3877e0708",
      "resource": {
        "resourceType": "MedicationStatement",
        "id": "4b22a9fa-f8de-447f-b0a5-06c3877e0708",
        "effectivePeriod": {
          "start": "2024-09-13"
        },
        "dosage": [
          {
            "doseAndRate": [
              {
                "doseQuantity": {
                  "value": 1,
                  "unit": "{tbl}",
                  "code": "{tbl}"
                }
              }
            ],
            "timing": {
              "repeat": {
                "frequency": 1,
                "period": 1,
                "periodUnit": "d"
              }
            },
            "text": "1 tablet (25 mg) by mouth once daily",
            "asNeededBoolean": false
          }
        ],
        "reasonCode": [
          {
            "coding": [
              {
                "code": "59621000",
                "system": "http://snomed.info/sct",
                "display": "Essential hypertension (disorder)"
              }
            ]
          }
        ],
        "status": "active",
        "medicationReference": {
          "reference": "Medication/11b5a21d-1d1a-4af2-b63a-2e4abe3c8bb2",
          "display": "Hydrochlorothiazide 25 mg oral tablet"
        },
        "subject": {
          "reference": "Patient/139fada0-a416-4ad8-a688-b2196f133b08",
          "display": "Ludwig Hedlund"
        }
      }
    },
    {
      "fullUrl": "urn:uuid:117dcf30-28e9-444b-903c-c4cb3404e2ba",
      "resource": {
        "resourceType": "Medication",
        "id": "117dcf30-28e9-444b-903c-c4cb3404e2ba",
        "meta": {
          "profile": [
            "http://hl7.org/fhir/uv/ips/StructureDefinition/Medication-uv-ips"
          ]
        },
        "code": {
          "coding": [
            {
              "code": "200031",
              "system": "http://www.nlm.nih.gov/research/umls/rxnorm",
              "display": "carvedilol 6.25 MG Oral Tablet"
            },
            {
              "code": "318635007",
              "system": "http://snomed.info/sct",
              "display": "Product containing precisely carvedilol 6.25 milligram/1 each conventional release oral tablet (clinical drug)"
            }
          ],
          "text": "Carvedilol 6.25 mg oral tablet"
        },
        "form": {
          "coding": [
            {
              "code": "421026006",
              "system": "http://snomed.info/sct",
              "display": "Oral tablet"
            }
          ]
        },
        "ingredient": [
          {
            "itemCodeableConcept": {
              "coding": [
                {
                  "code": "386870007",
                  "system": "http://snomed.info/sct",
                  "display": "Carvedilol"
                }
              ]
            },
            "isActive": true
          }
        ]
      }
    },
    {
      "fullUrl": "urn:uuid:05faad16-e2ef-4507-8760-c566a3242f9b",
      "resource": {
        "resourceType": "MedicationStatement",
        "id": "05faad16-e2ef-4507-8760-c566a3242f9b",
        "effectivePeriod": {
          "start": "2015-02-21"
        },
        "dosage": [
          {
            "doseAndRate": [
              {
                "doseQuantity": {
                  "value": 1,
                  "unit": "{tbl}",
                  "code": "{tbl}"
                }
              }
            ],
            "timing": {
              "repeat": {
                "frequency": 2,
                "period": 1,
                "periodUnit": "d"
              }
            },
            "text": "1 tablet (6.25 mg) by mouth twice daily",
            "asNeededBoolean": false
          }
        ],
        "status": "active",
        "medicationReference": {
          "reference": "Medication/117dcf30-28e9-444b-903c-c4cb3404e2ba",
          "display": "Carvedilol 6.25 mg oral tablet"
        },
        "subject": {
          "reference": "Patient/139fada0-a416-4ad8-a688-b2196f133b08",
          "display": "Ludwig Hedlund"
        }
      }
    },
    {
      "fullUrl": "urn:uuid:66d74dfc-2b73-48b2-b6b5-36f492bacc93",
      "resource": {
        "resourceType": "Medication",
        "id": "66d74dfc-2b73-48b2-b6b5-36f492bacc93",
        "meta": {
          "profile": [
            "http://hl7.org/fhir/uv/ips/StructureDefinition/Medication-uv-ips"
          ]
        },
        "code": {
          "coding": [
            {
              "code": "243670",
              "system": "http://www.nlm.nih.gov/research/umls/rxnorm",
              "display": "aspirin 81 MG Oral Tablet"
            }
          ],
          "text": "aspirin 81 MG Oral Tablet"
        }
      }
    },
    {
      "fullUrl": "urn:uuid:5d50b09e-eccb-4da6-9a77-4eeabfd7ed4a",
      "resource": {
        "resourceType": "MedicationStatement",
        "id": "5d50b09e-eccb-4da6-9a77-4eeabfd7ed4a",
        "effectivePeriod": {
          "start": "2015-02-21"
        },
        "dosage": [
          {
            "doseAndRate": [
              {
                "doseQuantity": {
                  "value": 1,
                  "unit": "{tbl}",
                  "code": "{tbl}"
                }
              }
            ],
            "timing": {
              "repeat": {
                "frequency": 1,
                "period": 1,
                "periodUnit": "d"
              }
            },
            "text": "1 tablet (81 mg) by mouth once daily",
            "asNeededBoolean": false
          }
        ],
        "status": "active",
        "medicationReference": {
          "reference": "Medication/66d74dfc-2b73-48b2-b6b5-36f492bacc93",
          "display": "aspirin 81 MG Oral Tablet"
        },
        "subject": {
          "reference": "Patient/139fada0-a416-4ad8-a688-b2196f133b08",
          "display": "Ludwig Hedlund"
        }
      }
    },
    {
      "fullUrl": "urn:uuid:e9c18af7-139a-4cc3-bc58-60d43a988bd2",
      "resource": {
        "resourceType": "Medication",
        "id": "e9c18af7-139a-4cc3-bc58-60d43a988bd2",
        "meta": {
          "profile": [
            "http://hl7.org/fhir/uv/ips/StructureDefinition/Medication-uv-ips"
          ]
        },
        "code": {
          "coding": [
            {
              "code": "617311",
              "system": "http://www.nlm.nih.gov/research/umls/rxnorm",
              "display": "atorvastatin 40 MG Oral Tablet"
            },
            {
              "code": "1145421000",
              "system": "http://snomed.info/sct",
              "display": "Product containing precisely atorvastatin (as atorvastatin calcium) 40 milligram/1 each conventional release oral tablet (clinical drug)"
            }
          ],
          "text": "Atorvastatin (as atorvastatin calcium) 40 mg oral tablet"
        },
        "form": {
          "coding": [
            {
              "code": "421026006",
              "system": "http://snomed.info/sct",
              "display": "Oral tablet"
            }
          ]
        },
        "ingredient": [
          {
            "itemCodeableConcept": {
              "coding": [
                {
                  "code": "108601004",
                  "system": "http://snomed.info/sct",
                  "display": "Atorvastatin calcium"
                }
              ]
            },
            "isActive": true
          }
        ]
      }
    },
    {
      "fullUrl": "urn:uuid:a9911f38-b5e9-446e-9ef5-786dfaac868f",
      "resource": {
        "resourceType": "MedicationStatement",
        "id": "a9911f38-b5e9-446e-9ef5-786dfaac868f",
        "effectivePeriod": {
          "start": "2015-02-21"
        },
        "dosage": [
          {
            "doseAndRate": [
              {
                "doseQuantity": {
                  "value": 1,
                  "unit": "{tbl}",
                  "code": "{tbl}"
                }
              }
            ],
            "timing": {
              "repeat": {
                "frequency": 1,
                "period": 1,
                "periodUnit": "d"
              }
            },
            "text": "1 tablet (40 mg) by mouth once daily",
            "asNeededBoolean": false
          }
        ],
        "status": "active",
        "medicationReference": {
          "reference": "Medication/e9c18af7-139a-4cc3-bc58-60d43a988bd2",
          "display": "Atorvastatin (as atorvastatin calcium) 40 mg oral tablet"
        },
        "subject": {
          "reference": "Patient/139fada0-a416-4ad8-a688-b2196f133b08",
          "display": "Ludwig Hedlund"
        }
      }
    },
    {
      "fullUrl": "urn:uuid:5b7cfd25-2a7c-4eda-965d-73ae789128ad",
      "resource": {
        "resourceType": "Medication",
        "id": "5b7cfd25-2a7c-4eda-965d-73ae789128ad",
        "meta": {
          "profile": [
            "http://hl7.org/fhir/uv/ips/StructureDefinition/Medication-uv-ips"
          ]
        },
        "code": {
          "coding": [
            {
              "code": "858817",
              "system": "http://www.nlm.nih.gov/research/umls/rxnorm",
              "display": "enalapril maleate 10 MG Oral Tablet"
            },
            {
              "code": "318853004",
              "system": "http://snomed.info/sct",
              "display": "Product containing precisely enalapril maleate 10 milligram/1 each conventional release oral tablet (clinical drug)"
            }
          ],
          "text": "Enalapril maleate 10 mg oral tablet"
        },
        "form": {
          "coding": [
            {
              "code": "421026006",
              "system": "http://snomed.info/sct",
              "display": "Oral tablet"
            }
          ]
        },
        "ingredient": [
          {
            "itemCodeableConcept": {
              "coding": [
                {
                  "code": "387165009",
                  "system": "http://snomed.info/sct",
                  "display": "Enalapril maleate"
                }
              ]
            },
            "isActive": true
          }
        ]
      }
    },
    {
      "fullUrl": "urn:uuid:c1bc4824-ff68-4634-932f-994e4be29bf6",
      "resource": {
        "resourceType": "MedicationStatement",
        "id": "c1bc4824-ff68-4634-932f-994e4be29bf6",
        "effectivePeriod": {
          "start": "2015-02-21"
        },
        "dosage": [
          {
            "doseAndRate": [
              {
                "doseQuantity": {
                  "value": 1,
                  "unit": "{tbl}",
                  "code": "{tbl}"
                }
              }
            ],
            "timing": {
              "repeat": {
                "frequency": 1,
                "period": 1,
                "periodUnit": "d"
              }
            },
            "text": "1 tablet (10 mg) by mouth once daily",
            "asNeededBoolean": false
          }
        ],
        "status": "active",
        "medicationReference": {
          "reference": "Medication/5b7cfd25-2a7c-4eda-965d-73ae789128ad",
          "display": "Enalapril maleate 10 mg oral tablet"
        },
        "subject": {
          "reference": "Patient/139fada0-a416-4ad8-a688-b2196f133b08",
          "display": "Ludwig Hedlund"
        }
      }
    },
    {
      "fullUrl": "urn:uuid:d7cfa709-1fdd-489d-b3ff-df055feb6795",
      "resource": {
        "resourceType": "Medication",
        "id": "d7cfa709-1fdd-489d-b3ff-df055feb6795",
        "meta": {
          "profile": [
            "http://hl7.org/fhir/uv/ips/StructureDefinition/Medication-uv-ips"
          ]
        },
        "code": {
          "coding": [
            {
              "code": "2001499",
              "system": "http://www.nlm.nih.gov/research/umls/rxnorm",
              "display": "Vitamin B12 5 MG/ML Injectable Solution"
            }
          ],
          "text": "Vitamin B12 5 MG/ML Injectable Solution"
        }
      }
    },
    {
      "fullUrl": "urn:uuid:47e77c10-c7c9-4292-9c3d-5b5aab88ef42",
      "resource": {
        "resourceType": "MedicationStatement",
        "id": "47e77c10-c7c9-4292-9c3d-5b5aab88ef42",
        "effectivePeriod": {
          "start": "1976-06-18"
        },
        "dosage": [
          {
            "doseAndRate": [
              {
                "doseQuantity": {
                  "value": 5,
                  "unit": "mg",
                  "code": "mg"
                }
              }
            ],
            "timing": {
              "repeat": {
                "frequency": 1,
                "period": 1,
                "periodUnit": "wk"
              }
            },
            "text": "5 mg (1 mL) intramuscularly once weekly",
            "asNeededBoolean": false
          }
        ],
        "status": "active",
        "medicationReference": {
          "reference": "Medication/d7cfa709-1fdd-489d-b3ff-df055feb6795",
          "display": "Vitamin B12 5 MG/ML Injectable Solution"
        },
        "subject": {
          "reference": "Patient/139fada0-a416-4ad8-a688-b2196f133b08",
          "display": "Ludwig Hedlund"
        }
      }
    },
    {
      "fullUrl": "urn:uuid:f3ec122f-56f4-4dc3-832a-7359ae69d70c",
      "resource": {
        "resourceType": "Medication",
        "id": "f3ec122f-56f4-4dc3-832a-7359ae69d70c",
        "meta": {
          "profile": [
            "http://hl7.org/fhir/uv/ips/StructureDefinition/Medication-uv-ips"
          ]
        },
        "code": {
          "coding": [
            {
              "code": "106258",
              "system": "http://www.nlm.nih.gov/research/umls/rxnorm",
              "display": "hydrocortisone 10 MG/ML Topical Cream"
            },
            {
              "code": "331722005",
              "system": "http://snomed.info/sct",
              "display": "Product containing precisely hydrocortisone 10 milligram/1 gram and urea 100 milligram/1 gram conventional release cutaneous cream (clinical drug)"
            }
          ],
          "text": "Hydrocortisone 10 mg/g and urea 100 mg/g cutaneous cream"
        },
        "form": {
          "coding": [
            {
              "code": "421628006",
              "system": "http://snomed.info/sct",
              "display": "Cutaneous cream"
            }
          ]
        },
        "ingredient": [
          {
            "itemCodeableConcept": {
              "coding": [
                {
                  "code": "387092000",
                  "system": "http://snomed.info/sct",
                  "display": "Urea"
                }
              ]
            },
            "isActive": true
          }
        ]
      }
    },
    {
      "fullUrl": "urn:uuid:0babc61d-3ce7-458b-be2b-6aae5da6aa2c",
      "resource": {
        "resourceType": "MedicationStatement",
        "id": "0babc61d-3ce7-458b-be2b-6aae5da6aa2c",
        "effectivePeriod": {
          "start": "1965-06-20"
        },
        "dosage": [
          {
            "doseAndRate": [
              {
                "doseQuantity": {
                  "value": 1,
                  "unit": "application",
                  "code": "{application}"
                }
              }
            ],
            "timing": {
              "repeat": {
                "frequency": 2,
                "period": 1,
                "periodUnit": "d"
              }
            },
            "text": "Apply a thin layer (containing 10 mg/g hydrocortisone and 100 mg/g urea) to the affected area twice daily",
            "asNeededBoolean": false
          }
        ],
        "reasonCode": [
          {
            "coding": [
              {
                "code": "40275004",
                "system": "http://snomed.info/sct",
                "display": "Contact dermatitis (disorder)"
              }
            ]
          }
        ],
        "status": "active",
        "medicationReference": {
          "reference": "Medication/f3ec122f-56f4-4dc3-832a-7359ae69d70c",
          "display": "Hydrocortisone 10 mg/g and urea 100 mg/g cutaneous cream"
        },
        "subject": {
          "reference": "Patient/139fada0-a416-4ad8-a688-b2196f133b08",
          "display": "Ludwig Hedlund"
        }
      }
    },
    {
      "fullUrl": "urn:uuid:55c2e8a2-8996-4790-b566-f53798d64daa",
      "resource": {
        "resourceType": "AllergyIntolerance",
        "id": "55c2e8a2-8996-4790-b566-f53798d64daa",
        "meta": {
          "profile": [
            "http://hl7.eu/fhir/eps/StructureDefinition/allergyIntolerance-eu-eps"
          ]
        },
        "code": {
          "coding": [
            {
              "code": "609328004",
              "system": "http://snomed.info/sct",
              "display": "Allergic disposition (finding)"
            }
          ],
          "text": "Allergic disposition"
        },
        "category": [
          "environment"
        ],
        "verificationStatus": {
          "coding": [
            {
              "code": "confirmed"
            }
          ]
        },
        "type": "allergy",
        "onsetDateTime": "1965-07-03",
        "clinicalStatus": {
          "coding": [
            {
              "code": "active"
            }
          ]
        },
        "patient": {
          "reference": "Patient/139fada0-a416-4ad8-a688-b2196f133b08",
          "display": "Ludwig Hedlund"
        }
      }
    },
    {
      "fullUrl": "urn:uuid:6e2bc246-a177-4644-9fdf-7bcf83f9b150",
      "resource": {
        "resourceType": "Procedure",
        "id": "6e2bc246-a177-4644-9fdf-7bcf83f9b150",
        "meta": {
          "profile": [
            "http://hl7.org/fhir/uv/ips/StructureDefinition/Procedure-uv-ips"
          ]
        },
        "code": {
          "coding": [
            {
              "code": "417511005",
              "system": "http://snomed.info/sct",
              "display": "Referral to home health care service (procedure)"
            }
          ],
          "text": "Referral to home health care service"
        },
        "status": "completed",
        "subject": {
          "reference": "Patient/139fada0-a416-4ad8-a688-b2196f133b08",
          "display": "Ludwig Hedlund"
        },
        "performedDateTime": "2018-04-06"
      }
    },
    {
      "fullUrl": "urn:uuid:55004575-72a5-40be-9478-6b8997b84ec2",
      "resource": {
        "resourceType": "Immunization",
        "id": "55004575-72a5-40be-9478-6b8997b84ec2",
        "meta": {
          "profile": [
            "http://hl7.org/fhir/uv/ips/StructureDefinition/Immunization-uv-ips"
          ]
        },
        "vaccineCode": {
          "coding": [
            {
              "code": "1181000221105",
              "system": "http://snomed.info/sct",
              "display": "Vaccine product containing Influenza virus antigen"
            },
            {
              "code": "J07BB02",
              "system": "http://www.whocc.no/atc",
              "display": "Influenza, inactivated, split virus"
            },
            {
              "code": "140",
              "system": "http://hl7.org/fhir/sid/cvx",
              "display": "Influenza  seasonal  injectable  preservative free"
            }
          ],
          "text": "Influenza virus antigen only vaccine product"
        },
        "site": {
          "coding": [
            {
              "code": "73776007",
              "system": "http://snomed.info/sct",
              "display": "Structure of muscle of upper arm"
            }
          ],
          "text": "Structure of muscle of upper arm"
        },
        "route": {
          "coding": [
            {
              "code": "78421000",
              "system": "http://snomed.info/sct",
              "display": "Intramuscular route"
            }
          ],
          "text": "Intramuscular route"
        },
        "status": "completed",
        "patient": {
          "reference": "Patient/139fada0-a416-4ad8-a688-b2196f133b08",
          "display": "Ludwig Hedlund"
        },
        "occurrenceDateTime": "2024-09-13",
        "lotNumber": "VA-KHYkwg0",
        "expirationDate": "2024-12-01"
      }
    },
    {
      "fullUrl": "urn:uuid:99b30719-c654-4e4f-94f8-16f70a4a3ea2",
      "resource": {
        "resourceType": "Immunization",
        "id": "99b30719-c654-4e4f-94f8-16f70a4a3ea2",
        "meta": {
          "profile": [
            "http://hl7.org/fhir/uv/ips/StructureDefinition/Immunization-uv-ips"
          ]
        },
        "vaccineCode": {
          "coding": [
            {
              "code": "1119349007",
              "system": "http://snomed.info/sct",
              "display": "Vaccine product containing SARS-CoV-2 mRNA"
            },
            {
              "code": "J07BX03",
              "system": "http://www.whocc.no/atc",
              "display": "COVID-19 mRNA vaccines"
            },
            {
              "code": "208",
              "system": "http://hl7.org/fhir/sid/cvx",
              "display": "COVID-19  mRNA  LNP-S  PF  30 mcg/0.3 mL dose"
            }
          ],
          "text": "SARS-CoV-2 mRNA vaccine"
        },
        "site": {
          "coding": [
            {
              "code": "73776007",
              "system": "http://snomed.info/sct",
              "display": "Structure of muscle of upper arm"
            }
          ],
          "text": "Structure of muscle of upper arm"
        },
        "route": {
          "coding": [
            {
              "code": "78421000",
              "system": "http://snomed.info/sct",
              "display": "Intramuscular route"
            }
          ],
          "text": "Intramuscular route"
        },
        "status": "completed",
        "patient": {
          "reference": "Patient/139fada0-a416-4ad8-a688-b2196f133b08",
          "display": "Ludwig Hedlund"
        },
        "occurrenceDateTime": "2021-04-23",
        "lotNumber": "YJ-b9fEfUtA",
        "expirationDate": "2021-07-07"
      }
    },
    {
      "fullUrl": "urn:uuid:8d81b5ae-ce63-42cc-a7cf-a7bacc6029dd",
      "resource": {
        "resourceType": "Immunization",
        "id": "8d81b5ae-ce63-42cc-a7cf-a7bacc6029dd",
        "meta": {
          "profile": [
            "http://hl7.org/fhir/uv/ips/StructureDefinition/Immunization-uv-ips"
          ]
        },
        "vaccineCode": {
          "coding": [
            {
              "code": "777725002",
              "system": "http://snomed.info/sct",
              "display": "Vaccine product containing only Clostridium tetani toxoid antigen adsorbed"
            },
            {
              "code": "J07AM51",
              "system": "http://www.whocc.no/atc",
              "display": "Diphtheria-tetanus vaccines, adult type"
            },
            {
              "code": "113",
              "system": "http://hl7.org/fhir/sid/cvx",
              "display": "Td (adult)  5 Lf tetanus toxoid  preservative free  adsorbed"
            }
          ],
          "text": "Clostridium tetani toxoid antigen adsorbed only vaccine product"
        },
        "site": {
          "coding": [
            {
              "code": "73776007",
              "system": "http://snomed.info/sct",
              "display": "Structure of muscle of upper arm"
            }
          ],
          "text": "Structure of muscle of upper arm"
        },
        "route": {
          "coding": [
            {
              "code": "78421000",
              "system": "http://snomed.info/sct",
              "display": "Intramuscular route"
            }
          ],
          "text": "Intramuscular route"
        },
        "status": "completed",
        "patient": {
          "reference": "Patient/139fada0-a416-4ad8-a688-b2196f133b08",
          "display": "Ludwig Hedlund"
        },
        "occurrenceDateTime": "2016-07-29",
        "lotNumber": "QS-oSSgj",
        "expirationDate": "2016-11-18"
      }
    }
  ],
  "type": "document",
  "timestamp": "2025-06-16T17:28:57Z"
}
