{
  "resourceType": "Bundle",
  "id": "Instance-Bundle-92b9d26e-6e60-4c62-a79d-7886e19495d6",
  "meta": {
    "profile": [
      "http://hl7.eu/fhir/eps/StructureDefinition/bundle-eu-eps"
    ]
  },
  "identifier": {
    "assigner": {
      "display": "HL7 Europe"
    },
    "system": "urn:oid:2.16.840.1.113883.2.51.999",
    "value": "128aa090-1be9-4a37-80ea-a821251f4d8b"
  },
  "entry": [
    {
      "fullUrl": "urn:uuid:60da3cfd-9425-4bd3-a38a-a3ea5e6a6a07",
      "resource": {
        "resourceType": "Composition",
        "id": "60da3cfd-9425-4bd3-a38a-a3ea5e6a6a07",
        "meta": {
          "profile": [
            "http://hl7.eu/fhir/eps/StructureDefinition/composition-eu-eps"
          ]
        },
        "identifier": {
          "assigner": {
            "display": "HL7 Europe"
          },
          "system": "urn:oid:2.16.840.1.113883.2.51.999",
          "value": "74f9e7d8-d93c-44fa-92a8-1430ee9a2795"
        },
        "type": {
          "coding": [
            {
              "system": "http://loinc.org",
              "code": "60591-5",
              "display": "European Patient Summary"
            }
          ],
          "text": "European Patient Summary"
        },
        "author": [
          {
            "reference": "urn:uuid:4800a3a6-8809-4695-9519-6f4e6002153b"
          }
        ],
        "section": [
          {
            "text": {
              "status": "generated",
              "div": "<div xmlns=\"http://www.w3.org/1999/xhtml\"><table class=\"hl7__ips\"><tr><td>Acute ST segment elevation myocardial infarction</td><td>2022-07-11</td><td>active</td></tr><tr><td>Essential hypertension</td><td>2022-01-01</td><td>active</td></tr><tr><td>Osteoarthritis of knee</td><td>2013-06-08</td><td>active</td></tr><tr><td>Myocardial infarction</td><td>2022-07-11</td><td>inactive</td></tr><tr><td>COVID-19</td><td>2021-04-07</td><td>inactive</td></tr><tr><td>Gingivitis</td><td>2020-12-26</td><td>inactive</td></tr><tr><td>Viral sinusitis</td><td>2017-12-15</td><td>inactive</td></tr></table></div>"
            },
            "entry": [
              {
                "reference": "urn:uuid:7b48bab8-4975-49e2-ba0e-1886e7b9d222"
              },
              {
                "reference": "urn:uuid:7a1c8074-ab6a-4140-b2e1-fd13d95126c5"
              },
              {
                "reference": "urn:uuid:b777f901-d568-40ae-aab1-55aab436a3c9"
              },
              {
                "reference": "urn:uuid:ba42fd47-9939-417d-9fdf-26ae31442860"
              },
              {
                "reference": "urn:uuid:625a4c2a-8dad-44b5-bfb2-7b11dfe168e8"
              },
              {
                "reference": "urn:uuid:5d3ffb35-0a9b-45d8-ab6a-16fe237a8434"
              },
              {
                "reference": "urn:uuid:88985115-21bb-4ecb-ae6b-0be482ca7f71"
              }
            ],
            "code": {
              "coding": [
                {
                  "system": "http://loinc.org",
                  "code": "11450-4",
                  "display": "Problem list - Reported"
                }
              ]
            },
            "title": "Problem list"
          },
          {
            "text": {
              "status": "generated",
              "div": "<div xmlns=\"http://www.w3.org/1999/xhtml\"><table class=\"hl7__ips\"><tr><td>Hydrochlorothiazide 25 mg oral tablet</td><td>2025-01-18</td><td>Oral tablet</td><td>1 tablet (25 mg) by mouth once daily\"</td><td>Reason: Essential hypertension (disorder)</td></tr><tr><td>Albuterol (as albuterol sulfate) 210 microgram/mL solution for inhalation</td><td>2025-01-18</td><td>Solution for inhalation</td><td>2 puffs (420 micrograms) every 4 to 6 hours as needed\"</td><td>Reason: Childhood asthma (disorder)</td></tr><tr><td>120 ACTUAT fluticasone propionate 0.044 MG/ACTUAT Metered Dose Inhaler [Flovent]</td><td>2025-01-18</td><td></td><td>44 mcg per actuation, 2 actuations twice daily\"</td><td>Reason: Childhood asthma (disorder)</td></tr><tr><td>aspirin 81 MG Oral Tablet</td><td>2022-07-11</td><td></td><td>1 tablet (81 mg) by mouth once daily\"</td><td></td></tr><tr><td>Metoprolol tartrate 50 mg oral tablet</td><td>2022-07-11</td><td>Oral tablet</td><td>1 tablet (50 mg) twice daily\"</td><td></td></tr><tr><td>Pravastatin sodium 40 mg oral tablet</td><td>2022-07-11</td><td>Oral tablet</td><td>1 tablet (40 mg) by mouth once daily\"</td><td></td></tr><tr><td>Losartan potassium 50 mg oral tablet</td><td>2022-07-11</td><td>Oral tablet</td><td>1 tablet (50 mg) by mouth once daily\"</td><td></td></tr><tr><td>Naproxen sodium 220 MG Oral Tablet</td><td>2013-06-08</td><td></td><td>1 tablet (220 mg) every 8 to 12 hours as needed\"</td><td>Reason: Osteoarthritis of knee (disorder)</td></tr><tr><td>Diphenhydramine hydrochloride 25 mg oral tablet</td><td>1966-04-13</td><td>Oral tablet</td><td>1 tablet (25 mg) by mouth every 6 hours as needed\"</td><td></td></tr></table></div>"
            },
            "entry": [
              {
                "reference": "urn:uuid:efd86629-6c31-4c7b-a44d-65f7004770de"
              },
              {
                "reference": "urn:uuid:bda9879a-24d0-4f75-9078-52311a477d1f"
              },
              {
                "reference": "urn:uuid:c0e5ee5f-9cc1-484f-8965-bdd911ed289c"
              },
              {
                "reference": "urn:uuid:b24c8b92-a282-4788-9a27-2aa0f142eb15"
              },
              {
                "reference": "urn:uuid:99796042-6abb-4d96-bf00-6fc6867786f9"
              },
              {
                "reference": "urn:uuid:67150c10-ae50-4764-ac00-a52cfe9c19e8"
              },
              {
                "reference": "urn:uuid:d6b5062a-01db-47ad-b93d-3d379035beec"
              },
              {
                "reference": "urn:uuid:adb38937-1ac8-4e0d-b65b-feeb851dc4f5"
              },
              {
                "reference": "urn:uuid:3c74147a-267c-44be-a768-1e9b8710876e"
              }
            ],
            "code": {
              "coding": [
                {
                  "system": "http://loinc.org",
                  "code": "10160-0",
                  "display": "History of Medication use Narrative"
                }
              ]
            },
            "title": "Medication list"
          },
          {
            "text": {
              "status": "generated",
              "div": "<div xmlns=\"http://www.w3.org/1999/xhtml\"><table class=\"hl7__ips\"><tr><td>Cow's milk</td><td>1964-03-27</td><td>active</td><td>food</td></tr><tr><td>Mold</td><td>1964-03-27</td><td>active</td><td>environment</td></tr><tr><td>Grass pollen</td><td>1964-03-27</td><td>active</td><td>environment</td></tr><tr><td>House dust mite</td><td>1964-03-27</td><td>active</td><td>environment</td></tr><tr><td>Animal dander</td><td>1964-03-27</td><td>active</td><td>environment</td></tr><tr><td>Bee venom</td><td>1964-03-27</td><td>active</td><td>environment</td></tr><tr><td>Wheat</td><td>1964-03-27</td><td>active</td><td>food</td></tr><tr><td>Allergic disposition</td><td>1964-03-27</td><td>active</td><td>environment</td></tr><tr><td>Fish</td><td>1964-03-27</td><td>active</td><td>food</td></tr><tr><td>Peanut</td><td>1964-03-27</td><td>active</td><td>food</td></tr><tr><td>Tree pollen</td><td>1964-03-27</td><td>active</td><td>environment</td></tr></table></div>"
            },
            "entry": [
              {
                "reference": "urn:uuid:0224948d-7f55-4001-a1c5-b661f108592a"
              },
              {
                "reference": "urn:uuid:c0bbfa97-92d3-4bc9-b18c-380acb246153"
              },
              {
                "reference": "urn:uuid:0802a682-996d-435f-a031-c5c47b813b31"
              },
              {
                "reference": "urn:uuid:26ac6adf-73e0-4a91-bd65-2423490cc262"
              },
              {
                "reference": "urn:uuid:65814ee7-a40f-4765-b75e-999f1b9aa4d2"
              },
              {
                "reference": "urn:uuid:f53d334c-5e09-4a98-9677-2869198cb066"
              },
              {
                "reference": "urn:uuid:4e717ca1-e429-4529-b833-0fff06e1bdbd"
              },
              {
                "reference": "urn:uuid:c64b5b24-4a3c-4979-afeb-e80d09e83cb4"
              },
              {
                "reference": "urn:uuid:a55f370c-71da-4d3e-a46b-d80fe2ff5c5b"
              },
              {
                "reference": "urn:uuid:cfa04527-e592-4ad3-bf8f-b5bd70887844"
              },
              {
                "reference": "urn:uuid:8a6b268e-8980-4817-ae9b-f98fa6c882f9"
              }
            ],
            "code": {
              "coding": [
                {
                  "system": "http://loinc.org",
                  "code": "48765-2",
                  "display": "Allergies and adverse reactions Document"
                }
              ]
            },
            "title": "Allergies and Intolerances"
          },
          {
            "text": {
              "status": "generated",
              "div": "<div xmlns=\"http://www.w3.org/1999/xhtml\"><table class=\"hl7__ips\"><tr><td>Laboratory test</td><td>2022-07-11</td><td>-</td></tr><tr><td>Electrocardiographic procedure</td><td>2022-07-11</td><td>-</td></tr><tr><td>Angiography of coronary artery</td><td>2022-07-11</td><td>-</td></tr><tr><td>Diagnostic assessment</td><td>2022-07-11</td><td>-</td></tr><tr><td>Oxygen administration by mask</td><td>2022-07-11</td><td>-</td></tr><tr><td>Plain X-ray of chest</td><td>2022-07-11</td><td>-</td></tr><tr><td>Percutaneous coronary intervention</td><td>2022-07-11</td><td>Acute ST segment elevation myocardial infarction (disorder)</td></tr><tr><td>Transthoracic echocardiography</td><td>2022-07-11</td><td>-</td></tr><tr><td>Consultation for treatment</td><td>2022-07-11</td><td>-</td></tr><tr><td>Assessment of cardiac status using monitoring device</td><td>2022-07-11</td><td>-</td></tr><tr><td>Depression screening</td><td>2017-12-23</td><td>-</td></tr><tr><td>Assessment of health and social care needs</td><td>2017-12-23</td><td>-</td></tr><tr><td>Screening for drug abuse</td><td>2017-12-23</td><td>-</td></tr><tr><td>Assessment of substance use</td><td>2017-12-23</td><td>-</td></tr></table></div>"
            },
            "entry": [
              {
                "reference": "urn:uuid:10610f99-3618-4ce4-a617-1031939da742"
              },
              {
                "reference": "urn:uuid:0ec00def-4128-40c9-9cd1-585264df47be"
              },
              {
                "reference": "urn:uuid:a6d5b550-fa51-427a-8c51-ad535f1079eb"
              },
              {
                "reference": "urn:uuid:8b9eee5d-8bf2-48f1-82ff-dfab39a89436"
              },
              {
                "reference": "urn:uuid:2ebd1dd7-a23b-4c5a-886d-5f0db8a6ecf9"
              },
              {
                "reference": "urn:uuid:b912e590-9056-4aff-96fc-53d6c144196c"
              },
              {
                "reference": "urn:uuid:33bb5d17-8f1a-4b78-a947-e9d4d1f29d5c"
              },
              {
                "reference": "urn:uuid:1e04c738-39e1-49f5-a7fe-25ca2410c712"
              },
              {
                "reference": "urn:uuid:f3e2760e-80af-4e15-87f7-7eac2392b85b"
              },
              {
                "reference": "urn:uuid:6d0254f8-a85a-41be-aa1f-716098cd536b"
              },
              {
                "reference": "urn:uuid:4c6300ba-1f4a-41e5-82e6-c2a204057e64"
              },
              {
                "reference": "urn:uuid:8bce2e2b-abd2-4701-b1fe-a497e58978b0"
              },
              {
                "reference": "urn:uuid:052f6dee-94a4-4768-8034-6d0e7ab2db1d"
              },
              {
                "reference": "urn:uuid:bb6699b7-35f3-486c-8364-f318c81b11aa"
              }
            ],
            "code": {
              "coding": [
                {
                  "system": "http://loinc.org",
                  "code": "47519-4",
                  "display": "History of Procedures Document"
                }
              ]
            },
            "title": "Procedure History list"
          },
          {
            "text": {
              "status": "generated",
              "div": "<div xmlns=\"http://www.w3.org/1999/xhtml\"><table class=\"hl7__ips\"><tr><td>Clostridium tetani toxoid antigen adsorbed only vaccine product</td><td>2025-01-18</td></tr><tr><td>Influenza virus antigen only vaccine product</td><td>2025-01-18</td></tr><tr><td>SARS-CoV-2 mRNA vaccine</td><td>2021-06-19</td></tr></table></div>"
            },
            "entry": [
              {
                "reference": "urn:uuid:13a36cff-b661-42e6-8d5c-d76697b04591"
              },
              {
                "reference": "urn:uuid:5f3ce734-9667-44ea-b73d-50b1fc17398d"
              },
              {
                "reference": "urn:uuid:0ce20403-8281-41d5-b263-8ae8112545dd"
              }
            ],
            "code": {
              "coding": [
                {
                  "system": "http://loinc.org",
                  "code": "11369-6",
                  "display": "History of Immunization Narrative"
                }
              ]
            },
            "title": "Immunizations list"
          }
        ],
        "title": "European Patient Summary",
        "status": "final",
        "subject": {
          "reference": "urn:uuid:b8d6d368-3082-4c2b-9e0a-a713a59e970f"
        },
        "custodian": {
          "reference": "urn:uuid:7156ea8e-e347-4f97-9a82-829599335cd8"
        },
        "date": "2025-06-16T17:19:49Z",
        "confidentiality": "N"
      }
    },
    {
      "fullUrl": "urn:uuid:b8d6d368-3082-4c2b-9e0a-a713a59e970f",
      "resource": {
        "resourceType": "Patient",
        "id": "b8d6d368-3082-4c2b-9e0a-a713a59e970f",
        "meta": {
          "profile": [
            "http://hl7.eu/fhir/eps/StructureDefinition/patient-eu-eps"
          ]
        },
        "identifier": [
          {
            "type": {
              "coding": [
                {
                  "code": "NI",
                  "system": "http://terminology.hl7.org/CodeSystem/v2-0203"
                }
              ]
            },
            "system": "http://ec.europa.eu/identifier/eci",
            "value": "7881-148846-5"
          },
          {
            "type": {
              "coding": [
                {
                  "code": "MR",
                  "system": "http://terminology.hl7.org/CodeSystem/v2-0203"
                }
              ]
            },
            "system": "http://local.setting.eu/identifier",
            "value": "bed37cba-fdac-83fd-b384-1ec6ce409df3"
          }
        ],
        "name": [
          {
            "given": [
              "Oskar"
            ],
            "family": "Sæther",
            "text": "Oskar Sæther"
          }
        ],
        "address": [
          {
            "line": [
              "Lunde terrasse 228"
            ],
            "use": "home",
            "type": "physical",
            "city": "Porsgrunn",
            "postalCode": "3941",
            "country": "Norway"
          }
        ],
        "telecom": [
          {
            "system": "phone",
            "value": "+47 976 44 157"
          }
        ],
        "gender": "male",
        "birthDate": "1961-02-02"
      }
    },
    {
      "fullUrl": "urn:uuid:4800a3a6-8809-4695-9519-6f4e6002153b",
      "resource": {
        "resourceType": "PractitionerRole",
        "id": "4800a3a6-8809-4695-9519-6f4e6002153b",
        "meta": {
          "profile": [
            "http://hl7.eu/fhir/base/StructureDefinition/practitionerRole-eu"
          ]
        },
        "practitioner": {
          "reference": "urn:uuid:235815b7-22dc-4fd7-ad44-bfe43646d96d"
        },
        "organization": {
          "reference": "urn:uuid:7156ea8e-e347-4f97-9a82-829599335cd8"
        }
      }
    },
    {
      "fullUrl": "urn:uuid:235815b7-22dc-4fd7-ad44-bfe43646d96d",
      "resource": {
        "resourceType": "Practitioner",
        "id": "235815b7-22dc-4fd7-ad44-bfe43646d96d",
        "meta": {
          "profile": [
            "http://hl7.eu/fhir/base/StructureDefinition/practitioner-eu"
          ]
        },
        "name": [
          {
            "prefix": [
              "Dr."
            ],
            "given": [
              "Hel"
            ],
            "family": "Ping"
          }
        ]
      }
    },
    {
      "fullUrl": "urn:uuid:7b48bab8-4975-49e2-ba0e-1886e7b9d222",
      "resource": {
        "resourceType": "Condition",
        "id": "7b48bab8-4975-49e2-ba0e-1886e7b9d222",
        "meta": {
          "profile": [
            "http://hl7.org/fhir/uv/ips/StructureDefinition/Condition-uv-ips"
          ]
        },
        "category": [
          {
            "coding": [
              {
                "code": "problem-list-item",
                "system": "http://terminology.hl7.org/CodeSystem/condition-category",
                "display": "Problem List Item"
              }
            ]
          }
        ],
        "code": {
          "coding": [
            {
              "code": "401303003",
              "system": "http://snomed.info/sct",
              "display": "Acute ST segment elevation myocardial infarction (disorder)"
            }
          ],
          "text": "Acute ST segment elevation myocardial infarction"
        },
        "onsetDateTime": "2022-07-11",
        "clinicalStatus": {
          "coding": [
            {
              "code": "active",
              "system": "http://terminology.hl7.org/CodeSystem/condition-clinical"
            }
          ]
        },
        "subject": {
          "reference": "Patient/b8d6d368-3082-4c2b-9e0a-a713a59e970f",
          "display": "Oskar Sæther"
        },
        "asserter": {
          "reference": "Practitioner/235815b7-22dc-4fd7-ad44-bfe43646d96d",
          "display": "Dr. Hel Ping"
        }
      }
    },
    {
      "fullUrl": "urn:uuid:7a1c8074-ab6a-4140-b2e1-fd13d95126c5",
      "resource": {
        "resourceType": "Condition",
        "id": "7a1c8074-ab6a-4140-b2e1-fd13d95126c5",
        "meta": {
          "profile": [
            "http://hl7.org/fhir/uv/ips/StructureDefinition/Condition-uv-ips"
          ]
        },
        "category": [
          {
            "coding": [
              {
                "code": "problem-list-item",
                "system": "http://terminology.hl7.org/CodeSystem/condition-category",
                "display": "Problem List Item"
              }
            ]
          }
        ],
        "code": {
          "coding": [
            {
              "code": "59621000",
              "system": "http://snomed.info/sct",
              "display": "Essential hypertension (disorder)"
            }
          ],
          "text": "Essential hypertension"
        },
        "onsetDateTime": "2022-01-01",
        "clinicalStatus": {
          "coding": [
            {
              "code": "active",
              "system": "http://terminology.hl7.org/CodeSystem/condition-clinical"
            }
          ]
        },
        "subject": {
          "reference": "Patient/b8d6d368-3082-4c2b-9e0a-a713a59e970f",
          "display": "Oskar Sæther"
        },
        "asserter": {
          "reference": "Practitioner/235815b7-22dc-4fd7-ad44-bfe43646d96d",
          "display": "Dr. Hel Ping"
        }
      }
    },
    {
      "fullUrl": "urn:uuid:b777f901-d568-40ae-aab1-55aab436a3c9",
      "resource": {
        "resourceType": "Condition",
        "id": "b777f901-d568-40ae-aab1-55aab436a3c9",
        "meta": {
          "profile": [
            "http://hl7.org/fhir/uv/ips/StructureDefinition/Condition-uv-ips"
          ]
        },
        "category": [
          {
            "coding": [
              {
                "code": "problem-list-item",
                "system": "http://terminology.hl7.org/CodeSystem/condition-category",
                "display": "Problem List Item"
              }
            ]
          }
        ],
        "code": {
          "coding": [
            {
              "code": "239873007",
              "system": "http://snomed.info/sct",
              "display": "Osteoarthritis of knee (disorder)"
            }
          ],
          "text": "Osteoarthritis of knee"
        },
        "onsetDateTime": "2013-06-08",
        "clinicalStatus": {
          "coding": [
            {
              "code": "active",
              "system": "http://terminology.hl7.org/CodeSystem/condition-clinical"
            }
          ]
        },
        "subject": {
          "reference": "Patient/b8d6d368-3082-4c2b-9e0a-a713a59e970f",
          "display": "Oskar Sæther"
        },
        "asserter": {
          "reference": "Practitioner/235815b7-22dc-4fd7-ad44-bfe43646d96d",
          "display": "Dr. Hel Ping"
        }
      }
    },
    {
      "fullUrl": "urn:uuid:ba42fd47-9939-417d-9fdf-26ae31442860",
      "resource": {
        "resourceType": "Condition",
        "id": "ba42fd47-9939-417d-9fdf-26ae31442860",
        "meta": {
          "profile": [
            "http://hl7.org/fhir/uv/ips/StructureDefinition/Condition-uv-ips"
          ]
        },
        "category": [
          {
            "coding": [
              {
                "code": "problem-list-item",
                "system": "http://terminology.hl7.org/CodeSystem/condition-category",
                "display": "Problem List Item"
              }
            ]
          }
        ],
        "code": {
          "coding": [
            {
              "code": "22298006",
              "system": "http://snomed.info/sct",
              "display": "Myocardial infarction (disorder)"
            }
          ],
          "text": "Myocardial infarction"
        },
        "onsetDateTime": "2022-07-11",
        "clinicalStatus": {
          "coding": [
            {
              "code": "inactive",
              "system": "http://terminology.hl7.org/CodeSystem/condition-clinical"
            }
          ]
        },
        "subject": {
          "reference": "Patient/b8d6d368-3082-4c2b-9e0a-a713a59e970f",
          "display": "Oskar Sæther"
        },
        "asserter": {
          "reference": "Practitioner/235815b7-22dc-4fd7-ad44-bfe43646d96d",
          "display": "Dr. Hel Ping"
        }
      }
    },
    {
      "fullUrl": "urn:uuid:625a4c2a-8dad-44b5-bfb2-7b11dfe168e8",
      "resource": {
        "resourceType": "Condition",
        "id": "625a4c2a-8dad-44b5-bfb2-7b11dfe168e8",
        "meta": {
          "profile": [
            "http://hl7.org/fhir/uv/ips/StructureDefinition/Condition-uv-ips"
          ]
        },
        "category": [
          {
            "coding": [
              {
                "code": "problem-list-item",
                "system": "http://terminology.hl7.org/CodeSystem/condition-category",
                "display": "Problem List Item"
              }
            ]
          }
        ],
        "code": {
          "coding": [
            {
              "code": "840539006",
              "system": "http://snomed.info/sct",
              "display": "Disease caused by severe acute respiratory syndrome coronavirus 2 (disorder)"
            }
          ],
          "text": "COVID-19"
        },
        "onsetDateTime": "2021-04-07",
        "clinicalStatus": {
          "coding": [
            {
              "code": "inactive",
              "system": "http://terminology.hl7.org/CodeSystem/condition-clinical"
            }
          ]
        },
        "subject": {
          "reference": "Patient/b8d6d368-3082-4c2b-9e0a-a713a59e970f",
          "display": "Oskar Sæther"
        },
        "asserter": {
          "reference": "Practitioner/235815b7-22dc-4fd7-ad44-bfe43646d96d",
          "display": "Dr. Hel Ping"
        }
      }
    },
    {
      "fullUrl": "urn:uuid:5d3ffb35-0a9b-45d8-ab6a-16fe237a8434",
      "resource": {
        "resourceType": "Condition",
        "id": "5d3ffb35-0a9b-45d8-ab6a-16fe237a8434",
        "meta": {
          "profile": [
            "http://hl7.org/fhir/uv/ips/StructureDefinition/Condition-uv-ips"
          ]
        },
        "category": [
          {
            "coding": [
              {
                "code": "problem-list-item",
                "system": "http://terminology.hl7.org/CodeSystem/condition-category",
                "display": "Problem List Item"
              }
            ]
          }
        ],
        "code": {
          "coding": [
            {
              "code": "66383009",
              "system": "http://snomed.info/sct",
              "display": "Gingivitis (disorder)"
            }
          ],
          "text": "Gingivitis"
        },
        "onsetDateTime": "2020-12-26",
        "clinicalStatus": {
          "coding": [
            {
              "code": "inactive",
              "system": "http://terminology.hl7.org/CodeSystem/condition-clinical"
            }
          ]
        },
        "subject": {
          "reference": "Patient/b8d6d368-3082-4c2b-9e0a-a713a59e970f",
          "display": "Oskar Sæther"
        },
        "asserter": {
          "reference": "Practitioner/235815b7-22dc-4fd7-ad44-bfe43646d96d",
          "display": "Dr. Hel Ping"
        }
      }
    },
    {
      "fullUrl": "urn:uuid:88985115-21bb-4ecb-ae6b-0be482ca7f71",
      "resource": {
        "resourceType": "Condition",
        "id": "88985115-21bb-4ecb-ae6b-0be482ca7f71",
        "meta": {
          "profile": [
            "http://hl7.org/fhir/uv/ips/StructureDefinition/Condition-uv-ips"
          ]
        },
        "category": [
          {
            "coding": [
              {
                "code": "problem-list-item",
                "system": "http://terminology.hl7.org/CodeSystem/condition-category",
                "display": "Problem List Item"
              }
            ]
          }
        ],
        "code": {
          "coding": [
            {
              "code": "444814009",
              "system": "http://snomed.info/sct",
              "display": "Viral sinusitis (disorder)"
            }
          ],
          "text": "Viral sinusitis"
        },
        "onsetDateTime": "2017-12-15",
        "clinicalStatus": {
          "coding": [
            {
              "code": "inactive",
              "system": "http://terminology.hl7.org/CodeSystem/condition-clinical"
            }
          ]
        },
        "subject": {
          "reference": "Patient/b8d6d368-3082-4c2b-9e0a-a713a59e970f",
          "display": "Oskar Sæther"
        },
        "asserter": {
          "reference": "Practitioner/235815b7-22dc-4fd7-ad44-bfe43646d96d",
          "display": "Dr. Hel Ping"
        }
      }
    },
    {
      "fullUrl": "urn:uuid:4cc769df-ca3c-4223-bfe6-0c66449754e3",
      "resource": {
        "resourceType": "Medication",
        "id": "4cc769df-ca3c-4223-bfe6-0c66449754e3",
        "meta": {
          "profile": [
            "http://hl7.org/fhir/uv/ips/StructureDefinition/Medication-uv-ips"
          ]
        },
        "code": {
          "coding": [
            {
              "code": "310798",
              "system": "http://www.nlm.nih.gov/research/umls/rxnorm",
              "display": "hydrochlorothiazide 25 MG Oral Tablet"
            },
            {
              "code": "376209006",
              "system": "http://snomed.info/sct",
              "display": "Product containing precisely hydrochlorothiazide 25 milligram/1 each conventional release oral tablet (clinical drug)"
            }
          ],
          "text": "Hydrochlorothiazide 25 mg oral tablet"
        },
        "form": {
          "coding": [
            {
              "code": "421026006",
              "system": "http://snomed.info/sct",
              "display": "Oral tablet"
            }
          ]
        },
        "ingredient": [
          {
            "itemCodeableConcept": {
              "coding": [
                {
                  "code": "387525002",
                  "system": "http://snomed.info/sct",
                  "display": "Hydrochlorothiazide"
                }
              ]
            },
            "isActive": true
          }
        ]
      }
    },
    {
      "fullUrl": "urn:uuid:efd86629-6c31-4c7b-a44d-65f7004770de",
      "resource": {
        "resourceType": "MedicationStatement",
        "id": "efd86629-6c31-4c7b-a44d-65f7004770de",
        "effectivePeriod": {
          "start": "2025-01-18"
        },
        "dosage": [
          {
            "doseAndRate": [
              {
                "doseQuantity": {
                  "value": 1,
                  "unit": "{tbl}",
                  "code": "{tbl}"
                }
              }
            ],
            "timing": {
              "repeat": {
                "frequency": 1,
                "period": 1,
                "periodUnit": "d"
              }
            },
            "text": "1 tablet (25 mg) by mouth once daily",
            "asNeededBoolean": false
          }
        ],
        "reasonCode": [
          {
            "coding": [
              {
                "code": "59621000",
                "system": "http://snomed.info/sct",
                "display": "Essential hypertension (disorder)"
              }
            ]
          }
        ],
        "status": "active",
        "medicationReference": {
          "reference": "Medication/4cc769df-ca3c-4223-bfe6-0c66449754e3",
          "display": "Hydrochlorothiazide 25 mg oral tablet"
        },
        "subject": {
          "reference": "Patient/b8d6d368-3082-4c2b-9e0a-a713a59e970f",
          "display": "Oskar Sæther"
        }
      }
    },
    {
      "fullUrl": "urn:uuid:d39a3fbd-d5a2-4ffa-a00b-927ac0f02529",
      "resource": {
        "resourceType": "Medication",
        "id": "d39a3fbd-d5a2-4ffa-a00b-927ac0f02529",
        "meta": {
          "profile": [
            "http://hl7.org/fhir/uv/ips/StructureDefinition/Medication-uv-ips"
          ]
        },
        "code": {
          "coding": [
            {
              "code": "351137",
              "system": "http://www.nlm.nih.gov/research/umls/rxnorm",
              "display": "albuterol 0.21 MG/ML Inhalation Solution"
            },
            {
              "code": "375336001",
              "system": "http://snomed.info/sct",
              "display": "Product containing precisely salbutamol (as salbutamol sulfate) 210 microgram/1 milliliter conventional release solution for inhalation (clinical drug)"
            }
          ],
          "text": "Albuterol (as albuterol sulfate) 210 microgram/mL solution for inhalation"
        },
        "form": {
          "coding": [
            {
              "code": "420641004",
              "system": "http://snomed.info/sct",
              "display": "Solution for inhalation"
            }
          ]
        },
        "ingredient": [
          {
            "itemCodeableConcept": {
              "coding": [
                {
                  "code": "48474002",
                  "system": "http://snomed.info/sct",
                  "display": "Albuterol sulfate"
                }
              ]
            },
            "isActive": true
          }
        ]
      }
    },
    {
      "fullUrl": "urn:uuid:bda9879a-24d0-4f75-9078-52311a477d1f",
      "resource": {
        "resourceType": "MedicationStatement",
        "id": "bda9879a-24d0-4f75-9078-52311a477d1f",
        "effectivePeriod": {
          "start": "2025-01-18"
        },
        "dosage": [
          {
            "doseAndRate": [
              {
                "doseQuantity": {
                  "value": 420,
                  "unit": "microgram",
                  "code": "ug"
                }
              }
            ],
            "timing": {
              "repeat": {
                "frequency": 1,
                "period": 4,
                "periodUnit": "h"
              }
            },
            "text": "2 puffs (420 micrograms) every 4 to 6 hours as needed",
            "asNeededBoolean": true
          }
        ],
        "reasonCode": [
          {
            "coding": [
              {
                "code": "233678006",
                "system": "http://snomed.info/sct",
                "display": "Childhood asthma (disorder)"
              }
            ]
          }
        ],
        "status": "active",
        "medicationReference": {
          "reference": "Medication/d39a3fbd-d5a2-4ffa-a00b-927ac0f02529",
          "display": "Albuterol (as albuterol sulfate) 210 microgram/mL solution for inhalation"
        },
        "subject": {
          "reference": "Patient/b8d6d368-3082-4c2b-9e0a-a713a59e970f",
          "display": "Oskar Sæther"
        }
      }
    },
    {
      "fullUrl": "urn:uuid:f2c8c841-5ab4-43d2-9b95-64f410662fc4",
      "resource": {
        "resourceType": "Medication",
        "id": "f2c8c841-5ab4-43d2-9b95-64f410662fc4",
        "meta": {
          "profile": [
            "http://hl7.org/fhir/uv/ips/StructureDefinition/Medication-uv-ips"
          ]
        },
        "code": {
          "coding": [
            {
              "code": "895996",
              "system": "http://www.nlm.nih.gov/research/umls/rxnorm",
              "display": "120 ACTUAT fluticasone propionate 0.044 MG/ACTUAT Metered Dose Inhaler [Flovent]"
            }
          ],
          "text": "120 ACTUAT fluticasone propionate 0.044 MG/ACTUAT Metered Dose Inhaler [Flovent]"
        }
      }
    },
    {
      "fullUrl": "urn:uuid:c0e5ee5f-9cc1-484f-8965-bdd911ed289c",
      "resource": {
        "resourceType": "MedicationStatement",
        "id": "c0e5ee5f-9cc1-484f-8965-bdd911ed289c",
        "effectivePeriod": {
          "start": "2025-01-18"
        },
        "dosage": [
          {
            "doseAndRate": [
              {
                "doseQuantity": {
                  "value": 88,
                  "unit": "mcg",
                  "code": "mcg"
                }
              }
            ],
            "timing": {
              "repeat": {
                "frequency": 2,
                "period": 1,
                "periodUnit": "d"
              }
            },
            "text": "44 mcg per actuation, 2 actuations twice daily",
            "asNeededBoolean": false
          }
        ],
        "reasonCode": [
          {
            "coding": [
              {
                "code": "233678006",
                "system": "http://snomed.info/sct",
                "display": "Childhood asthma (disorder)"
              }
            ]
          }
        ],
        "status": "active",
        "medicationReference": {
          "reference": "Medication/f2c8c841-5ab4-43d2-9b95-64f410662fc4",
          "display": "120 ACTUAT fluticasone propionate 0.044 MG/ACTUAT Metered Dose Inhaler [Flovent]"
        },
        "subject": {
          "reference": "Patient/b8d6d368-3082-4c2b-9e0a-a713a59e970f",
          "display": "Oskar Sæther"
        }
      }
    },
    {
      "fullUrl": "urn:uuid:39f3b805-042a-468b-83bd-8ef0d708e9aa",
      "resource": {
        "resourceType": "Medication",
        "id": "39f3b805-042a-468b-83bd-8ef0d708e9aa",
        "meta": {
          "profile": [
            "http://hl7.org/fhir/uv/ips/StructureDefinition/Medication-uv-ips"
          ]
        },
        "code": {
          "coding": [
            {
              "code": "243670",
              "system": "http://www.nlm.nih.gov/research/umls/rxnorm",
              "display": "aspirin 81 MG Oral Tablet"
            }
          ],
          "text": "aspirin 81 MG Oral Tablet"
        }
      }
    },
    {
      "fullUrl": "urn:uuid:b24c8b92-a282-4788-9a27-2aa0f142eb15",
      "resource": {
        "resourceType": "MedicationStatement",
        "id": "b24c8b92-a282-4788-9a27-2aa0f142eb15",
        "effectivePeriod": {
          "start": "2022-07-11"
        },
        "dosage": [
          {
            "doseAndRate": [
              {
                "doseQuantity": {
                  "value": 1,
                  "unit": "{tbl}",
                  "code": "{tbl}"
                }
              }
            ],
            "timing": {
              "repeat": {
                "frequency": 1,
                "period": 1,
                "periodUnit": "d"
              }
            },
            "text": "1 tablet (81 mg) by mouth once daily",
            "asNeededBoolean": false
          }
        ],
        "status": "active",
        "medicationReference": {
          "reference": "Medication/39f3b805-042a-468b-83bd-8ef0d708e9aa",
          "display": "aspirin 81 MG Oral Tablet"
        },
        "subject": {
          "reference": "Patient/b8d6d368-3082-4c2b-9e0a-a713a59e970f",
          "display": "Oskar Sæther"
        }
      }
    },
    {
      "fullUrl": "urn:uuid:a5ffa76b-1824-49fa-a7ea-af800951ee96",
      "resource": {
        "resourceType": "Medication",
        "id": "a5ffa76b-1824-49fa-a7ea-af800951ee96",
        "meta": {
          "profile": [
            "http://hl7.org/fhir/uv/ips/StructureDefinition/Medication-uv-ips"
          ]
        },
        "code": {
          "coding": [
            {
              "code": "866514",
              "system": "http://www.nlm.nih.gov/research/umls/rxnorm",
              "display": "metoprolol tartrate 50 MG Oral Tablet"
            },
            {
              "code": "318475005",
              "system": "http://snomed.info/sct",
              "display": "Product containing precisely metoprolol tartrate 50 milligram/1 each conventional release oral tablet (clinical drug)"
            }
          ],
          "text": "Metoprolol tartrate 50 mg oral tablet"
        },
        "form": {
          "coding": [
            {
              "code": "421026006",
              "system": "http://snomed.info/sct",
              "display": "Oral tablet"
            }
          ]
        },
        "ingredient": [
          {
            "itemCodeableConcept": {
              "coding": [
                {
                  "code": "72770009",
                  "system": "http://snomed.info/sct",
                  "display": "Metoprolol tartrate"
                }
              ]
            },
            "isActive": true
          }
        ]
      }
    },
    {
      "fullUrl": "urn:uuid:99796042-6abb-4d96-bf00-6fc6867786f9",
      "resource": {
        "resourceType": "MedicationStatement",
        "id": "99796042-6abb-4d96-bf00-6fc6867786f9",
        "effectivePeriod": {
          "start": "2022-07-11"
        },
        "dosage": [
          {
            "doseAndRate": [
              {
                "doseQuantity": {
                  "value": 1,
                  "unit": "{tbl}",
                  "code": "{tbl}"
                }
              }
            ],
            "timing": {
              "repeat": {
                "frequency": 2,
                "period": 1,
                "periodUnit": "d"
              }
            },
            "text": "1 tablet (50 mg) twice daily",
            "asNeededBoolean": false
          }
        ],
        "status": "active",
        "medicationReference": {
          "reference": "Medication/a5ffa76b-1824-49fa-a7ea-af800951ee96",
          "display": "Metoprolol tartrate 50 mg oral tablet"
        },
        "subject": {
          "reference": "Patient/b8d6d368-3082-4c2b-9e0a-a713a59e970f",
          "display": "Oskar Sæther"
        }
      }
    },
    {
      "fullUrl": "urn:uuid:92d0f6b0-3875-4a5a-94c4-80f22d939848",
      "resource": {
        "resourceType": "Medication",
        "id": "92d0f6b0-3875-4a5a-94c4-80f22d939848",
        "meta": {
          "profile": [
            "http://hl7.org/fhir/uv/ips/StructureDefinition/Medication-uv-ips"
          ]
        },
        "code": {
          "coding": [
            {
              "code": "904475",
              "system": "http://www.nlm.nih.gov/research/umls/rxnorm",
              "display": "pravastatin sodium 40 MG Oral Tablet"
            },
            {
              "code": "320014009",
              "system": "http://snomed.info/sct",
              "display": "Product containing precisely pravastatin sodium 40 milligram/1 each conventional release oral tablet (clinical drug)"
            }
          ],
          "text": "Pravastatin sodium 40 mg oral tablet"
        },
        "form": {
          "coding": [
            {
              "code": "421026006",
              "system": "http://snomed.info/sct",
              "display": "Oral tablet"
            }
          ]
        },
        "ingredient": [
          {
            "itemCodeableConcept": {
              "coding": [
                {
                  "code": "96306007",
                  "system": "http://snomed.info/sct",
                  "display": "Pravastatin sodium"
                }
              ]
            },
            "isActive": true
          }
        ]
      }
    },
    {
      "fullUrl": "urn:uuid:67150c10-ae50-4764-ac00-a52cfe9c19e8",
      "resource": {
        "resourceType": "MedicationStatement",
        "id": "67150c10-ae50-4764-ac00-a52cfe9c19e8",
        "effectivePeriod": {
          "start": "2022-07-11"
        },
        "dosage": [
          {
            "doseAndRate": [
              {
                "doseQuantity": {
                  "value": 1,
                  "unit": "{tbl}",
                  "code": "{tbl}"
                }
              }
            ],
            "timing": {
              "repeat": {
                "frequency": 1,
                "period": 1,
                "periodUnit": "d"
              }
            },
            "text": "1 tablet (40 mg) by mouth once daily",
            "asNeededBoolean": false
          }
        ],
        "status": "active",
        "medicationReference": {
          "reference": "Medication/92d0f6b0-3875-4a5a-94c4-80f22d939848",
          "display": "Pravastatin sodium 40 mg oral tablet"
        },
        "subject": {
          "reference": "Patient/b8d6d368-3082-4c2b-9e0a-a713a59e970f",
          "display": "Oskar Sæther"
        }
      }
    },
    {
      "fullUrl": "urn:uuid:d7b60719-d3fb-41a4-9157-cbbbb16126b0",
      "resource": {
        "resourceType": "Medication",
        "id": "d7b60719-d3fb-41a4-9157-cbbbb16126b0",
        "meta": {
          "profile": [
            "http://hl7.org/fhir/uv/ips/StructureDefinition/Medication-uv-ips"
          ]
        },
        "code": {
          "coding": [
            {
              "code": "979492",
              "system": "http://www.nlm.nih.gov/research/umls/rxnorm",
              "display": "losartan potassium 50 MG Oral Tablet"
            },
            {
              "code": "318956006",
              "system": "http://snomed.info/sct",
              "display": "Product containing precisely losartan potassium 50 milligram/1 each conventional release oral tablet (clinical drug)"
            }
          ],
          "text": "Losartan potassium 50 mg oral tablet"
        },
        "form": {
          "coding": [
            {
              "code": "421026006",
              "system": "http://snomed.info/sct",
              "display": "Oral tablet"
            }
          ]
        },
        "ingredient": [
          {
            "itemCodeableConcept": {
              "coding": [
                {
                  "code": "108582002",
                  "system": "http://snomed.info/sct",
                  "display": "Losartan potassium"
                }
              ]
            },
            "isActive": true
          }
        ]
      }
    },
    {
      "fullUrl": "urn:uuid:d6b5062a-01db-47ad-b93d-3d379035beec",
      "resource": {
        "resourceType": "MedicationStatement",
        "id": "d6b5062a-01db-47ad-b93d-3d379035beec",
        "effectivePeriod": {
          "start": "2022-07-11"
        },
        "dosage": [
          {
            "doseAndRate": [
              {
                "doseQuantity": {
                  "value": 1,
                  "unit": "{tbl}",
                  "code": "{tbl}"
                }
              }
            ],
            "timing": {
              "repeat": {
                "frequency": 1,
                "period": 1,
                "periodUnit": "d"
              }
            },
            "text": "1 tablet (50 mg) by mouth once daily",
            "asNeededBoolean": false
          }
        ],
        "status": "active",
        "medicationReference": {
          "reference": "Medication/d7b60719-d3fb-41a4-9157-cbbbb16126b0",
          "display": "Losartan potassium 50 mg oral tablet"
        },
        "subject": {
          "reference": "Patient/b8d6d368-3082-4c2b-9e0a-a713a59e970f",
          "display": "Oskar Sæther"
        }
      }
    },
    {
      "fullUrl": "urn:uuid:117cc844-1cb6-4c7d-9a98-3269461ceeda",
      "resource": {
        "resourceType": "Medication",
        "id": "117cc844-1cb6-4c7d-9a98-3269461ceeda",
        "meta": {
          "profile": [
            "http://hl7.org/fhir/uv/ips/StructureDefinition/Medication-uv-ips"
          ]
        },
        "code": {
          "coding": [
            {
              "code": "849574",
              "system": "http://www.nlm.nih.gov/research/umls/rxnorm",
              "display": "Naproxen sodium 220 MG Oral Tablet"
            }
          ],
          "text": "Naproxen sodium 220 MG Oral Tablet"
        }
      }
    },
    {
      "fullUrl": "urn:uuid:adb38937-1ac8-4e0d-b65b-feeb851dc4f5",
      "resource": {
        "resourceType": "MedicationStatement",
        "id": "adb38937-1ac8-4e0d-b65b-feeb851dc4f5",
        "effectivePeriod": {
          "start": "2013-06-08"
        },
        "dosage": [
          {
            "doseAndRate": [
              {
                "doseQuantity": {
                  "value": 1,
                  "unit": "{tbl}",
                  "code": "{tbl}"
                }
              }
            ],
            "timing": {
              "repeat": {
                "frequency": 1,
                "period": 8,
                "periodUnit": "h"
              }
            },
            "text": "1 tablet (220 mg) every 8 to 12 hours as needed",
            "asNeededBoolean": true
          }
        ],
        "reasonCode": [
          {
            "coding": [
              {
                "code": "239873007",
                "system": "http://snomed.info/sct",
                "display": "Osteoarthritis of knee (disorder)"
              }
            ]
          }
        ],
        "status": "active",
        "medicationReference": {
          "reference": "Medication/117cc844-1cb6-4c7d-9a98-3269461ceeda",
          "display": "Naproxen sodium 220 MG Oral Tablet"
        },
        "subject": {
          "reference": "Patient/b8d6d368-3082-4c2b-9e0a-a713a59e970f",
          "display": "Oskar Sæther"
        }
      }
    },
    {
      "fullUrl": "urn:uuid:9d8c5c12-05d1-42c2-8bb4-1344873670f5",
      "resource": {
        "resourceType": "Medication",
        "id": "9d8c5c12-05d1-42c2-8bb4-1344873670f5",
        "meta": {
          "profile": [
            "http://hl7.org/fhir/uv/ips/StructureDefinition/Medication-uv-ips"
          ]
        },
        "code": {
          "coding": [
            {
              "code": "1049630",
              "system": "http://www.nlm.nih.gov/research/umls/rxnorm",
              "display": "diphenhydramine hydrochloride 25 MG Oral Tablet"
            },
            {
              "code": "320726008",
              "system": "http://snomed.info/sct",
              "display": "Product containing precisely diphenhydramine hydrochloride 25 milligram/1 each conventional release oral tablet (clinical drug)"
            }
          ],
          "text": "Diphenhydramine hydrochloride 25 mg oral tablet"
        },
        "form": {
          "coding": [
            {
              "code": "421026006",
              "system": "http://snomed.info/sct",
              "display": "Oral tablet"
            }
          ]
        },
        "ingredient": [
          {
            "itemCodeableConcept": {
              "coding": [
                {
                  "code": "19510001",
                  "system": "http://snomed.info/sct",
                  "display": "Diphenhydramine hydrochloride"
                }
              ]
            },
            "isActive": true
          }
        ]
      }
    },
    {
      "fullUrl": "urn:uuid:3c74147a-267c-44be-a768-1e9b8710876e",
      "resource": {
        "resourceType": "MedicationStatement",
        "id": "3c74147a-267c-44be-a768-1e9b8710876e",
        "effectivePeriod": {
          "start": "1966-04-13"
        },
        "dosage": [
          {
            "doseAndRate": [
              {
                "doseQuantity": {
                  "value": 1,
                  "unit": "{tbl}",
                  "code": "{tbl}"
                }
              }
            ],
            "timing": {
              "repeat": {
                "frequency": 4,
                "period": 1,
                "periodUnit": "d"
              }
            },
            "text": "1 tablet (25 mg) by mouth every 6 hours as needed",
            "asNeededBoolean": true
          }
        ],
        "status": "active",
        "medicationReference": {
          "reference": "Medication/9d8c5c12-05d1-42c2-8bb4-1344873670f5",
          "display": "Diphenhydramine hydrochloride 25 mg oral tablet"
        },
        "subject": {
          "reference": "Patient/b8d6d368-3082-4c2b-9e0a-a713a59e970f",
          "display": "Oskar Sæther"
        }
      }
    },
    {
      "fullUrl": "urn:uuid:0224948d-7f55-4001-a1c5-b661f108592a",
      "resource": {
        "resourceType": "AllergyIntolerance",
        "id": "0224948d-7f55-4001-a1c5-b661f108592a",
        "meta": {
          "profile": [
            "http://hl7.eu/fhir/eps/StructureDefinition/allergyIntolerance-eu-eps"
          ]
        },
        "code": {
          "coding": [
            {
              "code": "3718001",
              "system": "http://snomed.info/sct",
              "display": "Cow's milk (substance)"
            }
          ],
          "text": "Cow's milk"
        },
        "category": [
          "food"
        ],
        "reaction": [
          {
            "manifestation": [
              {
                "coding": [
                  {
                    "code": "247472004",
                    "system": "http://snomed.info/sct",
                    "display": "Wheal (finding)"
                  }
                ]
              }
            ]
          }
        ],
        "verificationStatus": {
          "coding": [
            {
              "code": "confirmed"
            }
          ]
        },
        "type": "allergy",
        "onsetDateTime": "1964-03-27",
        "clinicalStatus": {
          "coding": [
            {
              "code": "active"
            }
          ]
        },
        "patient": {
          "reference": "Patient/b8d6d368-3082-4c2b-9e0a-a713a59e970f",
          "display": "Oskar Sæther"
        }
      }
    },
    {
      "fullUrl": "urn:uuid:c0bbfa97-92d3-4bc9-b18c-380acb246153",
      "resource": {
        "resourceType": "AllergyIntolerance",
        "id": "c0bbfa97-92d3-4bc9-b18c-380acb246153",
        "meta": {
          "profile": [
            "http://hl7.eu/fhir/eps/StructureDefinition/allergyIntolerance-eu-eps"
          ]
        },
        "code": {
          "coding": [
            {
              "code": "84489001",
              "system": "http://snomed.info/sct",
              "display": "Mold (organism)"
            }
          ],
          "text": "Mold"
        },
        "category": [
          "environment"
        ],
        "verificationStatus": {
          "coding": [
            {
              "code": "confirmed"
            }
          ]
        },
        "type": "allergy",
        "onsetDateTime": "1964-03-27",
        "clinicalStatus": {
          "coding": [
            {
              "code": "active"
            }
          ]
        },
        "patient": {
          "reference": "Patient/b8d6d368-3082-4c2b-9e0a-a713a59e970f",
          "display": "Oskar Sæther"
        }
      }
    },
    {
      "fullUrl": "urn:uuid:0802a682-996d-435f-a031-c5c47b813b31",
      "resource": {
        "resourceType": "AllergyIntolerance",
        "id": "0802a682-996d-435f-a031-c5c47b813b31",
        "meta": {
          "profile": [
            "http://hl7.eu/fhir/eps/StructureDefinition/allergyIntolerance-eu-eps"
          ]
        },
        "code": {
          "coding": [
            {
              "code": "256277009",
              "system": "http://snomed.info/sct",
              "display": "Grass pollen (substance)"
            }
          ],
          "text": "Grass pollen"
        },
        "category": [
          "environment"
        ],
        "verificationStatus": {
          "coding": [
            {
              "code": "confirmed"
            }
          ]
        },
        "type": "allergy",
        "onsetDateTime": "1964-03-27",
        "clinicalStatus": {
          "coding": [
            {
              "code": "active"
            }
          ]
        },
        "patient": {
          "reference": "Patient/b8d6d368-3082-4c2b-9e0a-a713a59e970f",
          "display": "Oskar Sæther"
        }
      }
    },
    {
      "fullUrl": "urn:uuid:26ac6adf-73e0-4a91-bd65-2423490cc262",
      "resource": {
        "resourceType": "AllergyIntolerance",
        "id": "26ac6adf-73e0-4a91-bd65-2423490cc262",
        "meta": {
          "profile": [
            "http://hl7.eu/fhir/eps/StructureDefinition/allergyIntolerance-eu-eps"
          ]
        },
        "code": {
          "coding": [
            {
              "code": "260147004",
              "system": "http://snomed.info/sct",
              "display": "House dust mite (organism)"
            }
          ],
          "text": "House dust mite"
        },
        "category": [
          "environment"
        ],
        "verificationStatus": {
          "coding": [
            {
              "code": "confirmed"
            }
          ]
        },
        "type": "allergy",
        "onsetDateTime": "1964-03-27",
        "clinicalStatus": {
          "coding": [
            {
              "code": "active"
            }
          ]
        },
        "patient": {
          "reference": "Patient/b8d6d368-3082-4c2b-9e0a-a713a59e970f",
          "display": "Oskar Sæther"
        }
      }
    },
    {
      "fullUrl": "urn:uuid:65814ee7-a40f-4765-b75e-999f1b9aa4d2",
      "resource": {
        "resourceType": "AllergyIntolerance",
        "id": "65814ee7-a40f-4765-b75e-999f1b9aa4d2",
        "meta": {
          "profile": [
            "http://hl7.eu/fhir/eps/StructureDefinition/allergyIntolerance-eu-eps"
          ]
        },
        "code": {
          "coding": [
            {
              "code": "264287008",
              "system": "http://snomed.info/sct",
              "display": "Animal dander (substance)"
            }
          ],
          "text": "Animal dander"
        },
        "category": [
          "environment"
        ],
        "reaction": [
          {
            "manifestation": [
              {
                "coding": [
                  {
                    "code": "271807003",
                    "system": "http://snomed.info/sct",
                    "display": "Eruption of skin (disorder)"
                  }
                ]
              }
            ]
          }
        ],
        "verificationStatus": {
          "coding": [
            {
              "code": "confirmed"
            }
          ]
        },
        "type": "allergy",
        "onsetDateTime": "1964-03-27",
        "clinicalStatus": {
          "coding": [
            {
              "code": "active"
            }
          ]
        },
        "patient": {
          "reference": "Patient/b8d6d368-3082-4c2b-9e0a-a713a59e970f",
          "display": "Oskar Sæther"
        }
      }
    },
    {
      "fullUrl": "urn:uuid:f53d334c-5e09-4a98-9677-2869198cb066",
      "resource": {
        "resourceType": "AllergyIntolerance",
        "id": "f53d334c-5e09-4a98-9677-2869198cb066",
        "meta": {
          "profile": [
            "http://hl7.eu/fhir/eps/StructureDefinition/allergyIntolerance-eu-eps"
          ]
        },
        "code": {
          "coding": [
            {
              "code": "288328004",
              "system": "http://snomed.info/sct",
              "display": "Bee venom (substance)"
            }
          ],
          "text": "Bee venom"
        },
        "category": [
          "environment"
        ],
        "reaction": [
          {
            "manifestation": [
              {
                "coding": [
                  {
                    "code": "271807003",
                    "system": "http://snomed.info/sct",
                    "display": "Eruption of skin (disorder)"
                  }
                ]
              }
            ]
          }
        ],
        "verificationStatus": {
          "coding": [
            {
              "code": "confirmed"
            }
          ]
        },
        "type": "allergy",
        "onsetDateTime": "1964-03-27",
        "clinicalStatus": {
          "coding": [
            {
              "code": "active"
            }
          ]
        },
        "patient": {
          "reference": "Patient/b8d6d368-3082-4c2b-9e0a-a713a59e970f",
          "display": "Oskar Sæther"
        }
      }
    },
    {
      "fullUrl": "urn:uuid:4e717ca1-e429-4529-b833-0fff06e1bdbd",
      "resource": {
        "resourceType": "AllergyIntolerance",
        "id": "4e717ca1-e429-4529-b833-0fff06e1bdbd",
        "meta": {
          "profile": [
            "http://hl7.eu/fhir/eps/StructureDefinition/allergyIntolerance-eu-eps"
          ]
        },
        "code": {
          "coding": [
            {
              "code": "412071004",
              "system": "http://snomed.info/sct",
              "display": "Wheat (substance)"
            }
          ],
          "text": "Wheat"
        },
        "category": [
          "food"
        ],
        "reaction": [
          {
            "manifestation": [
              {
                "coding": [
                  {
                    "code": "62315008",
                    "system": "http://snomed.info/sct",
                    "display": "Diarrhea (finding)"
                  }
                ]
              }
            ]
          }
        ],
        "verificationStatus": {
          "coding": [
            {
              "code": "confirmed"
            }
          ]
        },
        "type": "allergy",
        "onsetDateTime": "1964-03-27",
        "clinicalStatus": {
          "coding": [
            {
              "code": "active"
            }
          ]
        },
        "patient": {
          "reference": "Patient/b8d6d368-3082-4c2b-9e0a-a713a59e970f",
          "display": "Oskar Sæther"
        }
      }
    },
    {
      "fullUrl": "urn:uuid:c64b5b24-4a3c-4979-afeb-e80d09e83cb4",
      "resource": {
        "resourceType": "AllergyIntolerance",
        "id": "c64b5b24-4a3c-4979-afeb-e80d09e83cb4",
        "meta": {
          "profile": [
            "http://hl7.eu/fhir/eps/StructureDefinition/allergyIntolerance-eu-eps"
          ]
        },
        "code": {
          "coding": [
            {
              "code": "609328004",
              "system": "http://snomed.info/sct",
              "display": "Allergic disposition (finding)"
            }
          ],
          "text": "Allergic disposition"
        },
        "category": [
          "environment"
        ],
        "verificationStatus": {
          "coding": [
            {
              "code": "confirmed"
            }
          ]
        },
        "type": "allergy",
        "onsetDateTime": "1964-03-27",
        "clinicalStatus": {
          "coding": [
            {
              "code": "active"
            }
          ]
        },
        "patient": {
          "reference": "Patient/b8d6d368-3082-4c2b-9e0a-a713a59e970f",
          "display": "Oskar Sæther"
        }
      }
    },
    {
      "fullUrl": "urn:uuid:a55f370c-71da-4d3e-a46b-d80fe2ff5c5b",
      "resource": {
        "resourceType": "AllergyIntolerance",
        "id": "a55f370c-71da-4d3e-a46b-d80fe2ff5c5b",
        "meta": {
          "profile": [
            "http://hl7.eu/fhir/eps/StructureDefinition/allergyIntolerance-eu-eps"
          ]
        },
        "code": {
          "coding": [
            {
              "code": "735971005",
              "system": "http://snomed.info/sct",
              "display": "Fish (substance)"
            }
          ],
          "text": "Fish"
        },
        "category": [
          "food"
        ],
        "reaction": [
          {
            "manifestation": [
              {
                "coding": [
                  {
                    "code": "271807003",
                    "system": "http://snomed.info/sct",
                    "display": "Eruption of skin (disorder)"
                  }
                ]
              }
            ]
          }
        ],
        "verificationStatus": {
          "coding": [
            {
              "code": "confirmed"
            }
          ]
        },
        "type": "allergy",
        "onsetDateTime": "1964-03-27",
        "clinicalStatus": {
          "coding": [
            {
              "code": "active"
            }
          ]
        },
        "patient": {
          "reference": "Patient/b8d6d368-3082-4c2b-9e0a-a713a59e970f",
          "display": "Oskar Sæther"
        }
      }
    },
    {
      "fullUrl": "urn:uuid:cfa04527-e592-4ad3-bf8f-b5bd70887844",
      "resource": {
        "resourceType": "AllergyIntolerance",
        "id": "cfa04527-e592-4ad3-bf8f-b5bd70887844",
        "meta": {
          "profile": [
            "http://hl7.eu/fhir/eps/StructureDefinition/allergyIntolerance-eu-eps"
          ]
        },
        "code": {
          "coding": [
            {
              "code": "762952008",
              "system": "http://snomed.info/sct",
              "display": "Peanut (substance)"
            }
          ],
          "text": "Peanut"
        },
        "category": [
          "food"
        ],
        "reaction": [
          {
            "manifestation": [
              {
                "coding": [
                  {
                    "code": "271807003",
                    "system": "http://snomed.info/sct",
                    "display": "Eruption of skin (disorder)"
                  }
                ]
              }
            ]
          }
        ],
        "verificationStatus": {
          "coding": [
            {
              "code": "confirmed"
            }
          ]
        },
        "type": "allergy",
        "onsetDateTime": "1964-03-27",
        "clinicalStatus": {
          "coding": [
            {
              "code": "active"
            }
          ]
        },
        "patient": {
          "reference": "Patient/b8d6d368-3082-4c2b-9e0a-a713a59e970f",
          "display": "Oskar Sæther"
        }
      }
    },
    {
      "fullUrl": "urn:uuid:8a6b268e-8980-4817-ae9b-f98fa6c882f9",
      "resource": {
        "resourceType": "AllergyIntolerance",
        "id": "8a6b268e-8980-4817-ae9b-f98fa6c882f9",
        "meta": {
          "profile": [
            "http://hl7.eu/fhir/eps/StructureDefinition/allergyIntolerance-eu-eps"
          ]
        },
        "code": {
          "coding": [
            {
              "code": "782576004",
              "system": "http://snomed.info/sct",
              "display": "Tree pollen (substance)"
            }
          ],
          "text": "Tree pollen"
        },
        "category": [
          "environment"
        ],
        "verificationStatus": {
          "coding": [
            {
              "code": "confirmed"
            }
          ]
        },
        "type": "allergy",
        "onsetDateTime": "1964-03-27",
        "clinicalStatus": {
          "coding": [
            {
              "code": "active"
            }
          ]
        },
        "patient": {
          "reference": "Patient/b8d6d368-3082-4c2b-9e0a-a713a59e970f",
          "display": "Oskar Sæther"
        }
      }
    },
    {
      "fullUrl": "urn:uuid:10610f99-3618-4ce4-a617-1031939da742",
      "resource": {
        "resourceType": "Procedure",
        "id": "10610f99-3618-4ce4-a617-1031939da742",
        "meta": {
          "profile": [
            "http://hl7.org/fhir/uv/ips/StructureDefinition/Procedure-uv-ips"
          ]
        },
        "code": {
          "coding": [
            {
              "code": "15220000",
              "system": "http://snomed.info/sct",
              "display": "Laboratory test (procedure)"
            }
          ],
          "text": "Laboratory test"
        },
        "status": "completed",
        "subject": {
          "reference": "Patient/b8d6d368-3082-4c2b-9e0a-a713a59e970f",
          "display": "Oskar Sæther"
        },
        "performedDateTime": "2022-07-11"
      }
    },
    {
      "fullUrl": "urn:uuid:0ec00def-4128-40c9-9cd1-585264df47be",
      "resource": {
        "resourceType": "Procedure",
        "id": "0ec00def-4128-40c9-9cd1-585264df47be",
        "meta": {
          "profile": [
            "http://hl7.org/fhir/uv/ips/StructureDefinition/Procedure-uv-ips"
          ]
        },
        "code": {
          "coding": [
            {
              "code": "29303009",
              "system": "http://snomed.info/sct",
              "display": "Electrocardiographic procedure (procedure)"
            }
          ],
          "text": "Electrocardiographic procedure"
        },
        "status": "completed",
        "subject": {
          "reference": "Patient/b8d6d368-3082-4c2b-9e0a-a713a59e970f",
          "display": "Oskar Sæther"
        },
        "performedDateTime": "2022-07-11"
      }
    },
    {
      "fullUrl": "urn:uuid:a6d5b550-fa51-427a-8c51-ad535f1079eb",
      "resource": {
        "resourceType": "Procedure",
        "id": "a6d5b550-fa51-427a-8c51-ad535f1079eb",
        "meta": {
          "profile": [
            "http://hl7.org/fhir/uv/ips/StructureDefinition/Procedure-uv-ips"
          ]
        },
        "code": {
          "coding": [
            {
              "code": "33367005",
              "system": "http://snomed.info/sct",
              "display": "Angiography of coronary artery (procedure)"
            }
          ],
          "text": "Angiography of coronary artery"
        },
        "status": "completed",
        "subject": {
          "reference": "Patient/b8d6d368-3082-4c2b-9e0a-a713a59e970f",
          "display": "Oskar Sæther"
        },
        "performedDateTime": "2022-07-11"
      }
    },
    {
      "fullUrl": "urn:uuid:8b9eee5d-8bf2-48f1-82ff-dfab39a89436",
      "resource": {
        "resourceType": "Procedure",
        "id": "8b9eee5d-8bf2-48f1-82ff-dfab39a89436",
        "meta": {
          "profile": [
            "http://hl7.org/fhir/uv/ips/StructureDefinition/Procedure-uv-ips"
          ]
        },
        "code": {
          "coding": [
            {
              "code": "165197003",
              "system": "http://snomed.info/sct",
              "display": "Diagnostic assessment (procedure)"
            }
          ],
          "text": "Diagnostic assessment"
        },
        "status": "completed",
        "subject": {
          "reference": "Patient/b8d6d368-3082-4c2b-9e0a-a713a59e970f",
          "display": "Oskar Sæther"
        },
        "performedDateTime": "2022-07-11"
      }
    },
    {
      "fullUrl": "urn:uuid:2ebd1dd7-a23b-4c5a-886d-5f0db8a6ecf9",
      "resource": {
        "resourceType": "Procedure",
        "id": "2ebd1dd7-a23b-4c5a-886d-5f0db8a6ecf9",
        "meta": {
          "profile": [
            "http://hl7.org/fhir/uv/ips/StructureDefinition/Procedure-uv-ips"
          ]
        },
        "code": {
          "coding": [
            {
              "code": "371908008",
              "system": "http://snomed.info/sct",
              "display": "Oxygen administration by mask (procedure)"
            }
          ],
          "text": "Oxygen administration by mask"
        },
        "status": "completed",
        "subject": {
          "reference": "Patient/b8d6d368-3082-4c2b-9e0a-a713a59e970f",
          "display": "Oskar Sæther"
        },
        "performedDateTime": "2022-07-11"
      }
    },
    {
      "fullUrl": "urn:uuid:b912e590-9056-4aff-96fc-53d6c144196c",
      "resource": {
        "resourceType": "Procedure",
        "id": "b912e590-9056-4aff-96fc-53d6c144196c",
        "meta": {
          "profile": [
            "http://hl7.org/fhir/uv/ips/StructureDefinition/Procedure-uv-ips"
          ]
        },
        "code": {
          "coding": [
            {
              "code": "399208008",
              "system": "http://snomed.info/sct",
              "display": "Plain X-ray of chest (procedure)"
            }
          ],
          "text": "Plain X-ray of chest"
        },
        "status": "completed",
        "subject": {
          "reference": "Patient/b8d6d368-3082-4c2b-9e0a-a713a59e970f",
          "display": "Oskar Sæther"
        },
        "performedDateTime": "2022-07-11"
      }
    },
    {
      "fullUrl": "urn:uuid:33bb5d17-8f1a-4b78-a947-e9d4d1f29d5c",
      "resource": {
        "resourceType": "Procedure",
        "id": "33bb5d17-8f1a-4b78-a947-e9d4d1f29d5c",
        "meta": {
          "profile": [
            "http://hl7.org/fhir/uv/ips/StructureDefinition/Procedure-uv-ips"
          ]
        },
        "code": {
          "coding": [
            {
              "code": "415070008",
              "system": "http://snomed.info/sct",
              "display": "Percutaneous coronary intervention (procedure)"
            }
          ],
          "text": "Percutaneous coronary intervention"
        },
        "reasonCode": [
          {
            "coding": [
              {
                "code": "401303003",
                "system": "http://snomed.info/sct",
                "display": "Acute ST segment elevation myocardial infarction (disorder)"
              }
            ]
          }
        ],
        "status": "completed",
        "subject": {
          "reference": "Patient/b8d6d368-3082-4c2b-9e0a-a713a59e970f",
          "display": "Oskar Sæther"
        },
        "performedDateTime": "2022-07-11"
      }
    },
    {
      "fullUrl": "urn:uuid:1e04c738-39e1-49f5-a7fe-25ca2410c712",
      "resource": {
        "resourceType": "Procedure",
        "id": "1e04c738-39e1-49f5-a7fe-25ca2410c712",
        "meta": {
          "profile": [
            "http://hl7.org/fhir/uv/ips/StructureDefinition/Procedure-uv-ips"
          ]
        },
        "code": {
          "coding": [
            {
              "code": "433236007",
              "system": "http://snomed.info/sct",
              "display": "Transthoracic echocardiography (procedure)"
            }
          ],
          "text": "Transthoracic echocardiography"
        },
        "status": "completed",
        "subject": {
          "reference": "Patient/b8d6d368-3082-4c2b-9e0a-a713a59e970f",
          "display": "Oskar Sæther"
        },
        "performedDateTime": "2022-07-11"
      }
    },
    {
      "fullUrl": "urn:uuid:f3e2760e-80af-4e15-87f7-7eac2392b85b",
      "resource": {
        "resourceType": "Procedure",
        "id": "f3e2760e-80af-4e15-87f7-7eac2392b85b",
        "meta": {
          "profile": [
            "http://hl7.org/fhir/uv/ips/StructureDefinition/Procedure-uv-ips"
          ]
        },
        "code": {
          "coding": [
            {
              "code": "698314001",
              "system": "http://snomed.info/sct",
              "display": "Consultation for treatment (procedure)"
            }
          ],
          "text": "Consultation for treatment"
        },
        "status": "completed",
        "subject": {
          "reference": "Patient/b8d6d368-3082-4c2b-9e0a-a713a59e970f",
          "display": "Oskar Sæther"
        },
        "performedDateTime": "2022-07-11"
      }
    },
    {
      "fullUrl": "urn:uuid:6d0254f8-a85a-41be-aa1f-716098cd536b",
      "resource": {
        "resourceType": "Procedure",
        "id": "6d0254f8-a85a-41be-aa1f-716098cd536b",
        "meta": {
          "profile": [
            "http://hl7.org/fhir/uv/ips/StructureDefinition/Procedure-uv-ips"
          ]
        },
        "code": {
          "coding": [
            {
              "code": "710839006",
              "system": "http://snomed.info/sct",
              "display": "Assessment of cardiac status using monitoring device (procedure)"
            }
          ],
          "text": "Assessment of cardiac status using monitoring device"
        },
        "status": "completed",
        "subject": {
          "reference": "Patient/b8d6d368-3082-4c2b-9e0a-a713a59e970f",
          "display": "Oskar Sæther"
        },
        "performedDateTime": "2022-07-11"
      }
    },
    {
      "fullUrl": "urn:uuid:4c6300ba-1f4a-41e5-82e6-c2a204057e64",
      "resource": {
        "resourceType": "Procedure",
        "id": "4c6300ba-1f4a-41e5-82e6-c2a204057e64",
        "meta": {
          "profile": [
            "http://hl7.org/fhir/uv/ips/StructureDefinition/Procedure-uv-ips"
          ]
        },
        "code": {
          "coding": [
            {
              "code": "171207006",
              "system": "http://snomed.info/sct",
              "display": "Depression screening (procedure)"
            }
          ],
          "text": "Depression screening"
        },
        "status": "completed",
        "subject": {
          "reference": "Patient/b8d6d368-3082-4c2b-9e0a-a713a59e970f",
          "display": "Oskar Sæther"
        },
        "performedDateTime": "2017-12-23"
      }
    },
    {
      "fullUrl": "urn:uuid:8bce2e2b-abd2-4701-b1fe-a497e58978b0",
      "resource": {
        "resourceType": "Procedure",
        "id": "8bce2e2b-abd2-4701-b1fe-a497e58978b0",
        "meta": {
          "profile": [
            "http://hl7.org/fhir/uv/ips/StructureDefinition/Procedure-uv-ips"
          ]
        },
        "code": {
          "coding": [
            {
              "code": "710824005",
              "system": "http://snomed.info/sct",
              "display": "Assessment of health and social care needs (procedure)"
            }
          ],
          "text": "Assessment of health and social care needs"
        },
        "status": "completed",
        "subject": {
          "reference": "Patient/b8d6d368-3082-4c2b-9e0a-a713a59e970f",
          "display": "Oskar Sæther"
        },
        "performedDateTime": "2017-12-23"
      }
    },
    {
      "fullUrl": "urn:uuid:052f6dee-94a4-4768-8034-6d0e7ab2db1d",
      "resource": {
        "resourceType": "Procedure",
        "id": "052f6dee-94a4-4768-8034-6d0e7ab2db1d",
        "meta": {
          "profile": [
            "http://hl7.org/fhir/uv/ips/StructureDefinition/Procedure-uv-ips"
          ]
        },
        "code": {
          "coding": [
            {
              "code": "713106006",
              "system": "http://snomed.info/sct",
              "display": "Screening for drug abuse (procedure)"
            }
          ],
          "text": "Screening for drug abuse"
        },
        "status": "completed",
        "subject": {
          "reference": "Patient/b8d6d368-3082-4c2b-9e0a-a713a59e970f",
          "display": "Oskar Sæther"
        },
        "performedDateTime": "2017-12-23"
      }
    },
    {
      "fullUrl": "urn:uuid:bb6699b7-35f3-486c-8364-f318c81b11aa",
      "resource": {
        "resourceType": "Procedure",
        "id": "bb6699b7-35f3-486c-8364-f318c81b11aa",
        "meta": {
          "profile": [
            "http://hl7.org/fhir/uv/ips/StructureDefinition/Procedure-uv-ips"
          ]
        },
        "code": {
          "coding": [
            {
              "code": "428211000124100",
              "system": "http://snomed.info/sct",
              "display": "Assessment of substance use (procedure)"
            }
          ],
          "text": "Assessment of substance use"
        },
        "status": "completed",
        "subject": {
          "reference": "Patient/b8d6d368-3082-4c2b-9e0a-a713a59e970f",
          "display": "Oskar Sæther"
        },
        "performedDateTime": "2017-12-23"
      }
    },
    {
      "fullUrl": "urn:uuid:13a36cff-b661-42e6-8d5c-d76697b04591",
      "resource": {
        "resourceType": "Immunization",
        "id": "13a36cff-b661-42e6-8d5c-d76697b04591",
        "meta": {
          "profile": [
            "http://hl7.org/fhir/uv/ips/StructureDefinition/Immunization-uv-ips"
          ]
        },
        "vaccineCode": {
          "coding": [
            {
              "code": "777725002",
              "system": "http://snomed.info/sct",
              "display": "Vaccine product containing only Clostridium tetani toxoid antigen adsorbed"
            },
            {
              "code": "J07AM51",
              "system": "http://www.whocc.no/atc",
              "display": "Diphtheria-tetanus vaccines, adult type"
            },
            {
              "code": "113",
              "system": "http://hl7.org/fhir/sid/cvx",
              "display": "Td (adult)  5 Lf tetanus toxoid  preservative free  adsorbed"
            }
          ],
          "text": "Clostridium tetani toxoid antigen adsorbed only vaccine product"
        },
        "site": {
          "coding": [
            {
              "code": "73776007",
              "system": "http://snomed.info/sct",
              "display": "Structure of muscle of upper arm"
            }
          ],
          "text": "Structure of muscle of upper arm"
        },
        "route": {
          "coding": [
            {
              "code": "78421000",
              "system": "http://snomed.info/sct",
              "display": "Intramuscular route"
            }
          ],
          "text": "Intramuscular route"
        },
        "status": "completed",
        "patient": {
          "reference": "Patient/b8d6d368-3082-4c2b-9e0a-a713a59e970f",
          "display": "Oskar Sæther"
        },
        "occurrenceDateTime": "2025-01-18",
        "lotNumber": "AA-pimzSroH",
        "expirationDate": "2025-08-23"
      }
    },
    {
      "fullUrl": "urn:uuid:5f3ce734-9667-44ea-b73d-50b1fc17398d",
      "resource": {
        "resourceType": "Immunization",
        "id": "5f3ce734-9667-44ea-b73d-50b1fc17398d",
        "meta": {
          "profile": [
            "http://hl7.org/fhir/uv/ips/StructureDefinition/Immunization-uv-ips"
          ]
        },
        "vaccineCode": {
          "coding": [
            {
              "code": "1181000221105",
              "system": "http://snomed.info/sct",
              "display": "Vaccine product containing Influenza virus antigen"
            },
            {
              "code": "J07BB02",
              "system": "http://www.whocc.no/atc",
              "display": "Influenza, inactivated, split virus"
            },
            {
              "code": "140",
              "system": "http://hl7.org/fhir/sid/cvx",
              "display": "Influenza  seasonal  injectable  preservative free"
            }
          ],
          "text": "Influenza virus antigen only vaccine product"
        },
        "site": {
          "coding": [
            {
              "code": "73776007",
              "system": "http://snomed.info/sct",
              "display": "Structure of muscle of upper arm"
            }
          ],
          "text": "Structure of muscle of upper arm"
        },
        "route": {
          "coding": [
            {
              "code": "78421000",
              "system": "http://snomed.info/sct",
              "display": "Intramuscular route"
            }
          ],
          "text": "Intramuscular route"
        },
        "status": "completed",
        "patient": {
          "reference": "Patient/b8d6d368-3082-4c2b-9e0a-a713a59e970f",
          "display": "Oskar Sæther"
        },
        "occurrenceDateTime": "2025-01-18",
        "lotNumber": "JS-SZFkj",
        "expirationDate": "2025-11-13"
      }
    },
    {
      "fullUrl": "urn:uuid:0ce20403-8281-41d5-b263-8ae8112545dd",
      "resource": {
        "resourceType": "Immunization",
        "id": "0ce20403-8281-41d5-b263-8ae8112545dd",
        "meta": {
          "profile": [
            "http://hl7.org/fhir/uv/ips/StructureDefinition/Immunization-uv-ips"
          ]
        },
        "vaccineCode": {
          "coding": [
            {
              "code": "1119349007",
              "system": "http://snomed.info/sct",
              "display": "Vaccine product containing SARS-CoV-2 mRNA"
            },
            {
              "code": "J07BX03",
              "system": "http://www.whocc.no/atc",
              "display": "COVID-19 mRNA vaccines"
            },
            {
              "code": "207",
              "system": "http://hl7.org/fhir/sid/cvx",
              "display": "COVID-19  mRNA  LNP-S  PF  100 mcg/0.5mL dose or 50 mcg/0.25mL dose"
            }
          ],
          "text": "SARS-CoV-2 mRNA vaccine"
        },
        "site": {
          "coding": [
            {
              "code": "73776007",
              "system": "http://snomed.info/sct",
              "display": "Structure of muscle of upper arm"
            }
          ],
          "text": "Structure of muscle of upper arm"
        },
        "route": {
          "coding": [
            {
              "code": "78421000",
              "system": "http://snomed.info/sct",
              "display": "Intramuscular route"
            }
          ],
          "text": "Intramuscular route"
        },
        "status": "completed",
        "patient": {
          "reference": "Patient/b8d6d368-3082-4c2b-9e0a-a713a59e970f",
          "display": "Oskar Sæther"
        },
        "occurrenceDateTime": "2021-06-19",
        "lotNumber": "LH-H9ekVG6U",
        "expirationDate": "2022-05-09"
      }
    }
  ],
  "type": "document",
  "timestamp": "2025-06-16T17:19:49Z"
}
