{
  "resourceType": "Bundle",
  "id": "Instance-Bundle-69ce3155-1a97-45c5-b846-433d885f151a",
  "meta": {
    "profile": [
      "http://hl7.eu/fhir/eps/StructureDefinition/bundle-eu-eps"
    ]
  },
  "identifier": {
    "assigner": {
      "display": "HL7 Europe"
    },
    "system": "urn:oid:2.16.840.1.113883.2.51.999",
    "value": "a49b8452-e5e0-4c13-9826-9413da5d76a8"
  },
  "entry": [
    {
      "fullUrl": "urn:uuid:c5bbcbe2-f1bc-4eaf-974e-67af18c6a7cf",
      "resource": {
        "resourceType": "Composition",
        "id": "c5bbcbe2-f1bc-4eaf-974e-67af18c6a7cf",
        "meta": {
          "profile": [
            "http://hl7.eu/fhir/eps/StructureDefinition/composition-eu-eps"
          ]
        },
        "identifier": {
          "assigner": {
            "display": "HL7 Europe"
          },
          "system": "urn:oid:2.16.840.1.113883.2.51.999",
          "value": "82a1edbc-ef4c-47fd-b0e5-59a6f3e77f09"
        },
        "type": {
          "coding": [
            {
              "system": "http://loinc.org",
              "code": "60591-5",
              "display": "European Patient Summary"
            }
          ],
          "text": "European Patient Summary"
        },
        "author": [
          {
            "reference": "urn:uuid:cc5b0817-040a-4aa3-8345-bd3a5924f134"
          }
        ],
        "section": [
          {
            "text": {
              "status": "generated",
              "div": "<div xmlns=\"http://www.w3.org/1999/xhtml\"><table class=\"hl7__ips\"><tr><th>Condition</th><th>Onset Date</th><th>Status</th></tr><tr><td>Osteoporosis</td><td><span class=\"nb\">2018-07-06</span></td><td>active</td></tr><tr><td>Hyperlipidemia</td><td><span class=\"nb\">2000-03-24</span></td><td>active</td></tr><tr><td>Impacted molars</td><td><span class=\"nb\">2000-01-26</span></td><td>active</td></tr><tr><td>Septic shock</td><td><span class=\"nb\">1988-04-27</span></td><td>active</td></tr><tr><td>Sepsis</td><td><span class=\"nb\">1988-04-27</span></td><td>active</td></tr><tr><td>Bleeding from anus</td><td><span class=\"nb\">1980-12-15</span></td><td>active</td></tr><tr><td>Anemia</td><td><span class=\"nb\">1972-03-31</span></td><td>active</td></tr><tr><td>Seizure disorder</td><td><span class=\"nb\">1945-01-27</span></td><td>active</td></tr><tr><td>Aortic valve stenosis</td><td><span class=\"nb\">1943-01-13</span></td><td>active</td></tr><tr><td><span class=\"grayedout\">Gingivitis</span></td><td><span class=\"nb\">2024-08-09</span></td><td><span class=\"grayedout\">inactive</span></td></tr><tr><td><span class=\"grayedout\">Viral sinusitis</span></td><td><span class=\"nb\">2024-02-21</span></td><td><span class=\"grayedout\">inactive</span></td></tr><tr><td><span class=\"grayedout\">Viral sinusitis</span></td><td><span class=\"nb\">2023-11-30</span></td><td><span class=\"grayedout\">inactive</span></td></tr><tr><td><span class=\"grayedout\">Gingivitis</span></td><td><span class=\"nb\">2023-08-04</span></td><td><span class=\"grayedout\">inactive</span></td></tr><tr><td><span class=\"grayedout\">Acute bronchitis</span></td><td><span class=\"nb\">2023-04-19</span></td><td><span class=\"grayedout\">inactive</span></td></tr><tr><td><span class=\"grayedout\">Gingivitis</span></td><td><span class=\"nb\">2021-07-23</span></td><td><span class=\"grayedout\">inactive</span></td></tr><tr><td><span class=\"grayedout\">Primary dental caries</span></td><td><span class=\"nb\">2018-07-20</span></td><td><span class=\"grayedout\">inactive</span></td></tr></table></div>"
            },
            "entry": [
              {
                "reference": "urn:uuid:c30b4b38-fbfd-408b-abd5-54f77845d117"
              },
              {
                "reference": "urn:uuid:0ac1a0c4-19f8-4dcb-b774-2811371ea090"
              },
              {
                "reference": "urn:uuid:0200693a-ffdb-4774-a28c-27076ae8ff03"
              },
              {
                "reference": "urn:uuid:8d1d0580-389e-491a-8e14-791c3dbc6db6"
              },
              {
                "reference": "urn:uuid:61f3edde-a5ec-4877-9a52-2189a404f783"
              },
              {
                "reference": "urn:uuid:5ebb654b-6921-4f3a-b73c-5664b6c69f76"
              },
              {
                "reference": "urn:uuid:c4854ad1-3066-40b7-be10-cf0db815f349"
              },
              {
                "reference": "urn:uuid:f94b9e41-ef3a-48b1-872f-27a02210d292"
              },
              {
                "reference": "urn:uuid:5da1fc65-d8a2-4d96-8d28-9d961f45591d"
              },
              {
                "reference": "urn:uuid:1b397204-a014-4497-b0d3-2a6f67e3e139"
              },
              {
                "reference": "urn:uuid:e3587bcd-11ab-4f87-b3f0-61c38bd361be"
              },
              {
                "reference": "urn:uuid:c42e4fc9-f2f8-4dce-8787-d8e4ce09e327"
              },
              {
                "reference": "urn:uuid:a770fa94-985b-4785-911d-9648f9309a6a"
              },
              {
                "reference": "urn:uuid:691ffc2f-da0c-4bd2-9ab2-a11ea7c6bf4c"
              },
              {
                "reference": "urn:uuid:9bcd2b32-ad19-4b15-97a7-268e5d971d9e"
              },
              {
                "reference": "urn:uuid:d16f78d2-0aae-4bda-8c2d-d04c2ef90b95"
              }
            ],
            "code": {
              "coding": [
                {
                  "system": "http://loinc.org",
                  "code": "11450-4",
                  "display": "Problem list - Reported"
                }
              ]
            },
            "title": "Problem list"
          },
          {
            "text": {
              "status": "generated",
              "div": "<div xmlns=\"http://www.w3.org/1999/xhtml\"><table class=\"hl7__ips\"><tr><th>Medication</th><th>Since</th><th>Form</th><th>Dosage</th><th>Reason</th></tr><tr><td>Simvastatin 10 mg oral tablet</td><td><span class=\"nb\">2024-08-16</span></td><td>Oral tablet</td><td>1 tablet (10 mg) by mouth once daily</td><td>Hyperlipidemia (disorder)</td></tr><tr><td>Alendronic acid (as alendronate sodium) 10 mg oral tablet</td><td><span class=\"nb\">2024-08-09</span></td><td>Oral tablet</td><td>1 tablet (10 mg) once daily</td><td>Osteoporosis (disorder)</td></tr><tr><td>aspirin 81 MG Oral Capsule</td><td><span class=\"nb\">2024-08-09</span></td><td></td><td>1 capsule (81 mg) by mouth once daily</td><td></td></tr></table></div>"
            },
            "entry": [
              {
                "reference": "urn:uuid:9287201c-40d7-44b4-b873-79ef30114fc2"
              },
              {
                "reference": "urn:uuid:39155a85-c784-4f7e-9191-551f2522a7be"
              },
              {
                "reference": "urn:uuid:b8cdf37b-f7b7-4835-bfc9-ce2a3efc6ba5"
              }
            ],
            "code": {
              "coding": [
                {
                  "system": "http://loinc.org",
                  "code": "10160-0",
                  "display": "History of Medication use Narrative"
                }
              ]
            },
            "title": "Medication list"
          },
          {
            "text": {
              "status": "generated",
              "div": "<div xmlns=\"http://www.w3.org/1999/xhtml\"><table class=\"hl7__ips\"><tr><td>No known allergies or intolerances</td></tr></table></div>"
            },
            "entry": [
              {
                "reference": "urn:uuid:d25c64da-7ea1-4249-8b09-73fbc677cd7e"
              }
            ],
            "code": {
              "coding": [
                {
                  "system": "http://loinc.org",
                  "code": "48765-2",
                  "display": "Allergies and adverse reactions Document"
                }
              ]
            },
            "title": "Allergies and Intolerances"
          },
          {
            "text": {
              "status": "generated",
              "div": "<div xmlns=\"http://www.w3.org/1999/xhtml\"><table class=\"hl7__ips\"><tr><th>Procedure</th><th>Date</th><th>Reason</th></tr><tr><td>Patient discharge</td><td><span class=\"nb\">2023-02-19</span></td><td>-</td></tr><tr><td>Hospice care</td><td><span class=\"nb\">2023-02-18</span></td><td>-</td></tr><tr><td>Notifications</td><td><span class=\"nb\">2023-01-20</span></td><td>-</td></tr><tr><td>Certification procedure</td><td><span class=\"nb\">2023-01-20</span></td><td>-</td></tr><tr><td>Initial patient assessment</td><td><span class=\"nb\">2023-01-20</span></td><td>-</td></tr><tr><td>Development of individualized plan of care</td><td><span class=\"nb\">2023-01-20</span></td><td>-</td></tr></table></div>"
            },
            "entry": [
              {
                "reference": "urn:uuid:19434b9a-5c16-49bd-93db-72805cf11691"
              },
              {
                "reference": "urn:uuid:23191fe8-0300-4312-b178-0cc7075e5b0c"
              },
              {
                "reference": "urn:uuid:c98c2c17-7c69-4f87-8368-45d0d37c2425"
              },
              {
                "reference": "urn:uuid:becba025-b895-46ea-a97a-fd96c6f86646"
              },
              {
                "reference": "urn:uuid:1d84a0e9-5a9f-46aa-98fa-f91f3986513d"
              },
              {
                "reference": "urn:uuid:a1b9649d-1445-45b9-93d5-3d4a5d58e0bd"
              }
            ],
            "code": {
              "coding": [
                {
                  "system": "http://loinc.org",
                  "code": "47519-4",
                  "display": "History of Procedures Document"
                }
              ]
            },
            "title": "Procedure History list"
          },
          {
            "text": {
              "status": "generated",
              "div": "<div xmlns=\"http://www.w3.org/1999/xhtml\"><table class=\"hl7__ips\"><tr><th>Vaccine</th><th>Date</th></tr><tr><td>Influenza virus antigen only vaccine product</td><td><span class=\"nb\">2024-08-09</span></td></tr><tr><td>SARS-CoV-2 mRNA vaccine</td><td><span class=\"nb\">2021-04-02</span></td></tr><tr><td>Clostridium tetani toxoid antigen adsorbed only vaccine product</td><td><span class=\"nb\">2019-07-12</span></td></tr></table></div>"
            },
            "entry": [
              {
                "reference": "urn:uuid:ce395407-75d4-4991-b146-d4895f66024e"
              },
              {
                "reference": "urn:uuid:36221ccb-8d59-424f-b634-8ec1b3d4b872"
              },
              {
                "reference": "urn:uuid:41f29a60-89cd-4554-9210-78849dd2d0c4"
              }
            ],
            "code": {
              "coding": [
                {
                  "system": "http://loinc.org",
                  "code": "11369-6",
                  "display": "History of Immunization Narrative"
                }
              ]
            },
            "title": "Immunizations list"
          }
        ],
        "title": "European Patient Summary",
        "status": "final",
        "subject": {
          "reference": "urn:uuid:cf3549bc-eb6a-4ac9-a159-b39a53dbcfe3"
        },
        "custodian": {
          "reference": "urn:uuid:060d2d53-e525-4725-9c4b-529b06600fad"
        },
        "date": "2025-06-17T11:26:49Z",
        "confidentiality": "N"
      }
    },
    {
      "fullUrl": "urn:uuid:cf3549bc-eb6a-4ac9-a159-b39a53dbcfe3",
      "resource": {
        "resourceType": "Patient",
        "id": "cf3549bc-eb6a-4ac9-a159-b39a53dbcfe3",
        "meta": {
          "profile": [
            "http://hl7.eu/fhir/eps/StructureDefinition/patient-eu-eps"
          ]
        },
        "identifier": [
          {
            "type": {
              "coding": [
                {
                  "code": "NI",
                  "system": "http://terminology.hl7.org/CodeSystem/v2-0203"
                }
              ]
            },
            "system": "http://ec.europa.eu/identifier/eci",
            "value": "2279-613165-8"
          },
          {
            "type": {
              "coding": [
                {
                  "code": "MR",
                  "system": "http://terminology.hl7.org/CodeSystem/v2-0203"
                }
              ]
            },
            "system": "http://local.setting.eu/identifier",
            "value": "59be6f33-cd77-774a-8e0f-3286eff96d1c"
          }
        ],
        "name": [
          {
            "given": [
              "Reijer"
            ],
            "family": "van Woerkom",
            "text": "Reijer van Woerkom"
          }
        ],
        "address": [
          {
            "line": [
              "Dorpsstraat 112"
            ],
            "use": "home",
            "type": "physical",
            "city": "Zevenhuizen",
            "postalCode": "2761 AN",
            "country": "Netherlands"
          }
        ],
        "telecom": [
          {
            "system": "phone",
            "value": "+31 06-10416101"
          }
        ],
        "gender": "male",
        "birthDate": "1941-12-26"
      }
    },
    {
      "fullUrl": "urn:uuid:cc5b0817-040a-4aa3-8345-bd3a5924f134",
      "resource": {
        "resourceType": "PractitionerRole",
        "id": "cc5b0817-040a-4aa3-8345-bd3a5924f134",
        "meta": {
          "profile": [
            "http://hl7.eu/fhir/base/StructureDefinition/practitionerRole-eu"
          ]
        },
        "practitioner": {
          "reference": "urn:uuid:466cecbd-98df-4a5f-b556-3b8fd49825f9"
        },
        "organization": {
          "reference": "urn:uuid:060d2d53-e525-4725-9c4b-529b06600fad"
        }
      }
    },
    {
      "fullUrl": "urn:uuid:466cecbd-98df-4a5f-b556-3b8fd49825f9",
      "resource": {
        "resourceType": "Practitioner",
        "id": "466cecbd-98df-4a5f-b556-3b8fd49825f9",
        "meta": {
          "profile": [
            "http://hl7.eu/fhir/base/StructureDefinition/practitioner-eu"
          ]
        },
        "name": [
          {
            "prefix": [
              "Dr."
            ],
            "given": [
              "Hel"
            ],
            "family": "Ping"
          }
        ]
      }
    },
    {
      "fullUrl": "urn:uuid:c30b4b38-fbfd-408b-abd5-54f77845d117",
      "resource": {
        "resourceType": "Condition",
        "id": "c30b4b38-fbfd-408b-abd5-54f77845d117",
        "meta": {
          "profile": [
            "http://hl7.org/fhir/uv/ips/StructureDefinition/Condition-uv-ips"
          ]
        },
        "category": [
          {
            "coding": [
              {
                "code": "problem-list-item",
                "system": "http://terminology.hl7.org/CodeSystem/condition-category",
                "display": "Problem List Item"
              }
            ]
          }
        ],
        "code": {
          "coding": [
            {
              "code": "64859006",
              "system": "http://snomed.info/sct",
              "display": "Osteoporosis (disorder)"
            }
          ],
          "text": "Osteoporosis"
        },
        "onsetDateTime": "2018-07-06",
        "clinicalStatus": {
          "coding": [
            {
              "code": "active",
              "system": "http://terminology.hl7.org/CodeSystem/condition-clinical"
            }
          ]
        },
        "subject": {
          "reference": "Patient/cf3549bc-eb6a-4ac9-a159-b39a53dbcfe3",
          "display": "Reijer van Woerkom"
        },
        "asserter": {
          "reference": "Practitioner/466cecbd-98df-4a5f-b556-3b8fd49825f9",
          "display": "Dr. Hel Ping"
        }
      }
    },
    {
      "fullUrl": "urn:uuid:0ac1a0c4-19f8-4dcb-b774-2811371ea090",
      "resource": {
        "resourceType": "Condition",
        "id": "0ac1a0c4-19f8-4dcb-b774-2811371ea090",
        "meta": {
          "profile": [
            "http://hl7.org/fhir/uv/ips/StructureDefinition/Condition-uv-ips"
          ]
        },
        "category": [
          {
            "coding": [
              {
                "code": "problem-list-item",
                "system": "http://terminology.hl7.org/CodeSystem/condition-category",
                "display": "Problem List Item"
              }
            ]
          }
        ],
        "code": {
          "coding": [
            {
              "code": "55822004",
              "system": "http://snomed.info/sct",
              "display": "Hyperlipidemia (disorder)"
            }
          ],
          "text": "Hyperlipidemia"
        },
        "onsetDateTime": "2000-03-24",
        "clinicalStatus": {
          "coding": [
            {
              "code": "active",
              "system": "http://terminology.hl7.org/CodeSystem/condition-clinical"
            }
          ]
        },
        "subject": {
          "reference": "Patient/cf3549bc-eb6a-4ac9-a159-b39a53dbcfe3",
          "display": "Reijer van Woerkom"
        },
        "asserter": {
          "reference": "Practitioner/466cecbd-98df-4a5f-b556-3b8fd49825f9",
          "display": "Dr. Hel Ping"
        }
      }
    },
    {
      "fullUrl": "urn:uuid:0200693a-ffdb-4774-a28c-27076ae8ff03",
      "resource": {
        "resourceType": "Condition",
        "id": "0200693a-ffdb-4774-a28c-27076ae8ff03",
        "meta": {
          "profile": [
            "http://hl7.org/fhir/uv/ips/StructureDefinition/Condition-uv-ips"
          ]
        },
        "category": [
          {
            "coding": [
              {
                "code": "problem-list-item",
                "system": "http://terminology.hl7.org/CodeSystem/condition-category",
                "display": "Problem List Item"
              }
            ]
          }
        ],
        "code": {
          "coding": [
            {
              "code": "196416002",
              "system": "http://snomed.info/sct",
              "display": "Impacted molars (disorder)"
            }
          ],
          "text": "Impacted molars"
        },
        "onsetDateTime": "2000-01-26",
        "clinicalStatus": {
          "coding": [
            {
              "code": "active",
              "system": "http://terminology.hl7.org/CodeSystem/condition-clinical"
            }
          ]
        },
        "subject": {
          "reference": "Patient/cf3549bc-eb6a-4ac9-a159-b39a53dbcfe3",
          "display": "Reijer van Woerkom"
        },
        "asserter": {
          "reference": "Practitioner/466cecbd-98df-4a5f-b556-3b8fd49825f9",
          "display": "Dr. Hel Ping"
        }
      }
    },
    {
      "fullUrl": "urn:uuid:8d1d0580-389e-491a-8e14-791c3dbc6db6",
      "resource": {
        "resourceType": "Condition",
        "id": "8d1d0580-389e-491a-8e14-791c3dbc6db6",
        "meta": {
          "profile": [
            "http://hl7.org/fhir/uv/ips/StructureDefinition/Condition-uv-ips"
          ]
        },
        "category": [
          {
            "coding": [
              {
                "code": "problem-list-item",
                "system": "http://terminology.hl7.org/CodeSystem/condition-category",
                "display": "Problem List Item"
              }
            ]
          }
        ],
        "code": {
          "coding": [
            {
              "code": "76571007",
              "system": "http://snomed.info/sct",
              "display": "Septic shock (disorder)"
            }
          ],
          "text": "Septic shock"
        },
        "onsetDateTime": "1988-04-27",
        "clinicalStatus": {
          "coding": [
            {
              "code": "active",
              "system": "http://terminology.hl7.org/CodeSystem/condition-clinical"
            }
          ]
        },
        "subject": {
          "reference": "Patient/cf3549bc-eb6a-4ac9-a159-b39a53dbcfe3",
          "display": "Reijer van Woerkom"
        },
        "asserter": {
          "reference": "Practitioner/466cecbd-98df-4a5f-b556-3b8fd49825f9",
          "display": "Dr. Hel Ping"
        }
      }
    },
    {
      "fullUrl": "urn:uuid:61f3edde-a5ec-4877-9a52-2189a404f783",
      "resource": {
        "resourceType": "Condition",
        "id": "61f3edde-a5ec-4877-9a52-2189a404f783",
        "meta": {
          "profile": [
            "http://hl7.org/fhir/uv/ips/StructureDefinition/Condition-uv-ips"
          ]
        },
        "category": [
          {
            "coding": [
              {
                "code": "problem-list-item",
                "system": "http://terminology.hl7.org/CodeSystem/condition-category",
                "display": "Problem List Item"
              }
            ]
          }
        ],
        "code": {
          "coding": [
            {
              "code": "91302008",
              "system": "http://snomed.info/sct",
              "display": "Sepsis (disorder)"
            }
          ],
          "text": "Sepsis"
        },
        "onsetDateTime": "1988-04-27",
        "clinicalStatus": {
          "coding": [
            {
              "code": "active",
              "system": "http://terminology.hl7.org/CodeSystem/condition-clinical"
            }
          ]
        },
        "subject": {
          "reference": "Patient/cf3549bc-eb6a-4ac9-a159-b39a53dbcfe3",
          "display": "Reijer van Woerkom"
        },
        "asserter": {
          "reference": "Practitioner/466cecbd-98df-4a5f-b556-3b8fd49825f9",
          "display": "Dr. Hel Ping"
        }
      }
    },
    {
      "fullUrl": "urn:uuid:5ebb654b-6921-4f3a-b73c-5664b6c69f76",
      "resource": {
        "resourceType": "Condition",
        "id": "5ebb654b-6921-4f3a-b73c-5664b6c69f76",
        "meta": {
          "profile": [
            "http://hl7.org/fhir/uv/ips/StructureDefinition/Condition-uv-ips"
          ]
        },
        "category": [
          {
            "coding": [
              {
                "code": "problem-list-item",
                "system": "http://terminology.hl7.org/CodeSystem/condition-category",
                "display": "Problem List Item"
              }
            ]
          }
        ],
        "code": {
          "coding": [
            {
              "code": "6072007",
              "system": "http://snomed.info/sct",
              "display": "Bleeding from anus (disorder)"
            }
          ],
          "text": "Bleeding from anus"
        },
        "onsetDateTime": "1980-12-15",
        "clinicalStatus": {
          "coding": [
            {
              "code": "active",
              "system": "http://terminology.hl7.org/CodeSystem/condition-clinical"
            }
          ]
        },
        "subject": {
          "reference": "Patient/cf3549bc-eb6a-4ac9-a159-b39a53dbcfe3",
          "display": "Reijer van Woerkom"
        },
        "asserter": {
          "reference": "Practitioner/466cecbd-98df-4a5f-b556-3b8fd49825f9",
          "display": "Dr. Hel Ping"
        }
      }
    },
    {
      "fullUrl": "urn:uuid:c4854ad1-3066-40b7-be10-cf0db815f349",
      "resource": {
        "resourceType": "Condition",
        "id": "c4854ad1-3066-40b7-be10-cf0db815f349",
        "meta": {
          "profile": [
            "http://hl7.org/fhir/uv/ips/StructureDefinition/Condition-uv-ips"
          ]
        },
        "category": [
          {
            "coding": [
              {
                "code": "problem-list-item",
                "system": "http://terminology.hl7.org/CodeSystem/condition-category",
                "display": "Problem List Item"
              }
            ]
          }
        ],
        "code": {
          "coding": [
            {
              "code": "271737000",
              "system": "http://snomed.info/sct",
              "display": "Anemia (disorder)"
            }
          ],
          "text": "Anemia"
        },
        "onsetDateTime": "1972-03-31",
        "clinicalStatus": {
          "coding": [
            {
              "code": "active",
              "system": "http://terminology.hl7.org/CodeSystem/condition-clinical"
            }
          ]
        },
        "subject": {
          "reference": "Patient/cf3549bc-eb6a-4ac9-a159-b39a53dbcfe3",
          "display": "Reijer van Woerkom"
        },
        "asserter": {
          "reference": "Practitioner/466cecbd-98df-4a5f-b556-3b8fd49825f9",
          "display": "Dr. Hel Ping"
        }
      }
    },
    {
      "fullUrl": "urn:uuid:f94b9e41-ef3a-48b1-872f-27a02210d292",
      "resource": {
        "resourceType": "Condition",
        "id": "f94b9e41-ef3a-48b1-872f-27a02210d292",
        "meta": {
          "profile": [
            "http://hl7.org/fhir/uv/ips/StructureDefinition/Condition-uv-ips"
          ]
        },
        "category": [
          {
            "coding": [
              {
                "code": "problem-list-item",
                "system": "http://terminology.hl7.org/CodeSystem/condition-category",
                "display": "Problem List Item"
              }
            ]
          }
        ],
        "code": {
          "coding": [
            {
              "code": "128613002",
              "system": "http://snomed.info/sct",
              "display": "Seizure disorder (disorder)"
            }
          ],
          "text": "Seizure disorder"
        },
        "onsetDateTime": "1945-01-27",
        "clinicalStatus": {
          "coding": [
            {
              "code": "active",
              "system": "http://terminology.hl7.org/CodeSystem/condition-clinical"
            }
          ]
        },
        "subject": {
          "reference": "Patient/cf3549bc-eb6a-4ac9-a159-b39a53dbcfe3",
          "display": "Reijer van Woerkom"
        },
        "asserter": {
          "reference": "Practitioner/466cecbd-98df-4a5f-b556-3b8fd49825f9",
          "display": "Dr. Hel Ping"
        }
      }
    },
    {
      "fullUrl": "urn:uuid:5da1fc65-d8a2-4d96-8d28-9d961f45591d",
      "resource": {
        "resourceType": "Condition",
        "id": "5da1fc65-d8a2-4d96-8d28-9d961f45591d",
        "meta": {
          "profile": [
            "http://hl7.org/fhir/uv/ips/StructureDefinition/Condition-uv-ips"
          ]
        },
        "category": [
          {
            "coding": [
              {
                "code": "problem-list-item",
                "system": "http://terminology.hl7.org/CodeSystem/condition-category",
                "display": "Problem List Item"
              }
            ]
          }
        ],
        "code": {
          "coding": [
            {
              "code": "60573004",
              "system": "http://snomed.info/sct",
              "display": "Aortic valve stenosis (disorder)"
            }
          ],
          "text": "Aortic valve stenosis"
        },
        "onsetDateTime": "1943-01-13",
        "clinicalStatus": {
          "coding": [
            {
              "code": "active",
              "system": "http://terminology.hl7.org/CodeSystem/condition-clinical"
            }
          ]
        },
        "subject": {
          "reference": "Patient/cf3549bc-eb6a-4ac9-a159-b39a53dbcfe3",
          "display": "Reijer van Woerkom"
        },
        "asserter": {
          "reference": "Practitioner/466cecbd-98df-4a5f-b556-3b8fd49825f9",
          "display": "Dr. Hel Ping"
        }
      }
    },
    {
      "fullUrl": "urn:uuid:1b397204-a014-4497-b0d3-2a6f67e3e139",
      "resource": {
        "resourceType": "Condition",
        "id": "1b397204-a014-4497-b0d3-2a6f67e3e139",
        "meta": {
          "profile": [
            "http://hl7.org/fhir/uv/ips/StructureDefinition/Condition-uv-ips"
          ]
        },
        "category": [
          {
            "coding": [
              {
                "code": "problem-list-item",
                "system": "http://terminology.hl7.org/CodeSystem/condition-category",
                "display": "Problem List Item"
              }
            ]
          }
        ],
        "code": {
          "coding": [
            {
              "code": "66383009",
              "system": "http://snomed.info/sct",
              "display": "Gingivitis (disorder)"
            }
          ],
          "text": "Gingivitis"
        },
        "onsetDateTime": "2024-08-09",
        "clinicalStatus": {
          "coding": [
            {
              "code": "inactive",
              "system": "http://terminology.hl7.org/CodeSystem/condition-clinical"
            }
          ]
        },
        "subject": {
          "reference": "Patient/cf3549bc-eb6a-4ac9-a159-b39a53dbcfe3",
          "display": "Reijer van Woerkom"
        },
        "asserter": {
          "reference": "Practitioner/466cecbd-98df-4a5f-b556-3b8fd49825f9",
          "display": "Dr. Hel Ping"
        }
      }
    },
    {
      "fullUrl": "urn:uuid:e3587bcd-11ab-4f87-b3f0-61c38bd361be",
      "resource": {
        "resourceType": "Condition",
        "id": "e3587bcd-11ab-4f87-b3f0-61c38bd361be",
        "meta": {
          "profile": [
            "http://hl7.org/fhir/uv/ips/StructureDefinition/Condition-uv-ips"
          ]
        },
        "category": [
          {
            "coding": [
              {
                "code": "problem-list-item",
                "system": "http://terminology.hl7.org/CodeSystem/condition-category",
                "display": "Problem List Item"
              }
            ]
          }
        ],
        "code": {
          "coding": [
            {
              "code": "444814009",
              "system": "http://snomed.info/sct",
              "display": "Viral sinusitis (disorder)"
            }
          ],
          "text": "Viral sinusitis"
        },
        "onsetDateTime": "2024-02-21",
        "clinicalStatus": {
          "coding": [
            {
              "code": "inactive",
              "system": "http://terminology.hl7.org/CodeSystem/condition-clinical"
            }
          ]
        },
        "subject": {
          "reference": "Patient/cf3549bc-eb6a-4ac9-a159-b39a53dbcfe3",
          "display": "Reijer van Woerkom"
        },
        "asserter": {
          "reference": "Practitioner/466cecbd-98df-4a5f-b556-3b8fd49825f9",
          "display": "Dr. Hel Ping"
        }
      }
    },
    {
      "fullUrl": "urn:uuid:c42e4fc9-f2f8-4dce-8787-d8e4ce09e327",
      "resource": {
        "resourceType": "Condition",
        "id": "c42e4fc9-f2f8-4dce-8787-d8e4ce09e327",
        "meta": {
          "profile": [
            "http://hl7.org/fhir/uv/ips/StructureDefinition/Condition-uv-ips"
          ]
        },
        "category": [
          {
            "coding": [
              {
                "code": "problem-list-item",
                "system": "http://terminology.hl7.org/CodeSystem/condition-category",
                "display": "Problem List Item"
              }
            ]
          }
        ],
        "code": {
          "coding": [
            {
              "code": "444814009",
              "system": "http://snomed.info/sct",
              "display": "Viral sinusitis (disorder)"
            }
          ],
          "text": "Viral sinusitis"
        },
        "onsetDateTime": "2023-11-30",
        "clinicalStatus": {
          "coding": [
            {
              "code": "inactive",
              "system": "http://terminology.hl7.org/CodeSystem/condition-clinical"
            }
          ]
        },
        "subject": {
          "reference": "Patient/cf3549bc-eb6a-4ac9-a159-b39a53dbcfe3",
          "display": "Reijer van Woerkom"
        },
        "asserter": {
          "reference": "Practitioner/466cecbd-98df-4a5f-b556-3b8fd49825f9",
          "display": "Dr. Hel Ping"
        }
      }
    },
    {
      "fullUrl": "urn:uuid:a770fa94-985b-4785-911d-9648f9309a6a",
      "resource": {
        "resourceType": "Condition",
        "id": "a770fa94-985b-4785-911d-9648f9309a6a",
        "meta": {
          "profile": [
            "http://hl7.org/fhir/uv/ips/StructureDefinition/Condition-uv-ips"
          ]
        },
        "category": [
          {
            "coding": [
              {
                "code": "problem-list-item",
                "system": "http://terminology.hl7.org/CodeSystem/condition-category",
                "display": "Problem List Item"
              }
            ]
          }
        ],
        "code": {
          "coding": [
            {
              "code": "66383009",
              "system": "http://snomed.info/sct",
              "display": "Gingivitis (disorder)"
            }
          ],
          "text": "Gingivitis"
        },
        "onsetDateTime": "2023-08-04",
        "clinicalStatus": {
          "coding": [
            {
              "code": "inactive",
              "system": "http://terminology.hl7.org/CodeSystem/condition-clinical"
            }
          ]
        },
        "subject": {
          "reference": "Patient/cf3549bc-eb6a-4ac9-a159-b39a53dbcfe3",
          "display": "Reijer van Woerkom"
        },
        "asserter": {
          "reference": "Practitioner/466cecbd-98df-4a5f-b556-3b8fd49825f9",
          "display": "Dr. Hel Ping"
        }
      }
    },
    {
      "fullUrl": "urn:uuid:691ffc2f-da0c-4bd2-9ab2-a11ea7c6bf4c",
      "resource": {
        "resourceType": "Condition",
        "id": "691ffc2f-da0c-4bd2-9ab2-a11ea7c6bf4c",
        "meta": {
          "profile": [
            "http://hl7.org/fhir/uv/ips/StructureDefinition/Condition-uv-ips"
          ]
        },
        "category": [
          {
            "coding": [
              {
                "code": "problem-list-item",
                "system": "http://terminology.hl7.org/CodeSystem/condition-category",
                "display": "Problem List Item"
              }
            ]
          }
        ],
        "code": {
          "coding": [
            {
              "code": "10509002",
              "system": "http://snomed.info/sct",
              "display": "Acute bronchitis (disorder)"
            }
          ],
          "text": "Acute bronchitis"
        },
        "onsetDateTime": "2023-04-19",
        "clinicalStatus": {
          "coding": [
            {
              "code": "inactive",
              "system": "http://terminology.hl7.org/CodeSystem/condition-clinical"
            }
          ]
        },
        "subject": {
          "reference": "Patient/cf3549bc-eb6a-4ac9-a159-b39a53dbcfe3",
          "display": "Reijer van Woerkom"
        },
        "asserter": {
          "reference": "Practitioner/466cecbd-98df-4a5f-b556-3b8fd49825f9",
          "display": "Dr. Hel Ping"
        }
      }
    },
    {
      "fullUrl": "urn:uuid:9bcd2b32-ad19-4b15-97a7-268e5d971d9e",
      "resource": {
        "resourceType": "Condition",
        "id": "9bcd2b32-ad19-4b15-97a7-268e5d971d9e",
        "meta": {
          "profile": [
            "http://hl7.org/fhir/uv/ips/StructureDefinition/Condition-uv-ips"
          ]
        },
        "category": [
          {
            "coding": [
              {
                "code": "problem-list-item",
                "system": "http://terminology.hl7.org/CodeSystem/condition-category",
                "display": "Problem List Item"
              }
            ]
          }
        ],
        "code": {
          "coding": [
            {
              "code": "66383009",
              "system": "http://snomed.info/sct",
              "display": "Gingivitis (disorder)"
            }
          ],
          "text": "Gingivitis"
        },
        "onsetDateTime": "2021-07-23",
        "clinicalStatus": {
          "coding": [
            {
              "code": "inactive",
              "system": "http://terminology.hl7.org/CodeSystem/condition-clinical"
            }
          ]
        },
        "subject": {
          "reference": "Patient/cf3549bc-eb6a-4ac9-a159-b39a53dbcfe3",
          "display": "Reijer van Woerkom"
        },
        "asserter": {
          "reference": "Practitioner/466cecbd-98df-4a5f-b556-3b8fd49825f9",
          "display": "Dr. Hel Ping"
        }
      }
    },
    {
      "fullUrl": "urn:uuid:d16f78d2-0aae-4bda-8c2d-d04c2ef90b95",
      "resource": {
        "resourceType": "Condition",
        "id": "d16f78d2-0aae-4bda-8c2d-d04c2ef90b95",
        "meta": {
          "profile": [
            "http://hl7.org/fhir/uv/ips/StructureDefinition/Condition-uv-ips"
          ]
        },
        "category": [
          {
            "coding": [
              {
                "code": "problem-list-item",
                "system": "http://terminology.hl7.org/CodeSystem/condition-category",
                "display": "Problem List Item"
              }
            ]
          }
        ],
        "code": {
          "coding": [
            {
              "code": "109570002",
              "system": "http://snomed.info/sct",
              "display": "Primary dental caries (disorder)"
            }
          ],
          "text": "Primary dental caries"
        },
        "onsetDateTime": "2018-07-20",
        "clinicalStatus": {
          "coding": [
            {
              "code": "inactive",
              "system": "http://terminology.hl7.org/CodeSystem/condition-clinical"
            }
          ]
        },
        "subject": {
          "reference": "Patient/cf3549bc-eb6a-4ac9-a159-b39a53dbcfe3",
          "display": "Reijer van Woerkom"
        },
        "asserter": {
          "reference": "Practitioner/466cecbd-98df-4a5f-b556-3b8fd49825f9",
          "display": "Dr. Hel Ping"
        }
      }
    },
    {
      "fullUrl": "urn:uuid:aff5ca83-6375-4b3a-8478-a263fbf20e1f",
      "resource": {
        "resourceType": "Medication",
        "id": "aff5ca83-6375-4b3a-8478-a263fbf20e1f",
        "meta": {
          "profile": [
            "http://hl7.org/fhir/uv/ips/StructureDefinition/Medication-uv-ips"
          ]
        },
        "code": {
          "coding": [
            {
              "code": "314231",
              "system": "http://www.nlm.nih.gov/research/umls/rxnorm",
              "display": "simvastatin 10 MG Oral Tablet"
            },
            {
              "code": "319996000",
              "system": "http://snomed.info/sct",
              "display": "Product containing precisely simvastatin 10 milligram/1 each conventional release oral tablet (clinical drug)"
            }
          ],
          "text": "Simvastatin 10 mg oral tablet"
        },
        "form": {
          "coding": [
            {
              "code": "421026006",
              "system": "http://snomed.info/sct",
              "display": "Oral tablet"
            }
          ]
        },
        "ingredient": [
          {
            "itemCodeableConcept": {
              "coding": [
                {
                  "code": "387584000",
                  "system": "http://snomed.info/sct",
                  "display": "Simvastatin"
                }
              ]
            },
            "isActive": true
          }
        ]
      }
    },
    {
      "fullUrl": "urn:uuid:9287201c-40d7-44b4-b873-79ef30114fc2",
      "resource": {
        "resourceType": "MedicationStatement",
        "id": "9287201c-40d7-44b4-b873-79ef30114fc2",
        "meta": {
          "profile": [
            "http://hl7.org/fhir/uv/ips/StructureDefinition/MedicationStatement-uv-ips"
          ]
        },
        "effectivePeriod": {
          "start": "2024-08-16"
        },
        "dosage": [
          {
            "doseAndRate": [
              {
                "doseQuantity": {
                  "value": 1,
                  "unit": "{tbl}",
                  "code": "{tbl}"
                }
              }
            ],
            "timing": {
              "repeat": {
                "frequency": 1,
                "period": 1,
                "periodUnit": "d"
              }
            },
            "text": "1 tablet (10 mg) by mouth once daily",
            "asNeededBoolean": false
          }
        ],
        "reasonCode": [
          {
            "coding": [
              {
                "code": "55822004",
                "system": "http://snomed.info/sct",
                "display": "Hyperlipidemia (disorder)"
              }
            ]
          }
        ],
        "status": "active",
        "medicationReference": {
          "reference": "Medication/aff5ca83-6375-4b3a-8478-a263fbf20e1f",
          "display": "Simvastatin 10 mg oral tablet"
        },
        "subject": {
          "reference": "Patient/cf3549bc-eb6a-4ac9-a159-b39a53dbcfe3",
          "display": "Reijer van Woerkom"
        }
      }
    },
    {
      "fullUrl": "urn:uuid:c58c7697-70e9-4b35-b9f3-5b6ae290c427",
      "resource": {
        "resourceType": "Medication",
        "id": "c58c7697-70e9-4b35-b9f3-5b6ae290c427",
        "meta": {
          "profile": [
            "http://hl7.org/fhir/uv/ips/StructureDefinition/Medication-uv-ips"
          ]
        },
        "code": {
          "coding": [
            {
              "code": "904419",
              "system": "http://www.nlm.nih.gov/research/umls/rxnorm",
              "display": "alendronic acid 10 MG Oral Tablet"
            },
            {
              "code": "783144007",
              "system": "http://snomed.info/sct",
              "display": "Product containing precisely alendronic acid (as alendronate sodium) 10 milligram/1 each conventional release oral tablet (clinical drug)"
            }
          ],
          "text": "Alendronic acid (as alendronate sodium) 10 mg oral tablet"
        },
        "form": {
          "coding": [
            {
              "code": "421026006",
              "system": "http://snomed.info/sct",
              "display": "Oral tablet"
            }
          ]
        },
        "ingredient": [
          {
            "itemCodeableConcept": {
              "coding": [
                {
                  "code": "391729003",
                  "system": "http://snomed.info/sct",
                  "display": "Alendronate sodium"
                }
              ]
            },
            "isActive": true
          }
        ]
      }
    },
    {
      "fullUrl": "urn:uuid:39155a85-c784-4f7e-9191-551f2522a7be",
      "resource": {
        "resourceType": "MedicationStatement",
        "id": "39155a85-c784-4f7e-9191-551f2522a7be",
        "meta": {
          "profile": [
            "http://hl7.org/fhir/uv/ips/StructureDefinition/MedicationStatement-uv-ips"
          ]
        },
        "effectivePeriod": {
          "start": "2024-08-09"
        },
        "dosage": [
          {
            "doseAndRate": [
              {
                "doseQuantity": {
                  "value": 1,
                  "unit": "{tbl}",
                  "code": "{tbl}"
                }
              }
            ],
            "timing": {
              "repeat": {
                "frequency": 1,
                "period": 1,
                "periodUnit": "d"
              }
            },
            "text": "1 tablet (10 mg) once daily",
            "asNeededBoolean": false
          }
        ],
        "reasonCode": [
          {
            "coding": [
              {
                "code": "64859006",
                "system": "http://snomed.info/sct",
                "display": "Osteoporosis (disorder)"
              }
            ]
          }
        ],
        "status": "active",
        "medicationReference": {
          "reference": "Medication/c58c7697-70e9-4b35-b9f3-5b6ae290c427",
          "display": "Alendronic acid (as alendronate sodium) 10 mg oral tablet"
        },
        "subject": {
          "reference": "Patient/cf3549bc-eb6a-4ac9-a159-b39a53dbcfe3",
          "display": "Reijer van Woerkom"
        }
      }
    },
    {
      "fullUrl": "urn:uuid:ea9483ba-2d27-4386-b223-effe98afc048",
      "resource": {
        "resourceType": "Medication",
        "id": "ea9483ba-2d27-4386-b223-effe98afc048",
        "meta": {
          "profile": [
            "http://hl7.org/fhir/uv/ips/StructureDefinition/Medication-uv-ips"
          ]
        },
        "code": {
          "coding": [
            {
              "code": "2563431",
              "system": "http://www.nlm.nih.gov/research/umls/rxnorm",
              "display": "aspirin 81 MG Oral Capsule"
            }
          ],
          "text": "aspirin 81 MG Oral Capsule"
        }
      }
    },
    {
      "fullUrl": "urn:uuid:b8cdf37b-f7b7-4835-bfc9-ce2a3efc6ba5",
      "resource": {
        "resourceType": "MedicationStatement",
        "id": "b8cdf37b-f7b7-4835-bfc9-ce2a3efc6ba5",
        "meta": {
          "profile": [
            "http://hl7.org/fhir/uv/ips/StructureDefinition/MedicationStatement-uv-ips"
          ]
        },
        "effectivePeriod": {
          "start": "2024-08-09"
        },
        "dosage": [
          {
            "doseAndRate": [
              {
                "doseQuantity": {
                  "value": 1,
                  "unit": "capsule",
                  "code": "{cap}"
                }
              }
            ],
            "timing": {
              "repeat": {
                "frequency": 1,
                "period": 1,
                "periodUnit": "d"
              }
            },
            "text": "1 capsule (81 mg) by mouth once daily",
            "asNeededBoolean": false
          }
        ],
        "status": "active",
        "medicationReference": {
          "reference": "Medication/ea9483ba-2d27-4386-b223-effe98afc048",
          "display": "aspirin 81 MG Oral Capsule"
        },
        "subject": {
          "reference": "Patient/cf3549bc-eb6a-4ac9-a159-b39a53dbcfe3",
          "display": "Reijer van Woerkom"
        }
      }
    },
    {
      "fullUrl": "urn:uuid:d25c64da-7ea1-4249-8b09-73fbc677cd7e",
      "resource": {
        "resourceType": "AllergyIntolerance",
        "id": "d25c64da-7ea1-4249-8b09-73fbc677cd7e",
        "meta": {
          "profile": [
            "http://hl7.eu/fhir/eps/StructureDefinition/allergyIntolerance-eu-eps"
          ]
        },
        "code": {
          "coding": [
            {
              "code": "716186003",
              "system": "http://snomed.info/sct",
              "display": "No known allergy (situation)"
            }
          ]
        },
        "patient": {
          "reference": "Patient/cf3549bc-eb6a-4ac9-a159-b39a53dbcfe3",
          "display": "Reijer van Woerkom"
        },
        "_onsetDateTime": {
          "extension": [
            {
              "url": "http://hl7.org/fhir/StructureDefinition/data-absent-reason",
              "valueCode": "unknown"
            }
          ]
        }
      }
    },
    {
      "fullUrl": "urn:uuid:19434b9a-5c16-49bd-93db-72805cf11691",
      "resource": {
        "resourceType": "Procedure",
        "id": "19434b9a-5c16-49bd-93db-72805cf11691",
        "meta": {
          "profile": [
            "http://hl7.org/fhir/uv/ips/StructureDefinition/Procedure-uv-ips"
          ]
        },
        "code": {
          "coding": [
            {
              "code": "58000006",
              "system": "http://snomed.info/sct",
              "display": "Patient discharge (procedure)"
            }
          ],
          "text": "Patient discharge"
        },
        "status": "completed",
        "subject": {
          "reference": "Patient/cf3549bc-eb6a-4ac9-a159-b39a53dbcfe3",
          "display": "Reijer van Woerkom"
        },
        "performedDateTime": "2023-02-19"
      }
    },
    {
      "fullUrl": "urn:uuid:23191fe8-0300-4312-b178-0cc7075e5b0c",
      "resource": {
        "resourceType": "Procedure",
        "id": "23191fe8-0300-4312-b178-0cc7075e5b0c",
        "meta": {
          "profile": [
            "http://hl7.org/fhir/uv/ips/StructureDefinition/Procedure-uv-ips"
          ]
        },
        "code": {
          "coding": [
            {
              "code": "385763009",
              "system": "http://snomed.info/sct",
              "display": "Hospice care (regime/therapy)"
            }
          ],
          "text": "Hospice care"
        },
        "status": "completed",
        "subject": {
          "reference": "Patient/cf3549bc-eb6a-4ac9-a159-b39a53dbcfe3",
          "display": "Reijer van Woerkom"
        },
        "performedDateTime": "2023-02-18"
      }
    },
    {
      "fullUrl": "urn:uuid:c98c2c17-7c69-4f87-8368-45d0d37c2425",
      "resource": {
        "resourceType": "Procedure",
        "id": "c98c2c17-7c69-4f87-8368-45d0d37c2425",
        "meta": {
          "profile": [
            "http://hl7.org/fhir/uv/ips/StructureDefinition/Procedure-uv-ips"
          ]
        },
        "code": {
          "coding": [
            {
              "code": "185087000",
              "system": "http://snomed.info/sct",
              "display": "Notifications (procedure)"
            }
          ],
          "text": "Notifications"
        },
        "status": "completed",
        "subject": {
          "reference": "Patient/cf3549bc-eb6a-4ac9-a159-b39a53dbcfe3",
          "display": "Reijer van Woerkom"
        },
        "performedDateTime": "2023-01-20"
      }
    },
    {
      "fullUrl": "urn:uuid:becba025-b895-46ea-a97a-fd96c6f86646",
      "resource": {
        "resourceType": "Procedure",
        "id": "becba025-b895-46ea-a97a-fd96c6f86646",
        "meta": {
          "profile": [
            "http://hl7.org/fhir/uv/ips/StructureDefinition/Procedure-uv-ips"
          ]
        },
        "code": {
          "coding": [
            {
              "code": "310417005",
              "system": "http://snomed.info/sct",
              "display": "Certification procedure (procedure)"
            }
          ],
          "text": "Certification procedure"
        },
        "status": "completed",
        "subject": {
          "reference": "Patient/cf3549bc-eb6a-4ac9-a159-b39a53dbcfe3",
          "display": "Reijer van Woerkom"
        },
        "performedDateTime": "2023-01-20"
      }
    },
    {
      "fullUrl": "urn:uuid:1d84a0e9-5a9f-46aa-98fa-f91f3986513d",
      "resource": {
        "resourceType": "Procedure",
        "id": "1d84a0e9-5a9f-46aa-98fa-f91f3986513d",
        "meta": {
          "profile": [
            "http://hl7.org/fhir/uv/ips/StructureDefinition/Procedure-uv-ips"
          ]
        },
        "code": {
          "coding": [
            {
              "code": "315639002",
              "system": "http://snomed.info/sct",
              "display": "Initial patient assessment (procedure)"
            }
          ],
          "text": "Initial patient assessment"
        },
        "status": "completed",
        "subject": {
          "reference": "Patient/cf3549bc-eb6a-4ac9-a159-b39a53dbcfe3",
          "display": "Reijer van Woerkom"
        },
        "performedDateTime": "2023-01-20"
      }
    },
    {
      "fullUrl": "urn:uuid:a1b9649d-1445-45b9-93d5-3d4a5d58e0bd",
      "resource": {
        "resourceType": "Procedure",
        "id": "a1b9649d-1445-45b9-93d5-3d4a5d58e0bd",
        "meta": {
          "profile": [
            "http://hl7.org/fhir/uv/ips/StructureDefinition/Procedure-uv-ips"
          ]
        },
        "code": {
          "coding": [
            {
              "code": "370789001",
              "system": "http://snomed.info/sct",
              "display": "Development of individualized plan of care (procedure)"
            }
          ],
          "text": "Development of individualized plan of care"
        },
        "status": "completed",
        "subject": {
          "reference": "Patient/cf3549bc-eb6a-4ac9-a159-b39a53dbcfe3",
          "display": "Reijer van Woerkom"
        },
        "performedDateTime": "2023-01-20"
      }
    },
    {
      "fullUrl": "urn:uuid:ce395407-75d4-4991-b146-d4895f66024e",
      "resource": {
        "resourceType": "Immunization",
        "id": "ce395407-75d4-4991-b146-d4895f66024e",
        "meta": {
          "profile": [
            "http://hl7.org/fhir/uv/ips/StructureDefinition/Immunization-uv-ips"
          ]
        },
        "vaccineCode": {
          "coding": [
            {
              "code": "1181000221105",
              "system": "http://snomed.info/sct",
              "display": "Vaccine product containing Influenza virus antigen"
            },
            {
              "code": "J07BB02",
              "system": "http://www.whocc.no/atc",
              "display": "Influenza, inactivated, split virus"
            },
            {
              "code": "140",
              "system": "http://hl7.org/fhir/sid/cvx",
              "display": "Influenza  seasonal  injectable  preservative free"
            }
          ],
          "text": "Influenza virus antigen only vaccine product"
        },
        "site": {
          "coding": [
            {
              "code": "73776007",
              "system": "http://snomed.info/sct",
              "display": "Structure of muscle of upper arm"
            }
          ],
          "text": "Structure of muscle of upper arm"
        },
        "route": {
          "coding": [
            {
              "code": "78421000",
              "system": "http://snomed.info/sct",
              "display": "Intramuscular route"
            }
          ],
          "text": "Intramuscular route"
        },
        "status": "completed",
        "patient": {
          "reference": "Patient/cf3549bc-eb6a-4ac9-a159-b39a53dbcfe3",
          "display": "Reijer van Woerkom"
        },
        "occurrenceDateTime": "2024-08-09",
        "lotNumber": "AG-twIWXX",
        "expirationDate": "2025-05-07"
      }
    },
    {
      "fullUrl": "urn:uuid:36221ccb-8d59-424f-b634-8ec1b3d4b872",
      "resource": {
        "resourceType": "Immunization",
        "id": "36221ccb-8d59-424f-b634-8ec1b3d4b872",
        "meta": {
          "profile": [
            "http://hl7.org/fhir/uv/ips/StructureDefinition/Immunization-uv-ips"
          ]
        },
        "vaccineCode": {
          "coding": [
            {
              "code": "1119349007",
              "system": "http://snomed.info/sct",
              "display": "Vaccine product containing SARS-CoV-2 mRNA"
            },
            {
              "code": "J07BX03",
              "system": "http://www.whocc.no/atc",
              "display": "COVID-19 mRNA vaccines"
            },
            {
              "code": "207",
              "system": "http://hl7.org/fhir/sid/cvx",
              "display": "COVID-19  mRNA  LNP-S  PF  100 mcg/0.5mL dose or 50 mcg/0.25mL dose"
            }
          ],
          "text": "SARS-CoV-2 mRNA vaccine"
        },
        "site": {
          "coding": [
            {
              "code": "73776007",
              "system": "http://snomed.info/sct",
              "display": "Structure of muscle of upper arm"
            }
          ],
          "text": "Structure of muscle of upper arm"
        },
        "route": {
          "coding": [
            {
              "code": "78421000",
              "system": "http://snomed.info/sct",
              "display": "Intramuscular route"
            }
          ],
          "text": "Intramuscular route"
        },
        "status": "completed",
        "patient": {
          "reference": "Patient/cf3549bc-eb6a-4ac9-a159-b39a53dbcfe3",
          "display": "Reijer van Woerkom"
        },
        "occurrenceDateTime": "2021-04-02",
        "lotNumber": "TJ-aJOvSZ",
        "expirationDate": "2022-01-28"
      }
    },
    {
      "fullUrl": "urn:uuid:41f29a60-89cd-4554-9210-78849dd2d0c4",
      "resource": {
        "resourceType": "Immunization",
        "id": "41f29a60-89cd-4554-9210-78849dd2d0c4",
        "meta": {
          "profile": [
            "http://hl7.org/fhir/uv/ips/StructureDefinition/Immunization-uv-ips"
          ]
        },
        "vaccineCode": {
          "coding": [
            {
              "code": "777725002",
              "system": "http://snomed.info/sct",
              "display": "Vaccine product containing only Clostridium tetani toxoid antigen adsorbed"
            },
            {
              "code": "J07AM51",
              "system": "http://www.whocc.no/atc",
              "display": "Diphtheria-tetanus vaccines, adult type"
            },
            {
              "code": "113",
              "system": "http://hl7.org/fhir/sid/cvx",
              "display": "Td (adult)  5 Lf tetanus toxoid  preservative free  adsorbed"
            }
          ],
          "text": "Clostridium tetani toxoid antigen adsorbed only vaccine product"
        },
        "site": {
          "coding": [
            {
              "code": "73776007",
              "system": "http://snomed.info/sct",
              "display": "Structure of muscle of upper arm"
            }
          ],
          "text": "Structure of muscle of upper arm"
        },
        "route": {
          "coding": [
            {
              "code": "78421000",
              "system": "http://snomed.info/sct",
              "display": "Intramuscular route"
            }
          ],
          "text": "Intramuscular route"
        },
        "status": "completed",
        "patient": {
          "reference": "Patient/cf3549bc-eb6a-4ac9-a159-b39a53dbcfe3",
          "display": "Reijer van Woerkom"
        },
        "occurrenceDateTime": "2019-07-12",
        "lotNumber": "WL-IhyY",
        "expirationDate": "2020-01-14"
      }
    }
  ],
  "type": "document",
  "timestamp": "2025-06-17T11:26:49Z"
}
