{
  "resourceType": "Bundle",
  "id": "Instance-Bundle-e911276e-5a76-4ad7-9285-73a02690b89f",
  "meta": {
    "profile": [
      "http://hl7.eu/fhir/eps/StructureDefinition/bundle-eu-eps"
    ]
  },
  "identifier": {
    "assigner": {
      "display": "HL7 Europe"
    },
    "system": "urn:oid:2.16.840.1.113883.2.51.999",
    "value": "13a3d6c7-2c35-4087-8d64-e39858227b91"
  },
  "entry": [
    {
      "fullUrl": "urn:uuid:2d69fe93-4b05-4418-9787-ab9b234329b3",
      "resource": {
        "resourceType": "Composition",
        "id": "2d69fe93-4b05-4418-9787-ab9b234329b3",
        "meta": {
          "profile": [
            "http://hl7.eu/fhir/eps/StructureDefinition/composition-eu-eps"
          ]
        },
        "identifier": {
          "assigner": {
            "display": "HL7 Europe"
          },
          "system": "urn:oid:2.16.840.1.113883.2.51.999",
          "value": "52ba6ce8-347b-4785-830b-d3d0bc859982"
        },
        "type": {
          "coding": [
            {
              "system": "http://loinc.org",
              "code": "60591-5",
              "display": "European Patient Summary"
            }
          ],
          "text": "European Patient Summary"
        },
        "author": [
          {
            "reference": "urn:uuid:9ecd1bd8-5b0f-442d-884e-837a6205e3cd"
          }
        ],
        "section": [
          {
            "text": {
              "status": "generated",
              "div": "<div xmlns=\"http://www.w3.org/1999/xhtml\"><table class=\"hl7__ips\"><tr><td>Ischemic heart disease</td><td>2024-12-01</td><td>active</td></tr><tr><td>Hyperlipidemia</td><td>2018-12-09</td><td>active</td></tr><tr><td>Sepsis</td><td>2016-01-28</td><td>active</td></tr><tr><td>Malignant neoplasm of breast</td><td>2012-10-03</td><td>active</td></tr><tr><td>Gingivitis</td><td>2024-12-01</td><td>inactive</td></tr><tr><td>Streptococcal sore throat</td><td>2023-03-03</td><td>inactive</td></tr><tr><td>Acute bronchitis</td><td>2020-10-16</td><td>inactive</td></tr><tr><td>Viral sinusitis</td><td>2020-03-11</td><td>inactive</td></tr><tr><td>Acute bronchitis</td><td>2015-05-31</td><td>inactive</td></tr><tr><td>Acute viral pharyngitis</td><td>2015-05-02</td><td>inactive</td></tr></table></div>"
            },
            "entry": [
              {
                "reference": "urn:uuid:7b0a7920-8c9d-4bab-8617-ff63bff05dac"
              },
              {
                "reference": "urn:uuid:c1043b52-c610-4dc8-bb91-b113dbdaebf9"
              },
              {
                "reference": "urn:uuid:60ffc665-5049-482f-ac28-f82b47d808b5"
              },
              {
                "reference": "urn:uuid:bb6911b4-3ce6-4c4a-8649-0ab6b3a307d8"
              },
              {
                "reference": "urn:uuid:9ccd9245-c337-49d0-a5a7-7afb19115059"
              },
              {
                "reference": "urn:uuid:07b5f660-cfa9-4779-ad6e-76c60ac51a7d"
              },
              {
                "reference": "urn:uuid:1314e076-4561-4de6-a8b9-d26cad7cd16d"
              },
              {
                "reference": "urn:uuid:b9891051-1046-438d-ad6d-de15e28cfb66"
              },
              {
                "reference": "urn:uuid:4c9fa17d-9ad4-478e-be0f-553deb8a88ba"
              },
              {
                "reference": "urn:uuid:de7f58b6-d8ad-47b5-a595-95b0011313b7"
              }
            ],
            "code": {
              "coding": [
                {
                  "system": "http://loinc.org",
                  "code": "11450-4",
                  "display": "Problem list - Reported"
                }
              ]
            },
            "title": "Problem list"
          },
          {
            "text": {
              "status": "generated",
              "div": "<div xmlns=\"http://www.w3.org/1999/xhtml\"><table class=\"hl7__ips\"><tr><td>Simvastatin 10 mg oral tablet</td><td>2025-01-12</td><td>Oral tablet</td><td>1 tablet (10 mg) by mouth once daily\"</td><td>Reason: Hyperlipidemia (disorder)</td></tr><tr><td>Clopidogrel (as clopidogrel bisulfate) 75 mg oral tablet</td><td>2024-12-08</td><td>Oral tablet</td><td>1 tablet (75 mg) by mouth once daily\"</td><td></td></tr><tr><td>Simvastatin 20 mg oral tablet</td><td>2024-12-08</td><td>Oral tablet</td><td>1 tablet (20 mg) by mouth once daily\"</td><td></td></tr><tr><td>Nitroglycerin 400 microgram/actuation sublingual spray</td><td>2024-12-08</td><td>Sublingual spray</td><td>400 micrograms per spray, spray one metered dose under the tongue as needed for chest pain, repeat every 5 minutes as needed, up to 3 sprays in 15 minutes\"</td><td></td></tr><tr><td>Metoprolol tartrate (as metoprolol succinate) 100 mg prolonged-release oral tablet</td><td>2024-12-08</td><td>Prolonged-release oral tablet</td><td>1 tablet (100 mg) once daily\"</td><td></td></tr></table></div>"
            },
            "entry": [
              {
                "reference": "urn:uuid:dbacf06c-a705-4cbe-8fc7-67134e9f41fe"
              },
              {
                "reference": "urn:uuid:7017d3c2-aeeb-4d72-a6ab-a929cbfbadff"
              },
              {
                "reference": "urn:uuid:d2fe5faf-b854-4703-bfcc-5765fbc96d6b"
              },
              {
                "reference": "urn:uuid:d9014284-3c36-4dd1-9ff1-67146473f445"
              },
              {
                "reference": "urn:uuid:eb461179-d0b2-49d3-a3ec-77f8c5e95470"
              }
            ],
            "code": {
              "coding": [
                {
                  "system": "http://loinc.org",
                  "code": "10160-0",
                  "display": "History of Medication use Narrative"
                }
              ]
            },
            "title": "Medication list"
          },
          {
            "text": {
              "status": "generated",
              "div": "<div xmlns=\"http://www.w3.org/1999/xhtml\"><table class=\"hl7__ips\"><tr><td>No known allergies or intolerances</td></tr></table></div>"
            },
            "entry": [
              {
                "reference": "urn:uuid:7b2b8115-6424-496c-b94a-b41b47bc2906"
              }
            ],
            "code": {
              "coding": [
                {
                  "system": "http://loinc.org",
                  "code": "48765-2",
                  "display": "Allergies and adverse reactions Document"
                }
              ]
            },
            "title": "Allergies and Intolerances"
          },
          {
            "text": {
              "status": "generated",
              "div": "<div xmlns=\"http://www.w3.org/1999/xhtml\"><table class=\"hl7__ips\"><tr><td>Postoperative procedure education</td><td>2025-01-12</td><td>History of coronary artery bypass grafting (situation)</td></tr><tr><td>Stair-climbing test</td><td>2025-01-12</td><td>History of coronary artery bypass grafting (situation)</td></tr><tr><td>Walking exercise test</td><td>2025-01-12</td><td>History of coronary artery bypass grafting (situation)</td></tr><tr><td>Discharge to ward</td><td>2025-01-12</td><td>-</td></tr><tr><td>Discharge from hospital</td><td>2025-01-12</td><td>History of coronary artery bypass grafting (situation)</td></tr><tr><td>Electrocardiographic procedure</td><td>2025-01-11</td><td>-</td></tr><tr><td>Plain X-ray of chest</td><td>2025-01-11</td><td>-</td></tr><tr><td>Transfusion of packed red blood cells</td><td>2025-01-10</td><td>-</td></tr><tr><td>Removal of endotracheal tube</td><td>2025-01-09</td><td>-</td></tr><tr><td>Resuscitation using intravenous fluid</td><td>2016-01-28</td><td>Sepsis (disorder)</td></tr><tr><td>Transfer to stepdown unit</td><td>2016-01-28</td><td>Sepsis (disorder)</td></tr></table></div>"
            },
            "entry": [
              {
                "reference": "urn:uuid:844ac44b-ccaa-4bdd-8f5a-9a9890a75bfa"
              },
              {
                "reference": "urn:uuid:d7afcb1d-aab9-4830-bcc8-1083653ce8d1"
              },
              {
                "reference": "urn:uuid:4f120c91-eb4b-4fba-a0a0-81966729fd6b"
              },
              {
                "reference": "urn:uuid:f9569c5e-75a2-429f-a4a6-0deeb132421c"
              },
              {
                "reference": "urn:uuid:fb3a4122-0c3c-4cdf-9813-971a538447d1"
              },
              {
                "reference": "urn:uuid:b7c40d5a-b3cb-4485-be32-367e12924cb7"
              },
              {
                "reference": "urn:uuid:5b909741-be0e-438c-8a4e-f03fcdd6340f"
              },
              {
                "reference": "urn:uuid:ef4eb33b-99e1-4433-9895-2be71fcd7071"
              },
              {
                "reference": "urn:uuid:07d67bea-17ca-4f4c-b19f-11acf353e76e"
              },
              {
                "reference": "urn:uuid:e0518005-1fe4-4879-a057-eebf6b7212cf"
              },
              {
                "reference": "urn:uuid:5de79ddc-d7a9-4268-af61-dbddea954c64"
              }
            ],
            "code": {
              "coding": [
                {
                  "system": "http://loinc.org",
                  "code": "47519-4",
                  "display": "History of Procedures Document"
                }
              ]
            },
            "title": "Procedure History list"
          },
          {
            "text": {
              "status": "generated",
              "div": "<div xmlns=\"http://www.w3.org/1999/xhtml\"><table class=\"hl7__ips\"><tr><td>Influenza virus antigen only vaccine product</td><td>2024-12-01</td></tr><tr><td>Clostridium tetani toxoid antigen adsorbed only vaccine product</td><td>2023-11-26</td></tr><tr><td>Live attenuated Human alphaherpesvirus 3 only vaccine product</td><td>2023-11-26</td></tr><tr><td>SARS-CoV-2 mRNA vaccine</td><td>2021-08-15</td></tr></table></div>"
            },
            "entry": [
              {
                "reference": "urn:uuid:1b89c3af-cc05-4b51-aa18-2d6e5cfe47a8"
              },
              {
                "reference": "urn:uuid:ce905652-a59d-4d1e-afd9-f43e94390ee9"
              },
              {
                "reference": "urn:uuid:524c7367-6f0d-4422-a6b8-962daa82e107"
              },
              {
                "reference": "urn:uuid:93f46d1d-2253-4757-8a17-6db6bba3ea15"
              }
            ],
            "code": {
              "coding": [
                {
                  "system": "http://loinc.org",
                  "code": "11369-6",
                  "display": "History of Immunization Narrative"
                }
              ]
            },
            "title": "Immunizations list"
          }
        ],
        "title": "European Patient Summary",
        "status": "final",
        "subject": {
          "reference": "urn:uuid:5f849dba-2b08-4144-9c40-3889f8c1fe0c"
        },
        "custodian": {
          "reference": "urn:uuid:da3dee29-00bc-4c48-8a1f-6c6beee4d1fe"
        },
        "date": "2025-06-16T17:28:57Z",
        "confidentiality": "N"
      }
    },
    {
      "fullUrl": "urn:uuid:5f849dba-2b08-4144-9c40-3889f8c1fe0c",
      "resource": {
        "resourceType": "Patient",
        "id": "5f849dba-2b08-4144-9c40-3889f8c1fe0c",
        "meta": {
          "profile": [
            "http://hl7.eu/fhir/eps/StructureDefinition/patient-eu-eps"
          ]
        },
        "identifier": [
          {
            "type": {
              "coding": [
                {
                  "code": "NI",
                  "system": "http://terminology.hl7.org/CodeSystem/v2-0203"
                }
              ]
            },
            "system": "http://ec.europa.eu/identifier/eci",
            "value": "6132-571926-0"
          },
          {
            "type": {
              "coding": [
                {
                  "code": "MR",
                  "system": "http://terminology.hl7.org/CodeSystem/v2-0203"
                }
              ]
            },
            "system": "http://local.setting.eu/identifier",
            "value": "f952d41f-c3ee-717c-4185-e02cd757ad7e"
          }
        ],
        "name": [
          {
            "given": [
              "Eliane"
            ],
            "family": "Rijneveld",
            "text": "Eliane Rijneveld"
          }
        ],
        "address": [
          {
            "line": [
              "Taille Maréchal 477"
            ],
            "use": "home",
            "type": "physical",
            "city": "Ganshoren",
            "postalCode": "1083",
            "country": "Belgium"
          }
        ],
        "telecom": [
          {
            "system": "phone",
            "value": "+32 0499 89 61 55"
          }
        ],
        "gender": "female",
        "birthDate": "1969-02-25"
      }
    },
    {
      "fullUrl": "urn:uuid:9ecd1bd8-5b0f-442d-884e-837a6205e3cd",
      "resource": {
        "resourceType": "PractitionerRole",
        "id": "9ecd1bd8-5b0f-442d-884e-837a6205e3cd",
        "meta": {
          "profile": [
            "http://hl7.eu/fhir/base/StructureDefinition/practitionerRole-eu"
          ]
        },
        "practitioner": {
          "reference": "urn:uuid:f3817f12-e900-4dd9-a07e-f9dc7e6ca29b"
        },
        "organization": {
          "reference": "urn:uuid:da3dee29-00bc-4c48-8a1f-6c6beee4d1fe"
        }
      }
    },
    {
      "fullUrl": "urn:uuid:f3817f12-e900-4dd9-a07e-f9dc7e6ca29b",
      "resource": {
        "resourceType": "Practitioner",
        "id": "f3817f12-e900-4dd9-a07e-f9dc7e6ca29b",
        "meta": {
          "profile": [
            "http://hl7.eu/fhir/base/StructureDefinition/practitioner-eu"
          ]
        },
        "name": [
          {
            "prefix": [
              "Dr."
            ],
            "given": [
              "Hel"
            ],
            "family": "Ping"
          }
        ]
      }
    },
    {
      "fullUrl": "urn:uuid:7b0a7920-8c9d-4bab-8617-ff63bff05dac",
      "resource": {
        "resourceType": "Condition",
        "id": "7b0a7920-8c9d-4bab-8617-ff63bff05dac",
        "meta": {
          "profile": [
            "http://hl7.org/fhir/uv/ips/StructureDefinition/Condition-uv-ips"
          ]
        },
        "category": [
          {
            "coding": [
              {
                "code": "problem-list-item",
                "system": "http://terminology.hl7.org/CodeSystem/condition-category",
                "display": "Problem List Item"
              }
            ]
          }
        ],
        "code": {
          "coding": [
            {
              "code": "414545008",
              "system": "http://snomed.info/sct",
              "display": "Ischemic heart disease (disorder)"
            }
          ],
          "text": "Ischemic heart disease"
        },
        "onsetDateTime": "2024-12-01",
        "clinicalStatus": {
          "coding": [
            {
              "code": "active",
              "system": "http://terminology.hl7.org/CodeSystem/condition-clinical"
            }
          ]
        },
        "subject": {
          "reference": "Patient/5f849dba-2b08-4144-9c40-3889f8c1fe0c",
          "display": "Eliane Rijneveld"
        },
        "asserter": {
          "reference": "Practitioner/f3817f12-e900-4dd9-a07e-f9dc7e6ca29b",
          "display": "Dr. Hel Ping"
        }
      }
    },
    {
      "fullUrl": "urn:uuid:c1043b52-c610-4dc8-bb91-b113dbdaebf9",
      "resource": {
        "resourceType": "Condition",
        "id": "c1043b52-c610-4dc8-bb91-b113dbdaebf9",
        "meta": {
          "profile": [
            "http://hl7.org/fhir/uv/ips/StructureDefinition/Condition-uv-ips"
          ]
        },
        "category": [
          {
            "coding": [
              {
                "code": "problem-list-item",
                "system": "http://terminology.hl7.org/CodeSystem/condition-category",
                "display": "Problem List Item"
              }
            ]
          }
        ],
        "code": {
          "coding": [
            {
              "code": "55822004",
              "system": "http://snomed.info/sct",
              "display": "Hyperlipidemia (disorder)"
            }
          ],
          "text": "Hyperlipidemia"
        },
        "onsetDateTime": "2018-12-09",
        "clinicalStatus": {
          "coding": [
            {
              "code": "active",
              "system": "http://terminology.hl7.org/CodeSystem/condition-clinical"
            }
          ]
        },
        "subject": {
          "reference": "Patient/5f849dba-2b08-4144-9c40-3889f8c1fe0c",
          "display": "Eliane Rijneveld"
        },
        "asserter": {
          "reference": "Practitioner/f3817f12-e900-4dd9-a07e-f9dc7e6ca29b",
          "display": "Dr. Hel Ping"
        }
      }
    },
    {
      "fullUrl": "urn:uuid:60ffc665-5049-482f-ac28-f82b47d808b5",
      "resource": {
        "resourceType": "Condition",
        "id": "60ffc665-5049-482f-ac28-f82b47d808b5",
        "meta": {
          "profile": [
            "http://hl7.org/fhir/uv/ips/StructureDefinition/Condition-uv-ips"
          ]
        },
        "category": [
          {
            "coding": [
              {
                "code": "problem-list-item",
                "system": "http://terminology.hl7.org/CodeSystem/condition-category",
                "display": "Problem List Item"
              }
            ]
          }
        ],
        "code": {
          "coding": [
            {
              "code": "91302008",
              "system": "http://snomed.info/sct",
              "display": "Sepsis (disorder)"
            }
          ],
          "text": "Sepsis"
        },
        "onsetDateTime": "2016-01-28",
        "clinicalStatus": {
          "coding": [
            {
              "code": "active",
              "system": "http://terminology.hl7.org/CodeSystem/condition-clinical"
            }
          ]
        },
        "subject": {
          "reference": "Patient/5f849dba-2b08-4144-9c40-3889f8c1fe0c",
          "display": "Eliane Rijneveld"
        },
        "asserter": {
          "reference": "Practitioner/f3817f12-e900-4dd9-a07e-f9dc7e6ca29b",
          "display": "Dr. Hel Ping"
        }
      }
    },
    {
      "fullUrl": "urn:uuid:bb6911b4-3ce6-4c4a-8649-0ab6b3a307d8",
      "resource": {
        "resourceType": "Condition",
        "id": "bb6911b4-3ce6-4c4a-8649-0ab6b3a307d8",
        "meta": {
          "profile": [
            "http://hl7.org/fhir/uv/ips/StructureDefinition/Condition-uv-ips"
          ]
        },
        "category": [
          {
            "coding": [
              {
                "code": "problem-list-item",
                "system": "http://terminology.hl7.org/CodeSystem/condition-category",
                "display": "Problem List Item"
              }
            ]
          }
        ],
        "code": {
          "coding": [
            {
              "code": "254837009",
              "system": "http://snomed.info/sct",
              "display": "Malignant neoplasm of breast (disorder)"
            }
          ],
          "text": "Malignant neoplasm of breast"
        },
        "onsetDateTime": "2012-10-03",
        "clinicalStatus": {
          "coding": [
            {
              "code": "active",
              "system": "http://terminology.hl7.org/CodeSystem/condition-clinical"
            }
          ]
        },
        "subject": {
          "reference": "Patient/5f849dba-2b08-4144-9c40-3889f8c1fe0c",
          "display": "Eliane Rijneveld"
        },
        "asserter": {
          "reference": "Practitioner/f3817f12-e900-4dd9-a07e-f9dc7e6ca29b",
          "display": "Dr. Hel Ping"
        }
      }
    },
    {
      "fullUrl": "urn:uuid:9ccd9245-c337-49d0-a5a7-7afb19115059",
      "resource": {
        "resourceType": "Condition",
        "id": "9ccd9245-c337-49d0-a5a7-7afb19115059",
        "meta": {
          "profile": [
            "http://hl7.org/fhir/uv/ips/StructureDefinition/Condition-uv-ips"
          ]
        },
        "category": [
          {
            "coding": [
              {
                "code": "problem-list-item",
                "system": "http://terminology.hl7.org/CodeSystem/condition-category",
                "display": "Problem List Item"
              }
            ]
          }
        ],
        "code": {
          "coding": [
            {
              "code": "66383009",
              "system": "http://snomed.info/sct",
              "display": "Gingivitis (disorder)"
            }
          ],
          "text": "Gingivitis"
        },
        "onsetDateTime": "2024-12-01",
        "clinicalStatus": {
          "coding": [
            {
              "code": "inactive",
              "system": "http://terminology.hl7.org/CodeSystem/condition-clinical"
            }
          ]
        },
        "subject": {
          "reference": "Patient/5f849dba-2b08-4144-9c40-3889f8c1fe0c",
          "display": "Eliane Rijneveld"
        },
        "asserter": {
          "reference": "Practitioner/f3817f12-e900-4dd9-a07e-f9dc7e6ca29b",
          "display": "Dr. Hel Ping"
        }
      }
    },
    {
      "fullUrl": "urn:uuid:07b5f660-cfa9-4779-ad6e-76c60ac51a7d",
      "resource": {
        "resourceType": "Condition",
        "id": "07b5f660-cfa9-4779-ad6e-76c60ac51a7d",
        "meta": {
          "profile": [
            "http://hl7.org/fhir/uv/ips/StructureDefinition/Condition-uv-ips"
          ]
        },
        "category": [
          {
            "coding": [
              {
                "code": "problem-list-item",
                "system": "http://terminology.hl7.org/CodeSystem/condition-category",
                "display": "Problem List Item"
              }
            ]
          }
        ],
        "code": {
          "coding": [
            {
              "code": "43878008",
              "system": "http://snomed.info/sct",
              "display": "Streptococcal sore throat (disorder)"
            }
          ],
          "text": "Streptococcal sore throat"
        },
        "onsetDateTime": "2023-03-03",
        "clinicalStatus": {
          "coding": [
            {
              "code": "inactive",
              "system": "http://terminology.hl7.org/CodeSystem/condition-clinical"
            }
          ]
        },
        "subject": {
          "reference": "Patient/5f849dba-2b08-4144-9c40-3889f8c1fe0c",
          "display": "Eliane Rijneveld"
        },
        "asserter": {
          "reference": "Practitioner/f3817f12-e900-4dd9-a07e-f9dc7e6ca29b",
          "display": "Dr. Hel Ping"
        }
      }
    },
    {
      "fullUrl": "urn:uuid:1314e076-4561-4de6-a8b9-d26cad7cd16d",
      "resource": {
        "resourceType": "Condition",
        "id": "1314e076-4561-4de6-a8b9-d26cad7cd16d",
        "meta": {
          "profile": [
            "http://hl7.org/fhir/uv/ips/StructureDefinition/Condition-uv-ips"
          ]
        },
        "category": [
          {
            "coding": [
              {
                "code": "problem-list-item",
                "system": "http://terminology.hl7.org/CodeSystem/condition-category",
                "display": "Problem List Item"
              }
            ]
          }
        ],
        "code": {
          "coding": [
            {
              "code": "10509002",
              "system": "http://snomed.info/sct",
              "display": "Acute bronchitis (disorder)"
            }
          ],
          "text": "Acute bronchitis"
        },
        "onsetDateTime": "2020-10-16",
        "clinicalStatus": {
          "coding": [
            {
              "code": "inactive",
              "system": "http://terminology.hl7.org/CodeSystem/condition-clinical"
            }
          ]
        },
        "subject": {
          "reference": "Patient/5f849dba-2b08-4144-9c40-3889f8c1fe0c",
          "display": "Eliane Rijneveld"
        },
        "asserter": {
          "reference": "Practitioner/f3817f12-e900-4dd9-a07e-f9dc7e6ca29b",
          "display": "Dr. Hel Ping"
        }
      }
    },
    {
      "fullUrl": "urn:uuid:b9891051-1046-438d-ad6d-de15e28cfb66",
      "resource": {
        "resourceType": "Condition",
        "id": "b9891051-1046-438d-ad6d-de15e28cfb66",
        "meta": {
          "profile": [
            "http://hl7.org/fhir/uv/ips/StructureDefinition/Condition-uv-ips"
          ]
        },
        "category": [
          {
            "coding": [
              {
                "code": "problem-list-item",
                "system": "http://terminology.hl7.org/CodeSystem/condition-category",
                "display": "Problem List Item"
              }
            ]
          }
        ],
        "code": {
          "coding": [
            {
              "code": "444814009",
              "system": "http://snomed.info/sct",
              "display": "Viral sinusitis (disorder)"
            }
          ],
          "text": "Viral sinusitis"
        },
        "onsetDateTime": "2020-03-11",
        "clinicalStatus": {
          "coding": [
            {
              "code": "inactive",
              "system": "http://terminology.hl7.org/CodeSystem/condition-clinical"
            }
          ]
        },
        "subject": {
          "reference": "Patient/5f849dba-2b08-4144-9c40-3889f8c1fe0c",
          "display": "Eliane Rijneveld"
        },
        "asserter": {
          "reference": "Practitioner/f3817f12-e900-4dd9-a07e-f9dc7e6ca29b",
          "display": "Dr. Hel Ping"
        }
      }
    },
    {
      "fullUrl": "urn:uuid:4c9fa17d-9ad4-478e-be0f-553deb8a88ba",
      "resource": {
        "resourceType": "Condition",
        "id": "4c9fa17d-9ad4-478e-be0f-553deb8a88ba",
        "meta": {
          "profile": [
            "http://hl7.org/fhir/uv/ips/StructureDefinition/Condition-uv-ips"
          ]
        },
        "category": [
          {
            "coding": [
              {
                "code": "problem-list-item",
                "system": "http://terminology.hl7.org/CodeSystem/condition-category",
                "display": "Problem List Item"
              }
            ]
          }
        ],
        "code": {
          "coding": [
            {
              "code": "10509002",
              "system": "http://snomed.info/sct",
              "display": "Acute bronchitis (disorder)"
            }
          ],
          "text": "Acute bronchitis"
        },
        "onsetDateTime": "2015-05-31",
        "clinicalStatus": {
          "coding": [
            {
              "code": "inactive",
              "system": "http://terminology.hl7.org/CodeSystem/condition-clinical"
            }
          ]
        },
        "subject": {
          "reference": "Patient/5f849dba-2b08-4144-9c40-3889f8c1fe0c",
          "display": "Eliane Rijneveld"
        },
        "asserter": {
          "reference": "Practitioner/f3817f12-e900-4dd9-a07e-f9dc7e6ca29b",
          "display": "Dr. Hel Ping"
        }
      }
    },
    {
      "fullUrl": "urn:uuid:de7f58b6-d8ad-47b5-a595-95b0011313b7",
      "resource": {
        "resourceType": "Condition",
        "id": "de7f58b6-d8ad-47b5-a595-95b0011313b7",
        "meta": {
          "profile": [
            "http://hl7.org/fhir/uv/ips/StructureDefinition/Condition-uv-ips"
          ]
        },
        "category": [
          {
            "coding": [
              {
                "code": "problem-list-item",
                "system": "http://terminology.hl7.org/CodeSystem/condition-category",
                "display": "Problem List Item"
              }
            ]
          }
        ],
        "code": {
          "coding": [
            {
              "code": "195662009",
              "system": "http://snomed.info/sct",
              "display": "Acute viral pharyngitis (disorder)"
            }
          ],
          "text": "Acute viral pharyngitis"
        },
        "onsetDateTime": "2015-05-02",
        "clinicalStatus": {
          "coding": [
            {
              "code": "inactive",
              "system": "http://terminology.hl7.org/CodeSystem/condition-clinical"
            }
          ]
        },
        "subject": {
          "reference": "Patient/5f849dba-2b08-4144-9c40-3889f8c1fe0c",
          "display": "Eliane Rijneveld"
        },
        "asserter": {
          "reference": "Practitioner/f3817f12-e900-4dd9-a07e-f9dc7e6ca29b",
          "display": "Dr. Hel Ping"
        }
      }
    },
    {
      "fullUrl": "urn:uuid:be3b98b1-0b50-44fd-a3fc-a913a68b8aba",
      "resource": {
        "resourceType": "Medication",
        "id": "be3b98b1-0b50-44fd-a3fc-a913a68b8aba",
        "meta": {
          "profile": [
            "http://hl7.org/fhir/uv/ips/StructureDefinition/Medication-uv-ips"
          ]
        },
        "code": {
          "coding": [
            {
              "code": "314231",
              "system": "http://www.nlm.nih.gov/research/umls/rxnorm",
              "display": "simvastatin 10 MG Oral Tablet"
            },
            {
              "code": "319996000",
              "system": "http://snomed.info/sct",
              "display": "Product containing precisely simvastatin 10 milligram/1 each conventional release oral tablet (clinical drug)"
            }
          ],
          "text": "Simvastatin 10 mg oral tablet"
        },
        "form": {
          "coding": [
            {
              "code": "421026006",
              "system": "http://snomed.info/sct",
              "display": "Oral tablet"
            }
          ]
        },
        "ingredient": [
          {
            "itemCodeableConcept": {
              "coding": [
                {
                  "code": "387584000",
                  "system": "http://snomed.info/sct",
                  "display": "Simvastatin"
                }
              ]
            },
            "isActive": true
          }
        ]
      }
    },
    {
      "fullUrl": "urn:uuid:dbacf06c-a705-4cbe-8fc7-67134e9f41fe",
      "resource": {
        "resourceType": "MedicationStatement",
        "id": "dbacf06c-a705-4cbe-8fc7-67134e9f41fe",
        "effectivePeriod": {
          "start": "2025-01-12"
        },
        "dosage": [
          {
            "doseAndRate": [
              {
                "doseQuantity": {
                  "value": 1,
                  "unit": "{tbl}",
                  "code": "{tbl}"
                }
              }
            ],
            "timing": {
              "repeat": {
                "frequency": 1,
                "period": 1,
                "periodUnit": "d"
              }
            },
            "text": "1 tablet (10 mg) by mouth once daily",
            "asNeededBoolean": false
          }
        ],
        "reasonCode": [
          {
            "coding": [
              {
                "code": "55822004",
                "system": "http://snomed.info/sct",
                "display": "Hyperlipidemia (disorder)"
              }
            ]
          }
        ],
        "status": "active",
        "medicationReference": {
          "reference": "Medication/be3b98b1-0b50-44fd-a3fc-a913a68b8aba",
          "display": "Simvastatin 10 mg oral tablet"
        },
        "subject": {
          "reference": "Patient/5f849dba-2b08-4144-9c40-3889f8c1fe0c",
          "display": "Eliane Rijneveld"
        }
      }
    },
    {
      "fullUrl": "urn:uuid:b6fb9b73-d95f-41cf-b132-26797a9de71a",
      "resource": {
        "resourceType": "Medication",
        "id": "b6fb9b73-d95f-41cf-b132-26797a9de71a",
        "meta": {
          "profile": [
            "http://hl7.org/fhir/uv/ips/StructureDefinition/Medication-uv-ips"
          ]
        },
        "code": {
          "coding": [
            {
              "code": "309362",
              "system": "http://www.nlm.nih.gov/research/umls/rxnorm",
              "display": "clopidogrel 75 MG Oral Tablet"
            },
            {
              "code": "783586007",
              "system": "http://snomed.info/sct",
              "display": "Product containing precisely clopidogrel (as clopidogrel bisulfate) 75 milligram/1 each conventional release oral tablet (clinical drug)"
            }
          ],
          "text": "Clopidogrel (as clopidogrel bisulfate) 75 mg oral tablet"
        },
        "form": {
          "coding": [
            {
              "code": "421026006",
              "system": "http://snomed.info/sct",
              "display": "Oral tablet"
            }
          ]
        },
        "ingredient": [
          {
            "itemCodeableConcept": {
              "coding": [
                {
                  "code": "412354008",
                  "system": "http://snomed.info/sct",
                  "display": "Clopidogrel bisulfate"
                }
              ]
            },
            "isActive": true
          }
        ]
      }
    },
    {
      "fullUrl": "urn:uuid:7017d3c2-aeeb-4d72-a6ab-a929cbfbadff",
      "resource": {
        "resourceType": "MedicationStatement",
        "id": "7017d3c2-aeeb-4d72-a6ab-a929cbfbadff",
        "effectivePeriod": {
          "start": "2024-12-08"
        },
        "dosage": [
          {
            "doseAndRate": [
              {
                "doseQuantity": {
                  "value": 1,
                  "unit": "{tbl}",
                  "code": "{tbl}"
                }
              }
            ],
            "timing": {
              "repeat": {
                "frequency": 1,
                "period": 1,
                "periodUnit": "d"
              }
            },
            "text": "1 tablet (75 mg) by mouth once daily",
            "asNeededBoolean": false
          }
        ],
        "status": "active",
        "medicationReference": {
          "reference": "Medication/b6fb9b73-d95f-41cf-b132-26797a9de71a",
          "display": "Clopidogrel (as clopidogrel bisulfate) 75 mg oral tablet"
        },
        "subject": {
          "reference": "Patient/5f849dba-2b08-4144-9c40-3889f8c1fe0c",
          "display": "Eliane Rijneveld"
        }
      }
    },
    {
      "fullUrl": "urn:uuid:1a403894-d8f9-4926-9f75-1967c858fc8b",
      "resource": {
        "resourceType": "Medication",
        "id": "1a403894-d8f9-4926-9f75-1967c858fc8b",
        "meta": {
          "profile": [
            "http://hl7.org/fhir/uv/ips/StructureDefinition/Medication-uv-ips"
          ]
        },
        "code": {
          "coding": [
            {
              "code": "312961",
              "system": "http://www.nlm.nih.gov/research/umls/rxnorm",
              "display": "simvastatin 20 MG Oral Tablet"
            },
            {
              "code": "319997009",
              "system": "http://snomed.info/sct",
              "display": "Product containing precisely simvastatin 20 milligram/1 each conventional release oral tablet (clinical drug)"
            }
          ],
          "text": "Simvastatin 20 mg oral tablet"
        },
        "form": {
          "coding": [
            {
              "code": "421026006",
              "system": "http://snomed.info/sct",
              "display": "Oral tablet"
            }
          ]
        },
        "ingredient": [
          {
            "itemCodeableConcept": {
              "coding": [
                {
                  "code": "387584000",
                  "system": "http://snomed.info/sct",
                  "display": "Simvastatin"
                }
              ]
            },
            "isActive": true
          }
        ]
      }
    },
    {
      "fullUrl": "urn:uuid:d2fe5faf-b854-4703-bfcc-5765fbc96d6b",
      "resource": {
        "resourceType": "MedicationStatement",
        "id": "d2fe5faf-b854-4703-bfcc-5765fbc96d6b",
        "effectivePeriod": {
          "start": "2024-12-08"
        },
        "dosage": [
          {
            "doseAndRate": [
              {
                "doseQuantity": {
                  "value": 1,
                  "unit": "{tbl}",
                  "code": "{tbl}"
                }
              }
            ],
            "timing": {
              "repeat": {
                "frequency": 1,
                "period": 1,
                "periodUnit": "d"
              }
            },
            "text": "1 tablet (20 mg) by mouth once daily",
            "asNeededBoolean": false
          }
        ],
        "status": "active",
        "medicationReference": {
          "reference": "Medication/1a403894-d8f9-4926-9f75-1967c858fc8b",
          "display": "Simvastatin 20 mg oral tablet"
        },
        "subject": {
          "reference": "Patient/5f849dba-2b08-4144-9c40-3889f8c1fe0c",
          "display": "Eliane Rijneveld"
        }
      }
    },
    {
      "fullUrl": "urn:uuid:2482c2a1-b0b9-4875-80a3-e820c0c4a09f",
      "resource": {
        "resourceType": "Medication",
        "id": "2482c2a1-b0b9-4875-80a3-e820c0c4a09f",
        "meta": {
          "profile": [
            "http://hl7.org/fhir/uv/ips/StructureDefinition/Medication-uv-ips"
          ]
        },
        "code": {
          "coding": [
            {
              "code": "705129",
              "system": "http://www.nlm.nih.gov/research/umls/rxnorm",
              "display": "nitroglycerin 0.4 MG/ACTUAT Mucosal Spray"
            },
            {
              "code": "425176000",
              "system": "http://snomed.info/sct",
              "display": "Product containing precisely glyceryl trinitrate 400 microgram/1 actuation conventional release sublingual spray (clinical drug)"
            }
          ],
          "text": "Nitroglycerin 400 microgram/actuation sublingual spray"
        },
        "form": {
          "coding": [
            {
              "code": "385074009",
              "system": "http://snomed.info/sct",
              "display": "Sublingual spray"
            }
          ]
        },
        "ingredient": [
          {
            "itemCodeableConcept": {
              "coding": [
                {
                  "code": "387404004",
                  "system": "http://snomed.info/sct",
                  "display": "Glyceryl trinitrate"
                }
              ]
            },
            "isActive": true
          }
        ]
      }
    },
    {
      "fullUrl": "urn:uuid:d9014284-3c36-4dd1-9ff1-67146473f445",
      "resource": {
        "resourceType": "MedicationStatement",
        "id": "d9014284-3c36-4dd1-9ff1-67146473f445",
        "effectivePeriod": {
          "start": "2024-12-08"
        },
        "dosage": [
          {
            "doseAndRate": [
              {
                "doseQuantity": {
                  "value": 400,
                  "unit": "microgram",
                  "code": "ug"
                }
              }
            ],
            "timing": {
              "repeat": {
                "frequency": 1,
                "period": 5,
                "periodUnit": "min"
              }
            },
            "text": "400 micrograms per spray, spray one metered dose under the tongue as needed for chest pain, repeat every 5 minutes as needed, up to 3 sprays in 15 minutes",
            "asNeededBoolean": true
          }
        ],
        "status": "active",
        "medicationReference": {
          "reference": "Medication/2482c2a1-b0b9-4875-80a3-e820c0c4a09f",
          "display": "Nitroglycerin 400 microgram/actuation sublingual spray"
        },
        "subject": {
          "reference": "Patient/5f849dba-2b08-4144-9c40-3889f8c1fe0c",
          "display": "Eliane Rijneveld"
        }
      }
    },
    {
      "fullUrl": "urn:uuid:21ea9826-6422-40e2-9c6a-ca5d7aecfb43",
      "resource": {
        "resourceType": "Medication",
        "id": "21ea9826-6422-40e2-9c6a-ca5d7aecfb43",
        "meta": {
          "profile": [
            "http://hl7.org/fhir/uv/ips/StructureDefinition/Medication-uv-ips"
          ]
        },
        "code": {
          "coding": [
            {
              "code": "866412",
              "system": "http://www.nlm.nih.gov/research/umls/rxnorm",
              "display": "24 HR metoprolol succinate 100 MG Extended Release Oral Tablet"
            },
            {
              "code": "879980009",
              "system": "http://snomed.info/sct",
              "display": "Product containing precisely metoprolol tartrate (as metoprolol succinate) 100 milligram/1 each prolonged-release oral tablet (clinical drug)"
            }
          ],
          "text": "Metoprolol tartrate (as metoprolol succinate) 100 mg prolonged-release oral tablet"
        },
        "form": {
          "coding": [
            {
              "code": "385060002",
              "system": "http://snomed.info/sct",
              "display": "Prolonged-release oral tablet"
            }
          ]
        },
        "ingredient": [
          {
            "itemCodeableConcept": {
              "coding": [
                {
                  "code": "412432007",
                  "system": "http://snomed.info/sct",
                  "display": "Metoprolol succinate"
                }
              ]
            },
            "isActive": true
          }
        ]
      }
    },
    {
      "fullUrl": "urn:uuid:eb461179-d0b2-49d3-a3ec-77f8c5e95470",
      "resource": {
        "resourceType": "MedicationStatement",
        "id": "eb461179-d0b2-49d3-a3ec-77f8c5e95470",
        "effectivePeriod": {
          "start": "2024-12-08"
        },
        "dosage": [
          {
            "doseAndRate": [
              {
                "doseQuantity": {
                  "value": 1,
                  "unit": "{tbl}",
                  "code": "{tbl}"
                }
              }
            ],
            "timing": {
              "repeat": {
                "frequency": 1,
                "period": 1,
                "periodUnit": "d"
              }
            },
            "text": "1 tablet (100 mg) once daily",
            "asNeededBoolean": false
          }
        ],
        "status": "active",
        "medicationReference": {
          "reference": "Medication/21ea9826-6422-40e2-9c6a-ca5d7aecfb43",
          "display": "Metoprolol tartrate (as metoprolol succinate) 100 mg prolonged-release oral tablet"
        },
        "subject": {
          "reference": "Patient/5f849dba-2b08-4144-9c40-3889f8c1fe0c",
          "display": "Eliane Rijneveld"
        }
      }
    },
    {
      "fullUrl": "urn:uuid:7b2b8115-6424-496c-b94a-b41b47bc2906",
      "resource": {
        "resourceType": "AllergyIntolerance",
        "id": "7b2b8115-6424-496c-b94a-b41b47bc2906",
        "meta": {
          "profile": [
            "http://hl7.eu/fhir/eps/StructureDefinition/allergyIntolerance-eu-eps"
          ]
        },
        "code": {
          "coding": [
            {
              "code": "716186003",
              "system": "http://snomed.info/sct",
              "display": "No known allergy (situation)"
            }
          ]
        },
        "patient": {
          "reference": "Patient/5f849dba-2b08-4144-9c40-3889f8c1fe0c",
          "display": "Eliane Rijneveld"
        },
        "_onsetDateTime": {
          "extension": [
            {
              "url": "http://hl7.org/fhir/StructureDefinition/data-absent-reason",
              "valueCode": "unknown"
            }
          ]
        }
      }
    },
    {
      "fullUrl": "urn:uuid:844ac44b-ccaa-4bdd-8f5a-9a9890a75bfa",
      "resource": {
        "resourceType": "Procedure",
        "id": "844ac44b-ccaa-4bdd-8f5a-9a9890a75bfa",
        "meta": {
          "profile": [
            "http://hl7.org/fhir/uv/ips/StructureDefinition/Procedure-uv-ips"
          ]
        },
        "code": {
          "coding": [
            {
              "code": "243063003",
              "system": "http://snomed.info/sct",
              "display": "Postoperative procedure education (procedure)"
            }
          ],
          "text": "Postoperative procedure education"
        },
        "reasonCode": [
          {
            "coding": [
              {
                "code": "399261000",
                "system": "http://snomed.info/sct",
                "display": "History of coronary artery bypass grafting (situation)"
              }
            ]
          }
        ],
        "status": "completed",
        "subject": {
          "reference": "Patient/5f849dba-2b08-4144-9c40-3889f8c1fe0c",
          "display": "Eliane Rijneveld"
        },
        "performedDateTime": "2025-01-12"
      }
    },
    {
      "fullUrl": "urn:uuid:d7afcb1d-aab9-4830-bcc8-1083653ce8d1",
      "resource": {
        "resourceType": "Procedure",
        "id": "d7afcb1d-aab9-4830-bcc8-1083653ce8d1",
        "meta": {
          "profile": [
            "http://hl7.org/fhir/uv/ips/StructureDefinition/Procedure-uv-ips"
          ]
        },
        "code": {
          "coding": [
            {
              "code": "252482003",
              "system": "http://snomed.info/sct",
              "display": "Stair-climbing test (procedure)"
            }
          ],
          "text": "Stair-climbing test"
        },
        "reasonCode": [
          {
            "coding": [
              {
                "code": "399261000",
                "system": "http://snomed.info/sct",
                "display": "History of coronary artery bypass grafting (situation)"
              }
            ]
          }
        ],
        "status": "completed",
        "subject": {
          "reference": "Patient/5f849dba-2b08-4144-9c40-3889f8c1fe0c",
          "display": "Eliane Rijneveld"
        },
        "performedDateTime": "2025-01-12"
      }
    },
    {
      "fullUrl": "urn:uuid:4f120c91-eb4b-4fba-a0a0-81966729fd6b",
      "resource": {
        "resourceType": "Procedure",
        "id": "4f120c91-eb4b-4fba-a0a0-81966729fd6b",
        "meta": {
          "profile": [
            "http://hl7.org/fhir/uv/ips/StructureDefinition/Procedure-uv-ips"
          ]
        },
        "code": {
          "coding": [
            {
              "code": "302761001",
              "system": "http://snomed.info/sct",
              "display": "Walking exercise test (procedure)"
            }
          ],
          "text": "Walking exercise test"
        },
        "reasonCode": [
          {
            "coding": [
              {
                "code": "399261000",
                "system": "http://snomed.info/sct",
                "display": "History of coronary artery bypass grafting (situation)"
              }
            ]
          }
        ],
        "status": "completed",
        "subject": {
          "reference": "Patient/5f849dba-2b08-4144-9c40-3889f8c1fe0c",
          "display": "Eliane Rijneveld"
        },
        "performedDateTime": "2025-01-12"
      }
    },
    {
      "fullUrl": "urn:uuid:f9569c5e-75a2-429f-a4a6-0deeb132421c",
      "resource": {
        "resourceType": "Procedure",
        "id": "f9569c5e-75a2-429f-a4a6-0deeb132421c",
        "meta": {
          "profile": [
            "http://hl7.org/fhir/uv/ips/StructureDefinition/Procedure-uv-ips"
          ]
        },
        "code": {
          "coding": [
            {
              "code": "306706006",
              "system": "http://snomed.info/sct",
              "display": "Discharge to ward (procedure)"
            }
          ],
          "text": "Discharge to ward"
        },
        "status": "completed",
        "subject": {
          "reference": "Patient/5f849dba-2b08-4144-9c40-3889f8c1fe0c",
          "display": "Eliane Rijneveld"
        },
        "performedDateTime": "2025-01-12"
      }
    },
    {
      "fullUrl": "urn:uuid:fb3a4122-0c3c-4cdf-9813-971a538447d1",
      "resource": {
        "resourceType": "Procedure",
        "id": "fb3a4122-0c3c-4cdf-9813-971a538447d1",
        "meta": {
          "profile": [
            "http://hl7.org/fhir/uv/ips/StructureDefinition/Procedure-uv-ips"
          ]
        },
        "code": {
          "coding": [
            {
              "code": "308283009",
              "system": "http://snomed.info/sct",
              "display": "Discharge from hospital (procedure)"
            }
          ],
          "text": "Discharge from hospital"
        },
        "reasonCode": [
          {
            "coding": [
              {
                "code": "399261000",
                "system": "http://snomed.info/sct",
                "display": "History of coronary artery bypass grafting (situation)"
              }
            ]
          }
        ],
        "status": "completed",
        "subject": {
          "reference": "Patient/5f849dba-2b08-4144-9c40-3889f8c1fe0c",
          "display": "Eliane Rijneveld"
        },
        "performedDateTime": "2025-01-12"
      }
    },
    {
      "fullUrl": "urn:uuid:b7c40d5a-b3cb-4485-be32-367e12924cb7",
      "resource": {
        "resourceType": "Procedure",
        "id": "b7c40d5a-b3cb-4485-be32-367e12924cb7",
        "meta": {
          "profile": [
            "http://hl7.org/fhir/uv/ips/StructureDefinition/Procedure-uv-ips"
          ]
        },
        "code": {
          "coding": [
            {
              "code": "29303009",
              "system": "http://snomed.info/sct",
              "display": "Electrocardiographic procedure (procedure)"
            }
          ],
          "text": "Electrocardiographic procedure"
        },
        "status": "completed",
        "subject": {
          "reference": "Patient/5f849dba-2b08-4144-9c40-3889f8c1fe0c",
          "display": "Eliane Rijneveld"
        },
        "performedDateTime": "2025-01-11"
      }
    },
    {
      "fullUrl": "urn:uuid:5b909741-be0e-438c-8a4e-f03fcdd6340f",
      "resource": {
        "resourceType": "Procedure",
        "id": "5b909741-be0e-438c-8a4e-f03fcdd6340f",
        "meta": {
          "profile": [
            "http://hl7.org/fhir/uv/ips/StructureDefinition/Procedure-uv-ips"
          ]
        },
        "code": {
          "coding": [
            {
              "code": "399208008",
              "system": "http://snomed.info/sct",
              "display": "Plain X-ray of chest (procedure)"
            }
          ],
          "text": "Plain X-ray of chest"
        },
        "status": "completed",
        "subject": {
          "reference": "Patient/5f849dba-2b08-4144-9c40-3889f8c1fe0c",
          "display": "Eliane Rijneveld"
        },
        "performedDateTime": "2025-01-11"
      }
    },
    {
      "fullUrl": "urn:uuid:ef4eb33b-99e1-4433-9895-2be71fcd7071",
      "resource": {
        "resourceType": "Procedure",
        "id": "ef4eb33b-99e1-4433-9895-2be71fcd7071",
        "meta": {
          "profile": [
            "http://hl7.org/fhir/uv/ips/StructureDefinition/Procedure-uv-ips"
          ]
        },
        "code": {
          "coding": [
            {
              "code": "71493000",
              "system": "http://snomed.info/sct",
              "display": "Transfusion of packed red blood cells (procedure)"
            }
          ],
          "text": "Transfusion of packed red blood cells"
        },
        "status": "completed",
        "subject": {
          "reference": "Patient/5f849dba-2b08-4144-9c40-3889f8c1fe0c",
          "display": "Eliane Rijneveld"
        },
        "performedDateTime": "2025-01-10"
      }
    },
    {
      "fullUrl": "urn:uuid:07d67bea-17ca-4f4c-b19f-11acf353e76e",
      "resource": {
        "resourceType": "Procedure",
        "id": "07d67bea-17ca-4f4c-b19f-11acf353e76e",
        "meta": {
          "profile": [
            "http://hl7.org/fhir/uv/ips/StructureDefinition/Procedure-uv-ips"
          ]
        },
        "code": {
          "coding": [
            {
              "code": "271280005",
              "system": "http://snomed.info/sct",
              "display": "Removal of endotracheal tube (procedure)"
            }
          ],
          "text": "Removal of endotracheal tube"
        },
        "status": "completed",
        "subject": {
          "reference": "Patient/5f849dba-2b08-4144-9c40-3889f8c1fe0c",
          "display": "Eliane Rijneveld"
        },
        "performedDateTime": "2025-01-09"
      }
    },
    {
      "fullUrl": "urn:uuid:e0518005-1fe4-4879-a057-eebf6b7212cf",
      "resource": {
        "resourceType": "Procedure",
        "id": "e0518005-1fe4-4879-a057-eebf6b7212cf",
        "meta": {
          "profile": [
            "http://hl7.org/fhir/uv/ips/StructureDefinition/Procedure-uv-ips"
          ]
        },
        "code": {
          "coding": [
            {
              "code": "430701006",
              "system": "http://snomed.info/sct",
              "display": "Resuscitation using intravenous fluid (procedure)"
            }
          ],
          "text": "Resuscitation using intravenous fluid"
        },
        "reasonCode": [
          {
            "coding": [
              {
                "code": "91302008",
                "system": "http://snomed.info/sct",
                "display": "Sepsis (disorder)"
              }
            ]
          }
        ],
        "status": "completed",
        "subject": {
          "reference": "Patient/5f849dba-2b08-4144-9c40-3889f8c1fe0c",
          "display": "Eliane Rijneveld"
        },
        "performedDateTime": "2016-01-28"
      }
    },
    {
      "fullUrl": "urn:uuid:5de79ddc-d7a9-4268-af61-dbddea954c64",
      "resource": {
        "resourceType": "Procedure",
        "id": "5de79ddc-d7a9-4268-af61-dbddea954c64",
        "meta": {
          "profile": [
            "http://hl7.org/fhir/uv/ips/StructureDefinition/Procedure-uv-ips"
          ]
        },
        "code": {
          "coding": [
            {
              "code": "449214001",
              "system": "http://snomed.info/sct",
              "display": "Transfer to stepdown unit (procedure)"
            }
          ],
          "text": "Transfer to stepdown unit"
        },
        "reasonCode": [
          {
            "coding": [
              {
                "code": "91302008",
                "system": "http://snomed.info/sct",
                "display": "Sepsis (disorder)"
              }
            ]
          }
        ],
        "status": "completed",
        "subject": {
          "reference": "Patient/5f849dba-2b08-4144-9c40-3889f8c1fe0c",
          "display": "Eliane Rijneveld"
        },
        "performedDateTime": "2016-01-28"
      }
    },
    {
      "fullUrl": "urn:uuid:1b89c3af-cc05-4b51-aa18-2d6e5cfe47a8",
      "resource": {
        "resourceType": "Immunization",
        "id": "1b89c3af-cc05-4b51-aa18-2d6e5cfe47a8",
        "meta": {
          "profile": [
            "http://hl7.org/fhir/uv/ips/StructureDefinition/Immunization-uv-ips"
          ]
        },
        "vaccineCode": {
          "coding": [
            {
              "code": "1181000221105",
              "system": "http://snomed.info/sct",
              "display": "Vaccine product containing Influenza virus antigen"
            },
            {
              "code": "J07BB02",
              "system": "http://www.whocc.no/atc",
              "display": "Influenza, inactivated, split virus"
            },
            {
              "code": "140",
              "system": "http://hl7.org/fhir/sid/cvx",
              "display": "Influenza  seasonal  injectable  preservative free"
            }
          ],
          "text": "Influenza virus antigen only vaccine product"
        },
        "site": {
          "coding": [
            {
              "code": "73776007",
              "system": "http://snomed.info/sct",
              "display": "Structure of muscle of upper arm"
            }
          ],
          "text": "Structure of muscle of upper arm"
        },
        "route": {
          "coding": [
            {
              "code": "78421000",
              "system": "http://snomed.info/sct",
              "display": "Intramuscular route"
            }
          ],
          "text": "Intramuscular route"
        },
        "status": "completed",
        "patient": {
          "reference": "Patient/5f849dba-2b08-4144-9c40-3889f8c1fe0c",
          "display": "Eliane Rijneveld"
        },
        "occurrenceDateTime": "2024-12-01",
        "lotNumber": "WE-V3RIj",
        "expirationDate": "2025-06-19"
      }
    },
    {
      "fullUrl": "urn:uuid:ce905652-a59d-4d1e-afd9-f43e94390ee9",
      "resource": {
        "resourceType": "Immunization",
        "id": "ce905652-a59d-4d1e-afd9-f43e94390ee9",
        "meta": {
          "profile": [
            "http://hl7.org/fhir/uv/ips/StructureDefinition/Immunization-uv-ips"
          ]
        },
        "vaccineCode": {
          "coding": [
            {
              "code": "777725002",
              "system": "http://snomed.info/sct",
              "display": "Vaccine product containing only Clostridium tetani toxoid antigen adsorbed"
            },
            {
              "code": "J07AM51",
              "system": "http://www.whocc.no/atc",
              "display": "Diphtheria-tetanus vaccines, adult type"
            },
            {
              "code": "113",
              "system": "http://hl7.org/fhir/sid/cvx",
              "display": "Td (adult)  5 Lf tetanus toxoid  preservative free  adsorbed"
            }
          ],
          "text": "Clostridium tetani toxoid antigen adsorbed only vaccine product"
        },
        "site": {
          "coding": [
            {
              "code": "73776007",
              "system": "http://snomed.info/sct",
              "display": "Structure of muscle of upper arm"
            }
          ],
          "text": "Structure of muscle of upper arm"
        },
        "route": {
          "coding": [
            {
              "code": "78421000",
              "system": "http://snomed.info/sct",
              "display": "Intramuscular route"
            }
          ],
          "text": "Intramuscular route"
        },
        "status": "completed",
        "patient": {
          "reference": "Patient/5f849dba-2b08-4144-9c40-3889f8c1fe0c",
          "display": "Eliane Rijneveld"
        },
        "occurrenceDateTime": "2023-11-26",
        "lotNumber": "CV-vmfOlMCy",
        "expirationDate": "2024-03-18"
      }
    },
    {
      "fullUrl": "urn:uuid:524c7367-6f0d-4422-a6b8-962daa82e107",
      "resource": {
        "resourceType": "Immunization",
        "id": "524c7367-6f0d-4422-a6b8-962daa82e107",
        "meta": {
          "profile": [
            "http://hl7.org/fhir/uv/ips/StructureDefinition/Immunization-uv-ips"
          ]
        },
        "vaccineCode": {
          "coding": [
            {
              "code": "2221000221107",
              "system": "http://snomed.info/sct",
              "display": "Live attenuated Varicella-zoster vaccine"
            },
            {
              "code": "J07BK02",
              "system": "http://www.whocc.no/atc",
              "display": "Varicella-zoster vaccines"
            },
            {
              "code": "121",
              "system": "http://hl7.org/fhir/sid/cvx",
              "display": "zoster vaccine  live"
            }
          ],
          "text": "Live attenuated Human alphaherpesvirus 3 only vaccine product"
        },
        "site": {
          "coding": [
            {
              "code": "368208006",
              "system": "http://snomed.info/sct",
              "display": "Structure of skin of upper arm"
            }
          ],
          "text": "Structure of skin of upper arm"
        },
        "route": {
          "coding": [
            {
              "code": "34206005",
              "system": "http://snomed.info/sct",
              "display": "Subcutaneous route"
            }
          ],
          "text": "Subcutaneous route"
        },
        "status": "completed",
        "patient": {
          "reference": "Patient/5f849dba-2b08-4144-9c40-3889f8c1fe0c",
          "display": "Eliane Rijneveld"
        },
        "occurrenceDateTime": "2023-11-26",
        "lotNumber": "TW-atkSA",
        "expirationDate": "2024-08-30"
      }
    },
    {
      "fullUrl": "urn:uuid:93f46d1d-2253-4757-8a17-6db6bba3ea15",
      "resource": {
        "resourceType": "Immunization",
        "id": "93f46d1d-2253-4757-8a17-6db6bba3ea15",
        "meta": {
          "profile": [
            "http://hl7.org/fhir/uv/ips/StructureDefinition/Immunization-uv-ips"
          ]
        },
        "vaccineCode": {
          "coding": [
            {
              "code": "1119349007",
              "system": "http://snomed.info/sct",
              "display": "Vaccine product containing SARS-CoV-2 mRNA"
            },
            {
              "code": "J07BX03",
              "system": "http://www.whocc.no/atc",
              "display": "COVID-19 mRNA vaccines"
            },
            {
              "code": "207",
              "system": "http://hl7.org/fhir/sid/cvx",
              "display": "COVID-19  mRNA  LNP-S  PF  100 mcg/0.5mL dose or 50 mcg/0.25mL dose"
            }
          ],
          "text": "SARS-CoV-2 mRNA vaccine"
        },
        "site": {
          "coding": [
            {
              "code": "73776007",
              "system": "http://snomed.info/sct",
              "display": "Structure of muscle of upper arm"
            }
          ],
          "text": "Structure of muscle of upper arm"
        },
        "route": {
          "coding": [
            {
              "code": "78421000",
              "system": "http://snomed.info/sct",
              "display": "Intramuscular route"
            }
          ],
          "text": "Intramuscular route"
        },
        "status": "completed",
        "patient": {
          "reference": "Patient/5f849dba-2b08-4144-9c40-3889f8c1fe0c",
          "display": "Eliane Rijneveld"
        },
        "occurrenceDateTime": "2021-08-15",
        "lotNumber": "CG-LEOwbdH",
        "expirationDate": "2022-06-07"
      }
    }
  ],
  "type": "document",
  "timestamp": "2025-06-16T17:28:57Z"
}
