{
  "resourceType": "Bundle",
  "id": "Instance-Bundle-41058120-15ae-425a-81d7-e1ad863bcc1d",
  "meta": {
    "profile": [
      "http://hl7.eu/fhir/eps/StructureDefinition/bundle-eu-eps"
    ]
  },
  "identifier": {
    "assigner": {
      "display": "HL7 Europe"
    },
    "system": "urn:oid:2.16.840.1.113883.2.51.999",
    "value": "7c31f526-5f81-4af9-875e-eb1f9efbb78b"
  },
  "entry": [
    {
      "fullUrl": "urn:uuid:ed9fc445-c09e-43e6-926a-512b6bf65da4",
      "resource": {
        "resourceType": "Composition",
        "id": "ed9fc445-c09e-43e6-926a-512b6bf65da4",
        "meta": {
          "profile": [
            "http://hl7.eu/fhir/eps/StructureDefinition/composition-eu-eps"
          ]
        },
        "identifier": {
          "assigner": {
            "display": "HL7 Europe"
          },
          "system": "urn:oid:2.16.840.1.113883.2.51.999",
          "value": "234556b4-1ca6-4ca7-a10e-8b11b5714f8f"
        },
        "type": {
          "coding": [
            {
              "system": "http://loinc.org",
              "code": "60591-5",
              "display": "European Patient Summary"
            }
          ],
          "text": "European Patient Summary"
        },
        "author": [
          {
            "reference": "urn:uuid:a2ff78ab-6500-4836-a1e0-14e4684042ac"
          }
        ],
        "section": [
          {
            "text": {
              "status": "generated",
              "div": "<div xmlns=\"http://www.w3.org/1999/xhtml\"><table class=\"hl7__ips\"><tr><th>Condition</th><th>Onset Date</th><th>Status</th></tr><tr><td>Hyperlipidemia</td><td><span class=\"nb\">2019-09-09</span></td><td>active</td></tr><tr><td>Ischemic heart disease</td><td><span class=\"nb\">2014-08-11</span></td><td>active</td></tr><tr><td>Osteoporosis</td><td><span class=\"nb\">2008-07-07</span></td><td>active</td></tr><tr><td>Recurrent urinary tract infection</td><td><span class=\"nb\">1968-05-17</span></td><td>active</td></tr><tr><td><span class=\"grayedout\">Primary dental caries</span></td><td><span class=\"nb\">2024-10-21</span></td><td><span class=\"grayedout\">inactive</span></td></tr><tr><td><span class=\"grayedout\">Gingivitis</span></td><td><span class=\"nb\">2024-10-07</span></td><td><span class=\"grayedout\">inactive</span></td></tr><tr><td><span class=\"grayedout\">Viral sinusitis</span></td><td><span class=\"nb\">2024-02-28</span></td><td><span class=\"grayedout\">inactive</span></td></tr><tr><td><span class=\"grayedout\">Polyp of colon</span></td><td><span class=\"nb\">2023-06-05</span></td><td><span class=\"grayedout\">inactive</span></td></tr><tr><td><span class=\"grayedout\">Fracture of ankle</span></td><td><span class=\"nb\">2022-12-06</span></td><td><span class=\"grayedout\">inactive</span></td></tr><tr><td><span class=\"grayedout\">Fracture of bone</span></td><td><span class=\"nb\">2022-12-06</span></td><td><span class=\"grayedout\">inactive</span></td></tr><tr><td><span class=\"grayedout\">Osteoporotic fracture</span></td><td><span class=\"nb\">2022-12-06</span></td><td><span class=\"grayedout\">inactive</span></td></tr><tr><td><span class=\"grayedout\">Gingivitis</span></td><td><span class=\"nb\">2021-09-20</span></td><td><span class=\"grayedout\">inactive</span></td></tr><tr><td><span class=\"grayedout\">Epidermal burn of skin</span></td><td><span class=\"nb\">2020-10-05</span></td><td><span class=\"grayedout\">inactive</span></td></tr><tr><td><span class=\"grayedout\">Gingival disease</span></td><td><span class=\"nb\">2020-09-28</span></td><td><span class=\"grayedout\">inactive</span></td></tr><tr><td><span class=\"grayedout\">Gingivitis</span></td><td><span class=\"nb\">2020-09-14</span></td><td><span class=\"grayedout\">inactive</span></td></tr><tr><td><span class=\"grayedout\">Fracture of bone</span></td><td><span class=\"nb\">2019-05-22</span></td><td><span class=\"grayedout\">inactive</span></td></tr><tr><td><span class=\"grayedout\">Closed fracture of hip</span></td><td><span class=\"nb\">2019-05-22</span></td><td><span class=\"grayedout\">inactive</span></td></tr><tr><td><span class=\"grayedout\">Osteoporotic fracture</span></td><td><span class=\"nb\">2019-05-22</span></td><td><span class=\"grayedout\">inactive</span></td></tr><tr><td><span class=\"grayedout\">Primary dental caries</span></td><td><span class=\"nb\">2017-09-11</span></td><td><span class=\"grayedout\">inactive</span></td></tr></table></div>"
            },
            "entry": [
              {
                "reference": "urn:uuid:d42bb5e0-21bb-477e-b0ee-28c755bcd23b"
              },
              {
                "reference": "urn:uuid:3926e288-d672-408b-9c2f-dec3edafc40d"
              },
              {
                "reference": "urn:uuid:3fa56040-7236-42a1-aad1-4c49465ae618"
              },
              {
                "reference": "urn:uuid:6df5cbd2-0a7c-4353-890b-982db8ddac2f"
              },
              {
                "reference": "urn:uuid:b31a56aa-1f2f-42d5-8c2b-59c56d49c75e"
              },
              {
                "reference": "urn:uuid:63c11f6c-0c9f-40ff-afb7-8dfd0adbd623"
              },
              {
                "reference": "urn:uuid:29358a04-3d6d-4184-bd38-1a5fd12aec0b"
              },
              {
                "reference": "urn:uuid:364ad697-f850-4d13-86f9-fff6ca581836"
              },
              {
                "reference": "urn:uuid:79dbdaa8-1b5b-4897-b71a-66cc8b1c2455"
              },
              {
                "reference": "urn:uuid:6d8a4ef0-48a7-4109-8c3b-0a25ca685a35"
              },
              {
                "reference": "urn:uuid:d8c4e3e3-115a-456a-8f17-f3f00a0da97c"
              },
              {
                "reference": "urn:uuid:09560e54-5bb5-4314-851c-9a8e7d7d3d1c"
              },
              {
                "reference": "urn:uuid:21bbd66a-c0b6-447c-8609-6f7bc3566d58"
              },
              {
                "reference": "urn:uuid:889bb599-b62b-43fc-ac32-ed9360a21678"
              },
              {
                "reference": "urn:uuid:e9929173-a6ea-4bce-99a8-2420913bf421"
              },
              {
                "reference": "urn:uuid:c62b3b1c-0fb1-47ef-a996-f68b437246e0"
              },
              {
                "reference": "urn:uuid:bb38f89e-66fa-44af-afcc-b558d3b53b87"
              },
              {
                "reference": "urn:uuid:6e010b7d-3dd1-47ab-9f2d-fe9019b05968"
              },
              {
                "reference": "urn:uuid:93506fcc-4498-4a9e-b6fd-493aedd9251d"
              }
            ],
            "code": {
              "coding": [
                {
                  "system": "http://loinc.org",
                  "code": "11450-4",
                  "display": "Problem list - Reported"
                }
              ]
            },
            "title": "Problem list"
          },
          {
            "text": {
              "status": "generated",
              "div": "<div xmlns=\"http://www.w3.org/1999/xhtml\"><table class=\"hl7__ips\"><tr><th>Medication</th><th>Since</th><th>Form</th><th>Dosage</th><th>Reason</th></tr><tr><td>Simvastatin 10 mg oral tablet</td><td><span class=\"nb\">2024-10-28</span></td><td>Oral tablet</td><td>1 tablet (10 mg) by mouth once daily</td><td>Hyperlipidemia (disorder)</td></tr><tr><td>Alendronic acid (as alendronate sodium) 10 mg oral tablet</td><td><span class=\"nb\">2024-10-07</span></td><td>Oral tablet</td><td>1 tablet (10 mg) once daily</td><td>Osteoporosis (disorder)</td></tr><tr><td>Clopidogrel (as clopidogrel bisulfate) 75 mg oral tablet</td><td><span class=\"nb\">2014-08-18</span></td><td>Oral tablet</td><td>1 tablet (75 mg) by mouth once daily</td><td></td></tr><tr><td>Simvastatin 20 mg oral tablet</td><td><span class=\"nb\">2014-08-18</span></td><td>Oral tablet</td><td>1 tablet (20 mg) by mouth once daily</td><td></td></tr><tr><td>Nitroglycerin 400 microgram/actuation sublingual spray</td><td><span class=\"nb\">2014-08-18</span></td><td>Sublingual spray</td><td>400 micrograms (1 spray) sublingually as needed for chest pain, may repeat every 5 minutes as needed, up to 3 sprays in 15 minutes</td><td></td></tr><tr><td>Metoprolol tartrate (as metoprolol succinate) 100 mg prolonged-release oral tablet</td><td><span class=\"nb\">2014-08-18</span></td><td>Prolonged-release oral tablet</td><td>1 tablet (100 mg) once daily</td><td></td></tr></table></div>"
            },
            "entry": [
              {
                "reference": "urn:uuid:fef4becd-4c59-4e79-9b29-a0eb13d7d97c"
              },
              {
                "reference": "urn:uuid:26729d74-d9fa-4b28-aaa7-bd37046b2df3"
              },
              {
                "reference": "urn:uuid:068cc161-bf89-427b-b242-a4fc4fb33d1b"
              },
              {
                "reference": "urn:uuid:f0fda324-7fb8-4900-9cf8-e3652120a8a5"
              },
              {
                "reference": "urn:uuid:437258fc-6d89-47fa-9dea-caa18e6ba71d"
              },
              {
                "reference": "urn:uuid:d4054c76-c754-416d-a6bb-c05c8552b611"
              }
            ],
            "code": {
              "coding": [
                {
                  "system": "http://loinc.org",
                  "code": "10160-0",
                  "display": "History of Medication use Narrative"
                }
              ]
            },
            "title": "Medication list"
          },
          {
            "text": {
              "status": "generated",
              "div": "<div xmlns=\"http://www.w3.org/1999/xhtml\"><table class=\"hl7__ips\"><tr><td>No known allergies or intolerances</td></tr></table></div>"
            },
            "entry": [
              {
                "reference": "urn:uuid:69b5035a-9f63-4b72-8a8a-6c05d0ec0bc6"
              }
            ],
            "code": {
              "coding": [
                {
                  "system": "http://loinc.org",
                  "code": "48765-2",
                  "display": "Allergies and adverse reactions Document"
                }
              ]
            },
            "title": "Allergies and Intolerances"
          },
          {
            "text": {
              "status": "generated",
              "div": "<div xmlns=\"http://www.w3.org/1999/xhtml\"><table class=\"hl7__ips\"><tr><th>Procedure</th><th>Date</th><th>Reason</th></tr><tr><td>Pre-discharge assessment</td><td><span class=\"nb\">2023-05-26</span></td><td>-</td></tr><tr><td>Discharge from hospital</td><td><span class=\"nb\">2023-05-26</span></td><td>-</td></tr><tr><td>Nursing care/supplementary surveillance</td><td><span class=\"nb\">2023-05-25</span></td><td>-</td></tr><tr><td>Professional / ancillary services care</td><td><span class=\"nb\">2023-05-19</span></td><td>-</td></tr><tr><td>History AND physical examination</td><td><span class=\"nb\">2023-05-15</span></td><td>-</td></tr><tr><td>Physical therapy procedure</td><td><span class=\"nb\">2023-05-15</span></td><td>-</td></tr><tr><td>Initial patient assessment</td><td><span class=\"nb\">2023-05-15</span></td><td>-</td></tr><tr><td>Development of individualized plan of care</td><td><span class=\"nb\">2023-05-15</span></td><td>-</td></tr><tr><td>Care regimes assessment</td><td><span class=\"nb\">2022-12-17</span></td><td>-</td></tr><tr><td>Occupational therapy</td><td><span class=\"nb\">2022-12-13</span></td><td>-</td></tr><tr><td>Bone immobilization</td><td><span class=\"nb\">2022-12-06</span></td><td>Fracture of ankle (disorder)</td></tr><tr><td>Plain X-ray of ankle region</td><td><span class=\"nb\">2022-12-06</span></td><td>-</td></tr><tr><td>Speech and language therapy regime</td><td><span class=\"nb\">2020-10-12</span></td><td>-</td></tr><tr><td>Admission to orthopedic department</td><td><span class=\"nb\">2019-05-22</span></td><td>Closed fracture of hip (disorder)</td></tr><tr><td>Plain X-ray of pelvis</td><td><span class=\"nb\">2019-05-22</span></td><td>-</td></tr></table></div>"
            },
            "entry": [
              {
                "reference": "urn:uuid:b4d8640e-faca-456d-8407-21da5900f0a7"
              },
              {
                "reference": "urn:uuid:6dcde4d0-d8dd-4ef5-92c7-9fd8f4eabd48"
              },
              {
                "reference": "urn:uuid:a6854dec-2613-4911-97e7-5ce3d421d89a"
              },
              {
                "reference": "urn:uuid:ce4ed9a5-70ed-49b5-aebc-22bacd48eb4d"
              },
              {
                "reference": "urn:uuid:f026a52a-f0fb-4ed7-b957-1f00a2c7d337"
              },
              {
                "reference": "urn:uuid:c206afe3-95ff-42b9-98aa-a1f7688e3779"
              },
              {
                "reference": "urn:uuid:8c207598-3420-421c-b26e-5bf64c4a0a67"
              },
              {
                "reference": "urn:uuid:5c7dbd26-fc34-492f-ad39-02a1a28e3e07"
              },
              {
                "reference": "urn:uuid:9ec4fe91-be3a-4c9d-abf1-e055a6ef44f8"
              },
              {
                "reference": "urn:uuid:9b1b1ebd-6573-4b31-891a-c5ce7ee24a21"
              },
              {
                "reference": "urn:uuid:a4c3e33a-2c01-40ea-8a3f-6d4fe79a356b"
              },
              {
                "reference": "urn:uuid:cdecff1f-f0b7-45a5-a522-e1f08a38451f"
              },
              {
                "reference": "urn:uuid:84efbe6e-019f-4fb3-8fa1-b8033cac7945"
              },
              {
                "reference": "urn:uuid:30c3fb0c-fe5c-4f32-9741-b0ba1e7832e1"
              },
              {
                "reference": "urn:uuid:3f2e371b-c041-47b4-919a-726da9a7cebb"
              }
            ],
            "code": {
              "coding": [
                {
                  "system": "http://loinc.org",
                  "code": "47519-4",
                  "display": "History of Procedures Document"
                }
              ]
            },
            "title": "Procedure History list"
          },
          {
            "text": {
              "status": "generated",
              "div": "<div xmlns=\"http://www.w3.org/1999/xhtml\"><table class=\"hl7__ips\"><tr><th>Vaccine</th><th>Date</th></tr><tr><td>Influenza virus antigen only vaccine product</td><td><span class=\"nb\">2024-10-07</span></td></tr><tr><td>SARS-CoV-2 mRNA vaccine</td><td><span class=\"nb\">2021-06-21</span></td></tr><tr><td>Clostridium tetani toxoid antigen adsorbed only vaccine product</td><td><span class=\"nb\">2019-09-09</span></td></tr></table></div>"
            },
            "entry": [
              {
                "reference": "urn:uuid:65eb6c76-b79c-4c04-b7b3-5b5ef6304295"
              },
              {
                "reference": "urn:uuid:e2ee6932-c6b9-4f06-8e67-a264c7220efb"
              },
              {
                "reference": "urn:uuid:6e79df62-af10-4635-9f9e-c45016b807ed"
              }
            ],
            "code": {
              "coding": [
                {
                  "system": "http://loinc.org",
                  "code": "11369-6",
                  "display": "History of Immunization Narrative"
                }
              ]
            },
            "title": "Immunizations list"
          }
        ],
        "title": "European Patient Summary",
        "status": "final",
        "subject": {
          "reference": "urn:uuid:3cdddf48-064e-4aac-bc24-81a286d6f983"
        },
        "custodian": {
          "reference": "urn:uuid:b85c4784-b675-4530-902a-8209e61edd50"
        },
        "date": "2025-06-17T11:26:49Z",
        "confidentiality": "N"
      }
    },
    {
      "fullUrl": "urn:uuid:3cdddf48-064e-4aac-bc24-81a286d6f983",
      "resource": {
        "resourceType": "Patient",
        "id": "3cdddf48-064e-4aac-bc24-81a286d6f983",
        "meta": {
          "profile": [
            "http://hl7.eu/fhir/eps/StructureDefinition/patient-eu-eps"
          ]
        },
        "identifier": [
          {
            "type": {
              "coding": [
                {
                  "code": "NI",
                  "system": "http://terminology.hl7.org/CodeSystem/v2-0203"
                }
              ]
            },
            "system": "http://ec.europa.eu/identifier/eci",
            "value": "6284-190445-1"
          },
          {
            "type": {
              "coding": [
                {
                  "code": "MR",
                  "system": "http://terminology.hl7.org/CodeSystem/v2-0203"
                }
              ]
            },
            "system": "http://local.setting.eu/identifier",
            "value": "a993bfb1-1afb-da20-199b-77ce25902baa"
          }
        ],
        "name": [
          {
            "given": [
              "Elizabeth"
            ],
            "family": "Hyam",
            "text": "Elizabeth Hyam"
          }
        ],
        "address": [
          {
            "line": [
              "74 Preston Rd"
            ],
            "use": "home",
            "type": "physical",
            "city": "Moreleigh",
            "postalCode": "TQ9 3SB",
            "country": "United Kingdom"
          }
        ],
        "telecom": [
          {
            "system": "phone",
            "value": "+44 077 8176 0759"
          }
        ],
        "gender": "female",
        "birthDate": "1942-09-01"
      }
    },
    {
      "fullUrl": "urn:uuid:a2ff78ab-6500-4836-a1e0-14e4684042ac",
      "resource": {
        "resourceType": "PractitionerRole",
        "id": "a2ff78ab-6500-4836-a1e0-14e4684042ac",
        "meta": {
          "profile": [
            "http://hl7.eu/fhir/base/StructureDefinition/practitionerRole-eu"
          ]
        },
        "practitioner": {
          "reference": "urn:uuid:d7a9b0ef-2feb-491b-b8f1-d7b5fb1a57f6"
        },
        "organization": {
          "reference": "urn:uuid:b85c4784-b675-4530-902a-8209e61edd50"
        }
      }
    },
    {
      "fullUrl": "urn:uuid:d7a9b0ef-2feb-491b-b8f1-d7b5fb1a57f6",
      "resource": {
        "resourceType": "Practitioner",
        "id": "d7a9b0ef-2feb-491b-b8f1-d7b5fb1a57f6",
        "meta": {
          "profile": [
            "http://hl7.eu/fhir/base/StructureDefinition/practitioner-eu"
          ]
        },
        "name": [
          {
            "prefix": [
              "Dr."
            ],
            "given": [
              "Hel"
            ],
            "family": "Ping"
          }
        ]
      }
    },
    {
      "fullUrl": "urn:uuid:d42bb5e0-21bb-477e-b0ee-28c755bcd23b",
      "resource": {
        "resourceType": "Condition",
        "id": "d42bb5e0-21bb-477e-b0ee-28c755bcd23b",
        "meta": {
          "profile": [
            "http://hl7.org/fhir/uv/ips/StructureDefinition/Condition-uv-ips"
          ]
        },
        "category": [
          {
            "coding": [
              {
                "code": "problem-list-item",
                "system": "http://terminology.hl7.org/CodeSystem/condition-category",
                "display": "Problem List Item"
              }
            ]
          }
        ],
        "code": {
          "coding": [
            {
              "code": "55822004",
              "system": "http://snomed.info/sct",
              "display": "Hyperlipidemia (disorder)"
            }
          ],
          "text": "Hyperlipidemia"
        },
        "onsetDateTime": "2019-09-09",
        "clinicalStatus": {
          "coding": [
            {
              "code": "active",
              "system": "http://terminology.hl7.org/CodeSystem/condition-clinical"
            }
          ]
        },
        "subject": {
          "reference": "Patient/3cdddf48-064e-4aac-bc24-81a286d6f983",
          "display": "Elizabeth Hyam"
        },
        "asserter": {
          "reference": "Practitioner/d7a9b0ef-2feb-491b-b8f1-d7b5fb1a57f6",
          "display": "Dr. Hel Ping"
        }
      }
    },
    {
      "fullUrl": "urn:uuid:3926e288-d672-408b-9c2f-dec3edafc40d",
      "resource": {
        "resourceType": "Condition",
        "id": "3926e288-d672-408b-9c2f-dec3edafc40d",
        "meta": {
          "profile": [
            "http://hl7.org/fhir/uv/ips/StructureDefinition/Condition-uv-ips"
          ]
        },
        "category": [
          {
            "coding": [
              {
                "code": "problem-list-item",
                "system": "http://terminology.hl7.org/CodeSystem/condition-category",
                "display": "Problem List Item"
              }
            ]
          }
        ],
        "code": {
          "coding": [
            {
              "code": "414545008",
              "system": "http://snomed.info/sct",
              "display": "Ischemic heart disease (disorder)"
            }
          ],
          "text": "Ischemic heart disease"
        },
        "onsetDateTime": "2014-08-11",
        "clinicalStatus": {
          "coding": [
            {
              "code": "active",
              "system": "http://terminology.hl7.org/CodeSystem/condition-clinical"
            }
          ]
        },
        "subject": {
          "reference": "Patient/3cdddf48-064e-4aac-bc24-81a286d6f983",
          "display": "Elizabeth Hyam"
        },
        "asserter": {
          "reference": "Practitioner/d7a9b0ef-2feb-491b-b8f1-d7b5fb1a57f6",
          "display": "Dr. Hel Ping"
        }
      }
    },
    {
      "fullUrl": "urn:uuid:3fa56040-7236-42a1-aad1-4c49465ae618",
      "resource": {
        "resourceType": "Condition",
        "id": "3fa56040-7236-42a1-aad1-4c49465ae618",
        "meta": {
          "profile": [
            "http://hl7.org/fhir/uv/ips/StructureDefinition/Condition-uv-ips"
          ]
        },
        "category": [
          {
            "coding": [
              {
                "code": "problem-list-item",
                "system": "http://terminology.hl7.org/CodeSystem/condition-category",
                "display": "Problem List Item"
              }
            ]
          }
        ],
        "code": {
          "coding": [
            {
              "code": "64859006",
              "system": "http://snomed.info/sct",
              "display": "Osteoporosis (disorder)"
            }
          ],
          "text": "Osteoporosis"
        },
        "onsetDateTime": "2008-07-07",
        "clinicalStatus": {
          "coding": [
            {
              "code": "active",
              "system": "http://terminology.hl7.org/CodeSystem/condition-clinical"
            }
          ]
        },
        "subject": {
          "reference": "Patient/3cdddf48-064e-4aac-bc24-81a286d6f983",
          "display": "Elizabeth Hyam"
        },
        "asserter": {
          "reference": "Practitioner/d7a9b0ef-2feb-491b-b8f1-d7b5fb1a57f6",
          "display": "Dr. Hel Ping"
        }
      }
    },
    {
      "fullUrl": "urn:uuid:6df5cbd2-0a7c-4353-890b-982db8ddac2f",
      "resource": {
        "resourceType": "Condition",
        "id": "6df5cbd2-0a7c-4353-890b-982db8ddac2f",
        "meta": {
          "profile": [
            "http://hl7.org/fhir/uv/ips/StructureDefinition/Condition-uv-ips"
          ]
        },
        "category": [
          {
            "coding": [
              {
                "code": "problem-list-item",
                "system": "http://terminology.hl7.org/CodeSystem/condition-category",
                "display": "Problem List Item"
              }
            ]
          }
        ],
        "code": {
          "coding": [
            {
              "code": "197927001",
              "system": "http://snomed.info/sct",
              "display": "Recurrent urinary tract infection (disorder)"
            }
          ],
          "text": "Recurrent urinary tract infection"
        },
        "onsetDateTime": "1968-05-17",
        "clinicalStatus": {
          "coding": [
            {
              "code": "active",
              "system": "http://terminology.hl7.org/CodeSystem/condition-clinical"
            }
          ]
        },
        "subject": {
          "reference": "Patient/3cdddf48-064e-4aac-bc24-81a286d6f983",
          "display": "Elizabeth Hyam"
        },
        "asserter": {
          "reference": "Practitioner/d7a9b0ef-2feb-491b-b8f1-d7b5fb1a57f6",
          "display": "Dr. Hel Ping"
        }
      }
    },
    {
      "fullUrl": "urn:uuid:b31a56aa-1f2f-42d5-8c2b-59c56d49c75e",
      "resource": {
        "resourceType": "Condition",
        "id": "b31a56aa-1f2f-42d5-8c2b-59c56d49c75e",
        "meta": {
          "profile": [
            "http://hl7.org/fhir/uv/ips/StructureDefinition/Condition-uv-ips"
          ]
        },
        "category": [
          {
            "coding": [
              {
                "code": "problem-list-item",
                "system": "http://terminology.hl7.org/CodeSystem/condition-category",
                "display": "Problem List Item"
              }
            ]
          }
        ],
        "code": {
          "coding": [
            {
              "code": "109570002",
              "system": "http://snomed.info/sct",
              "display": "Primary dental caries (disorder)"
            }
          ],
          "text": "Primary dental caries"
        },
        "onsetDateTime": "2024-10-21",
        "clinicalStatus": {
          "coding": [
            {
              "code": "inactive",
              "system": "http://terminology.hl7.org/CodeSystem/condition-clinical"
            }
          ]
        },
        "subject": {
          "reference": "Patient/3cdddf48-064e-4aac-bc24-81a286d6f983",
          "display": "Elizabeth Hyam"
        },
        "asserter": {
          "reference": "Practitioner/d7a9b0ef-2feb-491b-b8f1-d7b5fb1a57f6",
          "display": "Dr. Hel Ping"
        }
      }
    },
    {
      "fullUrl": "urn:uuid:63c11f6c-0c9f-40ff-afb7-8dfd0adbd623",
      "resource": {
        "resourceType": "Condition",
        "id": "63c11f6c-0c9f-40ff-afb7-8dfd0adbd623",
        "meta": {
          "profile": [
            "http://hl7.org/fhir/uv/ips/StructureDefinition/Condition-uv-ips"
          ]
        },
        "category": [
          {
            "coding": [
              {
                "code": "problem-list-item",
                "system": "http://terminology.hl7.org/CodeSystem/condition-category",
                "display": "Problem List Item"
              }
            ]
          }
        ],
        "code": {
          "coding": [
            {
              "code": "66383009",
              "system": "http://snomed.info/sct",
              "display": "Gingivitis (disorder)"
            }
          ],
          "text": "Gingivitis"
        },
        "onsetDateTime": "2024-10-07",
        "clinicalStatus": {
          "coding": [
            {
              "code": "inactive",
              "system": "http://terminology.hl7.org/CodeSystem/condition-clinical"
            }
          ]
        },
        "subject": {
          "reference": "Patient/3cdddf48-064e-4aac-bc24-81a286d6f983",
          "display": "Elizabeth Hyam"
        },
        "asserter": {
          "reference": "Practitioner/d7a9b0ef-2feb-491b-b8f1-d7b5fb1a57f6",
          "display": "Dr. Hel Ping"
        }
      }
    },
    {
      "fullUrl": "urn:uuid:29358a04-3d6d-4184-bd38-1a5fd12aec0b",
      "resource": {
        "resourceType": "Condition",
        "id": "29358a04-3d6d-4184-bd38-1a5fd12aec0b",
        "meta": {
          "profile": [
            "http://hl7.org/fhir/uv/ips/StructureDefinition/Condition-uv-ips"
          ]
        },
        "category": [
          {
            "coding": [
              {
                "code": "problem-list-item",
                "system": "http://terminology.hl7.org/CodeSystem/condition-category",
                "display": "Problem List Item"
              }
            ]
          }
        ],
        "code": {
          "coding": [
            {
              "code": "444814009",
              "system": "http://snomed.info/sct",
              "display": "Viral sinusitis (disorder)"
            }
          ],
          "text": "Viral sinusitis"
        },
        "onsetDateTime": "2024-02-28",
        "clinicalStatus": {
          "coding": [
            {
              "code": "inactive",
              "system": "http://terminology.hl7.org/CodeSystem/condition-clinical"
            }
          ]
        },
        "subject": {
          "reference": "Patient/3cdddf48-064e-4aac-bc24-81a286d6f983",
          "display": "Elizabeth Hyam"
        },
        "asserter": {
          "reference": "Practitioner/d7a9b0ef-2feb-491b-b8f1-d7b5fb1a57f6",
          "display": "Dr. Hel Ping"
        }
      }
    },
    {
      "fullUrl": "urn:uuid:364ad697-f850-4d13-86f9-fff6ca581836",
      "resource": {
        "resourceType": "Condition",
        "id": "364ad697-f850-4d13-86f9-fff6ca581836",
        "meta": {
          "profile": [
            "http://hl7.org/fhir/uv/ips/StructureDefinition/Condition-uv-ips"
          ]
        },
        "category": [
          {
            "coding": [
              {
                "code": "problem-list-item",
                "system": "http://terminology.hl7.org/CodeSystem/condition-category",
                "display": "Problem List Item"
              }
            ]
          }
        ],
        "code": {
          "coding": [
            {
              "code": "68496003",
              "system": "http://snomed.info/sct",
              "display": "Polyp of colon (disorder)"
            }
          ],
          "text": "Polyp of colon"
        },
        "onsetDateTime": "2023-06-05",
        "clinicalStatus": {
          "coding": [
            {
              "code": "inactive",
              "system": "http://terminology.hl7.org/CodeSystem/condition-clinical"
            }
          ]
        },
        "subject": {
          "reference": "Patient/3cdddf48-064e-4aac-bc24-81a286d6f983",
          "display": "Elizabeth Hyam"
        },
        "asserter": {
          "reference": "Practitioner/d7a9b0ef-2feb-491b-b8f1-d7b5fb1a57f6",
          "display": "Dr. Hel Ping"
        }
      }
    },
    {
      "fullUrl": "urn:uuid:79dbdaa8-1b5b-4897-b71a-66cc8b1c2455",
      "resource": {
        "resourceType": "Condition",
        "id": "79dbdaa8-1b5b-4897-b71a-66cc8b1c2455",
        "meta": {
          "profile": [
            "http://hl7.org/fhir/uv/ips/StructureDefinition/Condition-uv-ips"
          ]
        },
        "category": [
          {
            "coding": [
              {
                "code": "problem-list-item",
                "system": "http://terminology.hl7.org/CodeSystem/condition-category",
                "display": "Problem List Item"
              }
            ]
          }
        ],
        "code": {
          "coding": [
            {
              "code": "16114001",
              "system": "http://snomed.info/sct",
              "display": "Fracture of ankle (disorder)"
            }
          ],
          "text": "Fracture of ankle"
        },
        "onsetDateTime": "2022-12-06",
        "clinicalStatus": {
          "coding": [
            {
              "code": "inactive",
              "system": "http://terminology.hl7.org/CodeSystem/condition-clinical"
            }
          ]
        },
        "subject": {
          "reference": "Patient/3cdddf48-064e-4aac-bc24-81a286d6f983",
          "display": "Elizabeth Hyam"
        },
        "asserter": {
          "reference": "Practitioner/d7a9b0ef-2feb-491b-b8f1-d7b5fb1a57f6",
          "display": "Dr. Hel Ping"
        }
      }
    },
    {
      "fullUrl": "urn:uuid:6d8a4ef0-48a7-4109-8c3b-0a25ca685a35",
      "resource": {
        "resourceType": "Condition",
        "id": "6d8a4ef0-48a7-4109-8c3b-0a25ca685a35",
        "meta": {
          "profile": [
            "http://hl7.org/fhir/uv/ips/StructureDefinition/Condition-uv-ips"
          ]
        },
        "category": [
          {
            "coding": [
              {
                "code": "problem-list-item",
                "system": "http://terminology.hl7.org/CodeSystem/condition-category",
                "display": "Problem List Item"
              }
            ]
          }
        ],
        "code": {
          "coding": [
            {
              "code": "125605004",
              "system": "http://snomed.info/sct",
              "display": "Fracture of bone (disorder)"
            }
          ],
          "text": "Fracture of bone"
        },
        "onsetDateTime": "2022-12-06",
        "clinicalStatus": {
          "coding": [
            {
              "code": "inactive",
              "system": "http://terminology.hl7.org/CodeSystem/condition-clinical"
            }
          ]
        },
        "subject": {
          "reference": "Patient/3cdddf48-064e-4aac-bc24-81a286d6f983",
          "display": "Elizabeth Hyam"
        },
        "asserter": {
          "reference": "Practitioner/d7a9b0ef-2feb-491b-b8f1-d7b5fb1a57f6",
          "display": "Dr. Hel Ping"
        }
      }
    },
    {
      "fullUrl": "urn:uuid:d8c4e3e3-115a-456a-8f17-f3f00a0da97c",
      "resource": {
        "resourceType": "Condition",
        "id": "d8c4e3e3-115a-456a-8f17-f3f00a0da97c",
        "meta": {
          "profile": [
            "http://hl7.org/fhir/uv/ips/StructureDefinition/Condition-uv-ips"
          ]
        },
        "category": [
          {
            "coding": [
              {
                "code": "problem-list-item",
                "system": "http://terminology.hl7.org/CodeSystem/condition-category",
                "display": "Problem List Item"
              }
            ]
          }
        ],
        "code": {
          "coding": [
            {
              "code": "443165006",
              "system": "http://snomed.info/sct",
              "display": "Osteoporotic fracture of bone (disorder)"
            }
          ],
          "text": "Osteoporotic fracture"
        },
        "onsetDateTime": "2022-12-06",
        "clinicalStatus": {
          "coding": [
            {
              "code": "inactive",
              "system": "http://terminology.hl7.org/CodeSystem/condition-clinical"
            }
          ]
        },
        "subject": {
          "reference": "Patient/3cdddf48-064e-4aac-bc24-81a286d6f983",
          "display": "Elizabeth Hyam"
        },
        "asserter": {
          "reference": "Practitioner/d7a9b0ef-2feb-491b-b8f1-d7b5fb1a57f6",
          "display": "Dr. Hel Ping"
        }
      }
    },
    {
      "fullUrl": "urn:uuid:09560e54-5bb5-4314-851c-9a8e7d7d3d1c",
      "resource": {
        "resourceType": "Condition",
        "id": "09560e54-5bb5-4314-851c-9a8e7d7d3d1c",
        "meta": {
          "profile": [
            "http://hl7.org/fhir/uv/ips/StructureDefinition/Condition-uv-ips"
          ]
        },
        "category": [
          {
            "coding": [
              {
                "code": "problem-list-item",
                "system": "http://terminology.hl7.org/CodeSystem/condition-category",
                "display": "Problem List Item"
              }
            ]
          }
        ],
        "code": {
          "coding": [
            {
              "code": "66383009",
              "system": "http://snomed.info/sct",
              "display": "Gingivitis (disorder)"
            }
          ],
          "text": "Gingivitis"
        },
        "onsetDateTime": "2021-09-20",
        "clinicalStatus": {
          "coding": [
            {
              "code": "inactive",
              "system": "http://terminology.hl7.org/CodeSystem/condition-clinical"
            }
          ]
        },
        "subject": {
          "reference": "Patient/3cdddf48-064e-4aac-bc24-81a286d6f983",
          "display": "Elizabeth Hyam"
        },
        "asserter": {
          "reference": "Practitioner/d7a9b0ef-2feb-491b-b8f1-d7b5fb1a57f6",
          "display": "Dr. Hel Ping"
        }
      }
    },
    {
      "fullUrl": "urn:uuid:21bbd66a-c0b6-447c-8609-6f7bc3566d58",
      "resource": {
        "resourceType": "Condition",
        "id": "21bbd66a-c0b6-447c-8609-6f7bc3566d58",
        "meta": {
          "profile": [
            "http://hl7.org/fhir/uv/ips/StructureDefinition/Condition-uv-ips"
          ]
        },
        "category": [
          {
            "coding": [
              {
                "code": "problem-list-item",
                "system": "http://terminology.hl7.org/CodeSystem/condition-category",
                "display": "Problem List Item"
              }
            ]
          }
        ],
        "code": {
          "coding": [
            {
              "code": "403190006",
              "system": "http://snomed.info/sct",
              "display": "Epidermal burn of skin (disorder)"
            }
          ],
          "text": "Epidermal burn of skin"
        },
        "onsetDateTime": "2020-10-05",
        "clinicalStatus": {
          "coding": [
            {
              "code": "inactive",
              "system": "http://terminology.hl7.org/CodeSystem/condition-clinical"
            }
          ]
        },
        "subject": {
          "reference": "Patient/3cdddf48-064e-4aac-bc24-81a286d6f983",
          "display": "Elizabeth Hyam"
        },
        "asserter": {
          "reference": "Practitioner/d7a9b0ef-2feb-491b-b8f1-d7b5fb1a57f6",
          "display": "Dr. Hel Ping"
        }
      }
    },
    {
      "fullUrl": "urn:uuid:889bb599-b62b-43fc-ac32-ed9360a21678",
      "resource": {
        "resourceType": "Condition",
        "id": "889bb599-b62b-43fc-ac32-ed9360a21678",
        "meta": {
          "profile": [
            "http://hl7.org/fhir/uv/ips/StructureDefinition/Condition-uv-ips"
          ]
        },
        "category": [
          {
            "coding": [
              {
                "code": "problem-list-item",
                "system": "http://terminology.hl7.org/CodeSystem/condition-category",
                "display": "Problem List Item"
              }
            ]
          }
        ],
        "code": {
          "coding": [
            {
              "code": "18718003",
              "system": "http://snomed.info/sct",
              "display": "Gingival disease (disorder)"
            }
          ],
          "text": "Gingival disease"
        },
        "onsetDateTime": "2020-09-28",
        "clinicalStatus": {
          "coding": [
            {
              "code": "inactive",
              "system": "http://terminology.hl7.org/CodeSystem/condition-clinical"
            }
          ]
        },
        "subject": {
          "reference": "Patient/3cdddf48-064e-4aac-bc24-81a286d6f983",
          "display": "Elizabeth Hyam"
        },
        "asserter": {
          "reference": "Practitioner/d7a9b0ef-2feb-491b-b8f1-d7b5fb1a57f6",
          "display": "Dr. Hel Ping"
        }
      }
    },
    {
      "fullUrl": "urn:uuid:e9929173-a6ea-4bce-99a8-2420913bf421",
      "resource": {
        "resourceType": "Condition",
        "id": "e9929173-a6ea-4bce-99a8-2420913bf421",
        "meta": {
          "profile": [
            "http://hl7.org/fhir/uv/ips/StructureDefinition/Condition-uv-ips"
          ]
        },
        "category": [
          {
            "coding": [
              {
                "code": "problem-list-item",
                "system": "http://terminology.hl7.org/CodeSystem/condition-category",
                "display": "Problem List Item"
              }
            ]
          }
        ],
        "code": {
          "coding": [
            {
              "code": "66383009",
              "system": "http://snomed.info/sct",
              "display": "Gingivitis (disorder)"
            }
          ],
          "text": "Gingivitis"
        },
        "onsetDateTime": "2020-09-14",
        "clinicalStatus": {
          "coding": [
            {
              "code": "inactive",
              "system": "http://terminology.hl7.org/CodeSystem/condition-clinical"
            }
          ]
        },
        "subject": {
          "reference": "Patient/3cdddf48-064e-4aac-bc24-81a286d6f983",
          "display": "Elizabeth Hyam"
        },
        "asserter": {
          "reference": "Practitioner/d7a9b0ef-2feb-491b-b8f1-d7b5fb1a57f6",
          "display": "Dr. Hel Ping"
        }
      }
    },
    {
      "fullUrl": "urn:uuid:c62b3b1c-0fb1-47ef-a996-f68b437246e0",
      "resource": {
        "resourceType": "Condition",
        "id": "c62b3b1c-0fb1-47ef-a996-f68b437246e0",
        "meta": {
          "profile": [
            "http://hl7.org/fhir/uv/ips/StructureDefinition/Condition-uv-ips"
          ]
        },
        "category": [
          {
            "coding": [
              {
                "code": "problem-list-item",
                "system": "http://terminology.hl7.org/CodeSystem/condition-category",
                "display": "Problem List Item"
              }
            ]
          }
        ],
        "code": {
          "coding": [
            {
              "code": "125605004",
              "system": "http://snomed.info/sct",
              "display": "Fracture of bone (disorder)"
            }
          ],
          "text": "Fracture of bone"
        },
        "onsetDateTime": "2019-05-22",
        "clinicalStatus": {
          "coding": [
            {
              "code": "inactive",
              "system": "http://terminology.hl7.org/CodeSystem/condition-clinical"
            }
          ]
        },
        "subject": {
          "reference": "Patient/3cdddf48-064e-4aac-bc24-81a286d6f983",
          "display": "Elizabeth Hyam"
        },
        "asserter": {
          "reference": "Practitioner/d7a9b0ef-2feb-491b-b8f1-d7b5fb1a57f6",
          "display": "Dr. Hel Ping"
        }
      }
    },
    {
      "fullUrl": "urn:uuid:bb38f89e-66fa-44af-afcc-b558d3b53b87",
      "resource": {
        "resourceType": "Condition",
        "id": "bb38f89e-66fa-44af-afcc-b558d3b53b87",
        "meta": {
          "profile": [
            "http://hl7.org/fhir/uv/ips/StructureDefinition/Condition-uv-ips"
          ]
        },
        "category": [
          {
            "coding": [
              {
                "code": "problem-list-item",
                "system": "http://terminology.hl7.org/CodeSystem/condition-category",
                "display": "Problem List Item"
              }
            ]
          }
        ],
        "code": {
          "coding": [
            {
              "code": "359817006",
              "system": "http://snomed.info/sct",
              "display": "Closed fracture of hip (disorder)"
            }
          ],
          "text": "Closed fracture of hip"
        },
        "onsetDateTime": "2019-05-22",
        "clinicalStatus": {
          "coding": [
            {
              "code": "inactive",
              "system": "http://terminology.hl7.org/CodeSystem/condition-clinical"
            }
          ]
        },
        "subject": {
          "reference": "Patient/3cdddf48-064e-4aac-bc24-81a286d6f983",
          "display": "Elizabeth Hyam"
        },
        "asserter": {
          "reference": "Practitioner/d7a9b0ef-2feb-491b-b8f1-d7b5fb1a57f6",
          "display": "Dr. Hel Ping"
        }
      }
    },
    {
      "fullUrl": "urn:uuid:6e010b7d-3dd1-47ab-9f2d-fe9019b05968",
      "resource": {
        "resourceType": "Condition",
        "id": "6e010b7d-3dd1-47ab-9f2d-fe9019b05968",
        "meta": {
          "profile": [
            "http://hl7.org/fhir/uv/ips/StructureDefinition/Condition-uv-ips"
          ]
        },
        "category": [
          {
            "coding": [
              {
                "code": "problem-list-item",
                "system": "http://terminology.hl7.org/CodeSystem/condition-category",
                "display": "Problem List Item"
              }
            ]
          }
        ],
        "code": {
          "coding": [
            {
              "code": "443165006",
              "system": "http://snomed.info/sct",
              "display": "Osteoporotic fracture of bone (disorder)"
            }
          ],
          "text": "Osteoporotic fracture"
        },
        "onsetDateTime": "2019-05-22",
        "clinicalStatus": {
          "coding": [
            {
              "code": "inactive",
              "system": "http://terminology.hl7.org/CodeSystem/condition-clinical"
            }
          ]
        },
        "subject": {
          "reference": "Patient/3cdddf48-064e-4aac-bc24-81a286d6f983",
          "display": "Elizabeth Hyam"
        },
        "asserter": {
          "reference": "Practitioner/d7a9b0ef-2feb-491b-b8f1-d7b5fb1a57f6",
          "display": "Dr. Hel Ping"
        }
      }
    },
    {
      "fullUrl": "urn:uuid:93506fcc-4498-4a9e-b6fd-493aedd9251d",
      "resource": {
        "resourceType": "Condition",
        "id": "93506fcc-4498-4a9e-b6fd-493aedd9251d",
        "meta": {
          "profile": [
            "http://hl7.org/fhir/uv/ips/StructureDefinition/Condition-uv-ips"
          ]
        },
        "category": [
          {
            "coding": [
              {
                "code": "problem-list-item",
                "system": "http://terminology.hl7.org/CodeSystem/condition-category",
                "display": "Problem List Item"
              }
            ]
          }
        ],
        "code": {
          "coding": [
            {
              "code": "109570002",
              "system": "http://snomed.info/sct",
              "display": "Primary dental caries (disorder)"
            }
          ],
          "text": "Primary dental caries"
        },
        "onsetDateTime": "2017-09-11",
        "clinicalStatus": {
          "coding": [
            {
              "code": "inactive",
              "system": "http://terminology.hl7.org/CodeSystem/condition-clinical"
            }
          ]
        },
        "subject": {
          "reference": "Patient/3cdddf48-064e-4aac-bc24-81a286d6f983",
          "display": "Elizabeth Hyam"
        },
        "asserter": {
          "reference": "Practitioner/d7a9b0ef-2feb-491b-b8f1-d7b5fb1a57f6",
          "display": "Dr. Hel Ping"
        }
      }
    },
    {
      "fullUrl": "urn:uuid:cd8095e0-8e31-4204-875a-1ccc5fa583b0",
      "resource": {
        "resourceType": "Medication",
        "id": "cd8095e0-8e31-4204-875a-1ccc5fa583b0",
        "meta": {
          "profile": [
            "http://hl7.org/fhir/uv/ips/StructureDefinition/Medication-uv-ips"
          ]
        },
        "code": {
          "coding": [
            {
              "code": "314231",
              "system": "http://www.nlm.nih.gov/research/umls/rxnorm",
              "display": "simvastatin 10 MG Oral Tablet"
            },
            {
              "code": "319996000",
              "system": "http://snomed.info/sct",
              "display": "Product containing precisely simvastatin 10 milligram/1 each conventional release oral tablet (clinical drug)"
            }
          ],
          "text": "Simvastatin 10 mg oral tablet"
        },
        "form": {
          "coding": [
            {
              "code": "421026006",
              "system": "http://snomed.info/sct",
              "display": "Oral tablet"
            }
          ]
        },
        "ingredient": [
          {
            "itemCodeableConcept": {
              "coding": [
                {
                  "code": "387584000",
                  "system": "http://snomed.info/sct",
                  "display": "Simvastatin"
                }
              ]
            },
            "isActive": true
          }
        ]
      }
    },
    {
      "fullUrl": "urn:uuid:fef4becd-4c59-4e79-9b29-a0eb13d7d97c",
      "resource": {
        "resourceType": "MedicationStatement",
        "id": "fef4becd-4c59-4e79-9b29-a0eb13d7d97c",
        "meta": {
          "profile": [
            "http://hl7.org/fhir/uv/ips/StructureDefinition/MedicationStatement-uv-ips"
          ]
        },
        "effectivePeriod": {
          "start": "2024-10-28"
        },
        "dosage": [
          {
            "doseAndRate": [
              {
                "doseQuantity": {
                  "value": 1,
                  "unit": "{tbl}",
                  "code": "{tbl}"
                }
              }
            ],
            "timing": {
              "repeat": {
                "frequency": 1,
                "period": 1,
                "periodUnit": "d"
              }
            },
            "text": "1 tablet (10 mg) by mouth once daily",
            "asNeededBoolean": false
          }
        ],
        "reasonCode": [
          {
            "coding": [
              {
                "code": "55822004",
                "system": "http://snomed.info/sct",
                "display": "Hyperlipidemia (disorder)"
              }
            ]
          }
        ],
        "status": "active",
        "medicationReference": {
          "reference": "Medication/cd8095e0-8e31-4204-875a-1ccc5fa583b0",
          "display": "Simvastatin 10 mg oral tablet"
        },
        "subject": {
          "reference": "Patient/3cdddf48-064e-4aac-bc24-81a286d6f983",
          "display": "Elizabeth Hyam"
        }
      }
    },
    {
      "fullUrl": "urn:uuid:83eda49a-b771-4ce8-951c-f40ab65f19c0",
      "resource": {
        "resourceType": "Medication",
        "id": "83eda49a-b771-4ce8-951c-f40ab65f19c0",
        "meta": {
          "profile": [
            "http://hl7.org/fhir/uv/ips/StructureDefinition/Medication-uv-ips"
          ]
        },
        "code": {
          "coding": [
            {
              "code": "904419",
              "system": "http://www.nlm.nih.gov/research/umls/rxnorm",
              "display": "alendronic acid 10 MG Oral Tablet"
            },
            {
              "code": "783144007",
              "system": "http://snomed.info/sct",
              "display": "Product containing precisely alendronic acid (as alendronate sodium) 10 milligram/1 each conventional release oral tablet (clinical drug)"
            }
          ],
          "text": "Alendronic acid (as alendronate sodium) 10 mg oral tablet"
        },
        "form": {
          "coding": [
            {
              "code": "421026006",
              "system": "http://snomed.info/sct",
              "display": "Oral tablet"
            }
          ]
        },
        "ingredient": [
          {
            "itemCodeableConcept": {
              "coding": [
                {
                  "code": "391729003",
                  "system": "http://snomed.info/sct",
                  "display": "Alendronate sodium"
                }
              ]
            },
            "isActive": true
          }
        ]
      }
    },
    {
      "fullUrl": "urn:uuid:26729d74-d9fa-4b28-aaa7-bd37046b2df3",
      "resource": {
        "resourceType": "MedicationStatement",
        "id": "26729d74-d9fa-4b28-aaa7-bd37046b2df3",
        "meta": {
          "profile": [
            "http://hl7.org/fhir/uv/ips/StructureDefinition/MedicationStatement-uv-ips"
          ]
        },
        "effectivePeriod": {
          "start": "2024-10-07"
        },
        "dosage": [
          {
            "doseAndRate": [
              {
                "doseQuantity": {
                  "value": 1,
                  "unit": "{tbl}",
                  "code": "{tbl}"
                }
              }
            ],
            "timing": {
              "repeat": {
                "frequency": 1,
                "period": 1,
                "periodUnit": "d"
              }
            },
            "text": "1 tablet (10 mg) once daily",
            "asNeededBoolean": false
          }
        ],
        "reasonCode": [
          {
            "coding": [
              {
                "code": "64859006",
                "system": "http://snomed.info/sct",
                "display": "Osteoporosis (disorder)"
              }
            ]
          }
        ],
        "status": "active",
        "medicationReference": {
          "reference": "Medication/83eda49a-b771-4ce8-951c-f40ab65f19c0",
          "display": "Alendronic acid (as alendronate sodium) 10 mg oral tablet"
        },
        "subject": {
          "reference": "Patient/3cdddf48-064e-4aac-bc24-81a286d6f983",
          "display": "Elizabeth Hyam"
        }
      }
    },
    {
      "fullUrl": "urn:uuid:fd62f452-6244-45c6-b5bf-ac584080e64e",
      "resource": {
        "resourceType": "Medication",
        "id": "fd62f452-6244-45c6-b5bf-ac584080e64e",
        "meta": {
          "profile": [
            "http://hl7.org/fhir/uv/ips/StructureDefinition/Medication-uv-ips"
          ]
        },
        "code": {
          "coding": [
            {
              "code": "309362",
              "system": "http://www.nlm.nih.gov/research/umls/rxnorm",
              "display": "clopidogrel 75 MG Oral Tablet"
            },
            {
              "code": "783586007",
              "system": "http://snomed.info/sct",
              "display": "Product containing precisely clopidogrel (as clopidogrel bisulfate) 75 milligram/1 each conventional release oral tablet (clinical drug)"
            }
          ],
          "text": "Clopidogrel (as clopidogrel bisulfate) 75 mg oral tablet"
        },
        "form": {
          "coding": [
            {
              "code": "421026006",
              "system": "http://snomed.info/sct",
              "display": "Oral tablet"
            }
          ]
        },
        "ingredient": [
          {
            "itemCodeableConcept": {
              "coding": [
                {
                  "code": "412354008",
                  "system": "http://snomed.info/sct",
                  "display": "Clopidogrel bisulfate"
                }
              ]
            },
            "isActive": true
          }
        ]
      }
    },
    {
      "fullUrl": "urn:uuid:068cc161-bf89-427b-b242-a4fc4fb33d1b",
      "resource": {
        "resourceType": "MedicationStatement",
        "id": "068cc161-bf89-427b-b242-a4fc4fb33d1b",
        "meta": {
          "profile": [
            "http://hl7.org/fhir/uv/ips/StructureDefinition/MedicationStatement-uv-ips"
          ]
        },
        "effectivePeriod": {
          "start": "2014-08-18"
        },
        "dosage": [
          {
            "doseAndRate": [
              {
                "doseQuantity": {
                  "value": 1,
                  "unit": "{tbl}",
                  "code": "{tbl}"
                }
              }
            ],
            "timing": {
              "repeat": {
                "frequency": 1,
                "period": 1,
                "periodUnit": "d"
              }
            },
            "text": "1 tablet (75 mg) by mouth once daily",
            "asNeededBoolean": false
          }
        ],
        "status": "active",
        "medicationReference": {
          "reference": "Medication/fd62f452-6244-45c6-b5bf-ac584080e64e",
          "display": "Clopidogrel (as clopidogrel bisulfate) 75 mg oral tablet"
        },
        "subject": {
          "reference": "Patient/3cdddf48-064e-4aac-bc24-81a286d6f983",
          "display": "Elizabeth Hyam"
        }
      }
    },
    {
      "fullUrl": "urn:uuid:8122872a-3450-4317-9aef-6251166c3ade",
      "resource": {
        "resourceType": "Medication",
        "id": "8122872a-3450-4317-9aef-6251166c3ade",
        "meta": {
          "profile": [
            "http://hl7.org/fhir/uv/ips/StructureDefinition/Medication-uv-ips"
          ]
        },
        "code": {
          "coding": [
            {
              "code": "312961",
              "system": "http://www.nlm.nih.gov/research/umls/rxnorm",
              "display": "simvastatin 20 MG Oral Tablet"
            },
            {
              "code": "319997009",
              "system": "http://snomed.info/sct",
              "display": "Product containing precisely simvastatin 20 milligram/1 each conventional release oral tablet (clinical drug)"
            }
          ],
          "text": "Simvastatin 20 mg oral tablet"
        },
        "form": {
          "coding": [
            {
              "code": "421026006",
              "system": "http://snomed.info/sct",
              "display": "Oral tablet"
            }
          ]
        },
        "ingredient": [
          {
            "itemCodeableConcept": {
              "coding": [
                {
                  "code": "387584000",
                  "system": "http://snomed.info/sct",
                  "display": "Simvastatin"
                }
              ]
            },
            "isActive": true
          }
        ]
      }
    },
    {
      "fullUrl": "urn:uuid:f0fda324-7fb8-4900-9cf8-e3652120a8a5",
      "resource": {
        "resourceType": "MedicationStatement",
        "id": "f0fda324-7fb8-4900-9cf8-e3652120a8a5",
        "meta": {
          "profile": [
            "http://hl7.org/fhir/uv/ips/StructureDefinition/MedicationStatement-uv-ips"
          ]
        },
        "effectivePeriod": {
          "start": "2014-08-18"
        },
        "dosage": [
          {
            "doseAndRate": [
              {
                "doseQuantity": {
                  "value": 1,
                  "unit": "{tbl}",
                  "code": "{tbl}"
                }
              }
            ],
            "timing": {
              "repeat": {
                "frequency": 1,
                "period": 1,
                "periodUnit": "d"
              }
            },
            "text": "1 tablet (20 mg) by mouth once daily",
            "asNeededBoolean": false
          }
        ],
        "status": "active",
        "medicationReference": {
          "reference": "Medication/8122872a-3450-4317-9aef-6251166c3ade",
          "display": "Simvastatin 20 mg oral tablet"
        },
        "subject": {
          "reference": "Patient/3cdddf48-064e-4aac-bc24-81a286d6f983",
          "display": "Elizabeth Hyam"
        }
      }
    },
    {
      "fullUrl": "urn:uuid:a8747f63-c0a2-4715-a86e-a76b2e1465b8",
      "resource": {
        "resourceType": "Medication",
        "id": "a8747f63-c0a2-4715-a86e-a76b2e1465b8",
        "meta": {
          "profile": [
            "http://hl7.org/fhir/uv/ips/StructureDefinition/Medication-uv-ips"
          ]
        },
        "code": {
          "coding": [
            {
              "code": "705129",
              "system": "http://www.nlm.nih.gov/research/umls/rxnorm",
              "display": "nitroglycerin 0.4 MG/ACTUAT Mucosal Spray"
            },
            {
              "code": "425176000",
              "system": "http://snomed.info/sct",
              "display": "Product containing precisely glyceryl trinitrate 400 microgram/1 actuation conventional release sublingual spray (clinical drug)"
            }
          ],
          "text": "Nitroglycerin 400 microgram/actuation sublingual spray"
        },
        "form": {
          "coding": [
            {
              "code": "385074009",
              "system": "http://snomed.info/sct",
              "display": "Sublingual spray"
            }
          ]
        },
        "ingredient": [
          {
            "itemCodeableConcept": {
              "coding": [
                {
                  "code": "387404004",
                  "system": "http://snomed.info/sct",
                  "display": "Glyceryl trinitrate"
                }
              ]
            },
            "isActive": true
          }
        ]
      }
    },
    {
      "fullUrl": "urn:uuid:437258fc-6d89-47fa-9dea-caa18e6ba71d",
      "resource": {
        "resourceType": "MedicationStatement",
        "id": "437258fc-6d89-47fa-9dea-caa18e6ba71d",
        "meta": {
          "profile": [
            "http://hl7.org/fhir/uv/ips/StructureDefinition/MedicationStatement-uv-ips"
          ]
        },
        "effectivePeriod": {
          "start": "2014-08-18"
        },
        "dosage": [
          {
            "doseAndRate": [
              {
                "doseQuantity": {
                  "value": 400,
                  "unit": "microgram",
                  "code": "ug"
                }
              }
            ],
            "timing": {
              "repeat": {
                "frequency": 1,
                "period": 5,
                "periodUnit": "min"
              }
            },
            "text": "400 micrograms (1 spray) sublingually as needed for chest pain, may repeat every 5 minutes as needed, up to 3 sprays in 15 minutes",
            "asNeededBoolean": true
          }
        ],
        "status": "active",
        "medicationReference": {
          "reference": "Medication/a8747f63-c0a2-4715-a86e-a76b2e1465b8",
          "display": "Nitroglycerin 400 microgram/actuation sublingual spray"
        },
        "subject": {
          "reference": "Patient/3cdddf48-064e-4aac-bc24-81a286d6f983",
          "display": "Elizabeth Hyam"
        }
      }
    },
    {
      "fullUrl": "urn:uuid:57712d12-dbe4-4893-8a02-980e7574cee6",
      "resource": {
        "resourceType": "Medication",
        "id": "57712d12-dbe4-4893-8a02-980e7574cee6",
        "meta": {
          "profile": [
            "http://hl7.org/fhir/uv/ips/StructureDefinition/Medication-uv-ips"
          ]
        },
        "code": {
          "coding": [
            {
              "code": "866412",
              "system": "http://www.nlm.nih.gov/research/umls/rxnorm",
              "display": "24 HR metoprolol succinate 100 MG Extended Release Oral Tablet"
            },
            {
              "code": "879980009",
              "system": "http://snomed.info/sct",
              "display": "Product containing precisely metoprolol tartrate (as metoprolol succinate) 100 milligram/1 each prolonged-release oral tablet (clinical drug)"
            }
          ],
          "text": "Metoprolol tartrate (as metoprolol succinate) 100 mg prolonged-release oral tablet"
        },
        "form": {
          "coding": [
            {
              "code": "385060002",
              "system": "http://snomed.info/sct",
              "display": "Prolonged-release oral tablet"
            }
          ]
        },
        "ingredient": [
          {
            "itemCodeableConcept": {
              "coding": [
                {
                  "code": "412432007",
                  "system": "http://snomed.info/sct",
                  "display": "Metoprolol succinate"
                }
              ]
            },
            "isActive": true
          }
        ]
      }
    },
    {
      "fullUrl": "urn:uuid:d4054c76-c754-416d-a6bb-c05c8552b611",
      "resource": {
        "resourceType": "MedicationStatement",
        "id": "d4054c76-c754-416d-a6bb-c05c8552b611",
        "meta": {
          "profile": [
            "http://hl7.org/fhir/uv/ips/StructureDefinition/MedicationStatement-uv-ips"
          ]
        },
        "effectivePeriod": {
          "start": "2014-08-18"
        },
        "dosage": [
          {
            "doseAndRate": [
              {
                "doseQuantity": {
                  "value": 1,
                  "unit": "{tbl}",
                  "code": "{tbl}"
                }
              }
            ],
            "timing": {
              "repeat": {
                "frequency": 1,
                "period": 1,
                "periodUnit": "d"
              }
            },
            "text": "1 tablet (100 mg) once daily",
            "asNeededBoolean": false
          }
        ],
        "status": "active",
        "medicationReference": {
          "reference": "Medication/57712d12-dbe4-4893-8a02-980e7574cee6",
          "display": "Metoprolol tartrate (as metoprolol succinate) 100 mg prolonged-release oral tablet"
        },
        "subject": {
          "reference": "Patient/3cdddf48-064e-4aac-bc24-81a286d6f983",
          "display": "Elizabeth Hyam"
        }
      }
    },
    {
      "fullUrl": "urn:uuid:69b5035a-9f63-4b72-8a8a-6c05d0ec0bc6",
      "resource": {
        "resourceType": "AllergyIntolerance",
        "id": "69b5035a-9f63-4b72-8a8a-6c05d0ec0bc6",
        "meta": {
          "profile": [
            "http://hl7.eu/fhir/eps/StructureDefinition/allergyIntolerance-eu-eps"
          ]
        },
        "code": {
          "coding": [
            {
              "code": "716186003",
              "system": "http://snomed.info/sct",
              "display": "No known allergy (situation)"
            }
          ]
        },
        "patient": {
          "reference": "Patient/3cdddf48-064e-4aac-bc24-81a286d6f983",
          "display": "Elizabeth Hyam"
        },
        "_onsetDateTime": {
          "extension": [
            {
              "url": "http://hl7.org/fhir/StructureDefinition/data-absent-reason",
              "valueCode": "unknown"
            }
          ]
        }
      }
    },
    {
      "fullUrl": "urn:uuid:b4d8640e-faca-456d-8407-21da5900f0a7",
      "resource": {
        "resourceType": "Procedure",
        "id": "b4d8640e-faca-456d-8407-21da5900f0a7",
        "meta": {
          "profile": [
            "http://hl7.org/fhir/uv/ips/StructureDefinition/Procedure-uv-ips"
          ]
        },
        "code": {
          "coding": [
            {
              "code": "225386006",
              "system": "http://snomed.info/sct",
              "display": "Pre-discharge assessment (procedure)"
            }
          ],
          "text": "Pre-discharge assessment"
        },
        "status": "completed",
        "subject": {
          "reference": "Patient/3cdddf48-064e-4aac-bc24-81a286d6f983",
          "display": "Elizabeth Hyam"
        },
        "performedDateTime": "2023-05-26"
      }
    },
    {
      "fullUrl": "urn:uuid:6dcde4d0-d8dd-4ef5-92c7-9fd8f4eabd48",
      "resource": {
        "resourceType": "Procedure",
        "id": "6dcde4d0-d8dd-4ef5-92c7-9fd8f4eabd48",
        "meta": {
          "profile": [
            "http://hl7.org/fhir/uv/ips/StructureDefinition/Procedure-uv-ips"
          ]
        },
        "code": {
          "coding": [
            {
              "code": "308283009",
              "system": "http://snomed.info/sct",
              "display": "Discharge from hospital (procedure)"
            }
          ],
          "text": "Discharge from hospital"
        },
        "status": "completed",
        "subject": {
          "reference": "Patient/3cdddf48-064e-4aac-bc24-81a286d6f983",
          "display": "Elizabeth Hyam"
        },
        "performedDateTime": "2023-05-26"
      }
    },
    {
      "fullUrl": "urn:uuid:a6854dec-2613-4911-97e7-5ce3d421d89a",
      "resource": {
        "resourceType": "Procedure",
        "id": "a6854dec-2613-4911-97e7-5ce3d421d89a",
        "meta": {
          "profile": [
            "http://hl7.org/fhir/uv/ips/StructureDefinition/Procedure-uv-ips"
          ]
        },
        "code": {
          "coding": [
            {
              "code": "410401003",
              "system": "http://snomed.info/sct",
              "display": "Nursing care/supplementary surveillance (regime/therapy)"
            }
          ],
          "text": "Nursing care/supplementary surveillance"
        },
        "status": "completed",
        "subject": {
          "reference": "Patient/3cdddf48-064e-4aac-bc24-81a286d6f983",
          "display": "Elizabeth Hyam"
        },
        "performedDateTime": "2023-05-25"
      }
    },
    {
      "fullUrl": "urn:uuid:ce4ed9a5-70ed-49b5-aebc-22bacd48eb4d",
      "resource": {
        "resourceType": "Procedure",
        "id": "ce4ed9a5-70ed-49b5-aebc-22bacd48eb4d",
        "meta": {
          "profile": [
            "http://hl7.org/fhir/uv/ips/StructureDefinition/Procedure-uv-ips"
          ]
        },
        "code": {
          "coding": [
            {
              "code": "409023009",
              "system": "http://snomed.info/sct",
              "display": "Professional / ancillary services care (regime/therapy)"
            }
          ],
          "text": "Professional / ancillary services care"
        },
        "status": "completed",
        "subject": {
          "reference": "Patient/3cdddf48-064e-4aac-bc24-81a286d6f983",
          "display": "Elizabeth Hyam"
        },
        "performedDateTime": "2023-05-19"
      }
    },
    {
      "fullUrl": "urn:uuid:f026a52a-f0fb-4ed7-b957-1f00a2c7d337",
      "resource": {
        "resourceType": "Procedure",
        "id": "f026a52a-f0fb-4ed7-b957-1f00a2c7d337",
        "meta": {
          "profile": [
            "http://hl7.org/fhir/uv/ips/StructureDefinition/Procedure-uv-ips"
          ]
        },
        "code": {
          "coding": [
            {
              "code": "63332003",
              "system": "http://snomed.info/sct",
              "display": "History AND physical examination (procedure)"
            }
          ],
          "text": "History AND physical examination"
        },
        "status": "completed",
        "subject": {
          "reference": "Patient/3cdddf48-064e-4aac-bc24-81a286d6f983",
          "display": "Elizabeth Hyam"
        },
        "performedDateTime": "2023-05-15"
      }
    },
    {
      "fullUrl": "urn:uuid:c206afe3-95ff-42b9-98aa-a1f7688e3779",
      "resource": {
        "resourceType": "Procedure",
        "id": "c206afe3-95ff-42b9-98aa-a1f7688e3779",
        "meta": {
          "profile": [
            "http://hl7.org/fhir/uv/ips/StructureDefinition/Procedure-uv-ips"
          ]
        },
        "code": {
          "coding": [
            {
              "code": "91251008",
              "system": "http://snomed.info/sct",
              "display": "Physical therapy procedure (regime/therapy)"
            }
          ],
          "text": "Physical therapy procedure"
        },
        "status": "completed",
        "subject": {
          "reference": "Patient/3cdddf48-064e-4aac-bc24-81a286d6f983",
          "display": "Elizabeth Hyam"
        },
        "performedDateTime": "2023-05-15"
      }
    },
    {
      "fullUrl": "urn:uuid:8c207598-3420-421c-b26e-5bf64c4a0a67",
      "resource": {
        "resourceType": "Procedure",
        "id": "8c207598-3420-421c-b26e-5bf64c4a0a67",
        "meta": {
          "profile": [
            "http://hl7.org/fhir/uv/ips/StructureDefinition/Procedure-uv-ips"
          ]
        },
        "code": {
          "coding": [
            {
              "code": "315639002",
              "system": "http://snomed.info/sct",
              "display": "Initial patient assessment (procedure)"
            }
          ],
          "text": "Initial patient assessment"
        },
        "status": "completed",
        "subject": {
          "reference": "Patient/3cdddf48-064e-4aac-bc24-81a286d6f983",
          "display": "Elizabeth Hyam"
        },
        "performedDateTime": "2023-05-15"
      }
    },
    {
      "fullUrl": "urn:uuid:5c7dbd26-fc34-492f-ad39-02a1a28e3e07",
      "resource": {
        "resourceType": "Procedure",
        "id": "5c7dbd26-fc34-492f-ad39-02a1a28e3e07",
        "meta": {
          "profile": [
            "http://hl7.org/fhir/uv/ips/StructureDefinition/Procedure-uv-ips"
          ]
        },
        "code": {
          "coding": [
            {
              "code": "370789001",
              "system": "http://snomed.info/sct",
              "display": "Development of individualized plan of care (procedure)"
            }
          ],
          "text": "Development of individualized plan of care"
        },
        "status": "completed",
        "subject": {
          "reference": "Patient/3cdddf48-064e-4aac-bc24-81a286d6f983",
          "display": "Elizabeth Hyam"
        },
        "performedDateTime": "2023-05-15"
      }
    },
    {
      "fullUrl": "urn:uuid:9ec4fe91-be3a-4c9d-abf1-e055a6ef44f8",
      "resource": {
        "resourceType": "Procedure",
        "id": "9ec4fe91-be3a-4c9d-abf1-e055a6ef44f8",
        "meta": {
          "profile": [
            "http://hl7.org/fhir/uv/ips/StructureDefinition/Procedure-uv-ips"
          ]
        },
        "code": {
          "coding": [
            {
              "code": "392091000",
              "system": "http://snomed.info/sct",
              "display": "Care regimes assessment (procedure)"
            }
          ],
          "text": "Care regimes assessment"
        },
        "status": "completed",
        "subject": {
          "reference": "Patient/3cdddf48-064e-4aac-bc24-81a286d6f983",
          "display": "Elizabeth Hyam"
        },
        "performedDateTime": "2022-12-17"
      }
    },
    {
      "fullUrl": "urn:uuid:9b1b1ebd-6573-4b31-891a-c5ce7ee24a21",
      "resource": {
        "resourceType": "Procedure",
        "id": "9b1b1ebd-6573-4b31-891a-c5ce7ee24a21",
        "meta": {
          "profile": [
            "http://hl7.org/fhir/uv/ips/StructureDefinition/Procedure-uv-ips"
          ]
        },
        "code": {
          "coding": [
            {
              "code": "84478008",
              "system": "http://snomed.info/sct",
              "display": "Occupational therapy (regime/therapy)"
            }
          ],
          "text": "Occupational therapy"
        },
        "status": "completed",
        "subject": {
          "reference": "Patient/3cdddf48-064e-4aac-bc24-81a286d6f983",
          "display": "Elizabeth Hyam"
        },
        "performedDateTime": "2022-12-13"
      }
    },
    {
      "fullUrl": "urn:uuid:a4c3e33a-2c01-40ea-8a3f-6d4fe79a356b",
      "resource": {
        "resourceType": "Procedure",
        "id": "a4c3e33a-2c01-40ea-8a3f-6d4fe79a356b",
        "meta": {
          "profile": [
            "http://hl7.org/fhir/uv/ips/StructureDefinition/Procedure-uv-ips"
          ]
        },
        "code": {
          "coding": [
            {
              "code": "274474001",
              "system": "http://snomed.info/sct",
              "display": "Bone immobilization (procedure)"
            }
          ],
          "text": "Bone immobilization"
        },
        "reasonCode": [
          {
            "coding": [
              {
                "code": "16114001",
                "system": "http://snomed.info/sct",
                "display": "Fracture of ankle (disorder)"
              }
            ]
          }
        ],
        "status": "completed",
        "subject": {
          "reference": "Patient/3cdddf48-064e-4aac-bc24-81a286d6f983",
          "display": "Elizabeth Hyam"
        },
        "performedDateTime": "2022-12-06"
      }
    },
    {
      "fullUrl": "urn:uuid:cdecff1f-f0b7-45a5-a522-e1f08a38451f",
      "resource": {
        "resourceType": "Procedure",
        "id": "cdecff1f-f0b7-45a5-a522-e1f08a38451f",
        "meta": {
          "profile": [
            "http://hl7.org/fhir/uv/ips/StructureDefinition/Procedure-uv-ips"
          ]
        },
        "code": {
          "coding": [
            {
              "code": "1290459008",
              "system": "http://snomed.info/sct",
              "display": "Plain X-ray of ankle region (procedure)"
            }
          ],
          "text": "Plain X-ray of ankle region"
        },
        "status": "completed",
        "subject": {
          "reference": "Patient/3cdddf48-064e-4aac-bc24-81a286d6f983",
          "display": "Elizabeth Hyam"
        },
        "performedDateTime": "2022-12-06"
      }
    },
    {
      "fullUrl": "urn:uuid:84efbe6e-019f-4fb3-8fa1-b8033cac7945",
      "resource": {
        "resourceType": "Procedure",
        "id": "84efbe6e-019f-4fb3-8fa1-b8033cac7945",
        "meta": {
          "profile": [
            "http://hl7.org/fhir/uv/ips/StructureDefinition/Procedure-uv-ips"
          ]
        },
        "code": {
          "coding": [
            {
              "code": "311555007",
              "system": "http://snomed.info/sct",
              "display": "Speech and language therapy regime (regime/therapy)"
            }
          ],
          "text": "Speech and language therapy regime"
        },
        "status": "completed",
        "subject": {
          "reference": "Patient/3cdddf48-064e-4aac-bc24-81a286d6f983",
          "display": "Elizabeth Hyam"
        },
        "performedDateTime": "2020-10-12"
      }
    },
    {
      "fullUrl": "urn:uuid:30c3fb0c-fe5c-4f32-9741-b0ba1e7832e1",
      "resource": {
        "resourceType": "Procedure",
        "id": "30c3fb0c-fe5c-4f32-9741-b0ba1e7832e1",
        "meta": {
          "profile": [
            "http://hl7.org/fhir/uv/ips/StructureDefinition/Procedure-uv-ips"
          ]
        },
        "code": {
          "coding": [
            {
              "code": "305428000",
              "system": "http://snomed.info/sct",
              "display": "Admission to orthopedic department (procedure)"
            }
          ],
          "text": "Admission to orthopedic department"
        },
        "reasonCode": [
          {
            "coding": [
              {
                "code": "359817006",
                "system": "http://snomed.info/sct",
                "display": "Closed fracture of hip (disorder)"
              }
            ]
          }
        ],
        "status": "completed",
        "subject": {
          "reference": "Patient/3cdddf48-064e-4aac-bc24-81a286d6f983",
          "display": "Elizabeth Hyam"
        },
        "performedDateTime": "2019-05-22"
      }
    },
    {
      "fullUrl": "urn:uuid:3f2e371b-c041-47b4-919a-726da9a7cebb",
      "resource": {
        "resourceType": "Procedure",
        "id": "3f2e371b-c041-47b4-919a-726da9a7cebb",
        "meta": {
          "profile": [
            "http://hl7.org/fhir/uv/ips/StructureDefinition/Procedure-uv-ips"
          ]
        },
        "code": {
          "coding": [
            {
              "code": "713021002",
              "system": "http://snomed.info/sct",
              "display": "Plain X-ray of pelvis (procedure)"
            }
          ],
          "text": "Plain X-ray of pelvis"
        },
        "status": "completed",
        "subject": {
          "reference": "Patient/3cdddf48-064e-4aac-bc24-81a286d6f983",
          "display": "Elizabeth Hyam"
        },
        "performedDateTime": "2019-05-22"
      }
    },
    {
      "fullUrl": "urn:uuid:65eb6c76-b79c-4c04-b7b3-5b5ef6304295",
      "resource": {
        "resourceType": "Immunization",
        "id": "65eb6c76-b79c-4c04-b7b3-5b5ef6304295",
        "meta": {
          "profile": [
            "http://hl7.org/fhir/uv/ips/StructureDefinition/Immunization-uv-ips"
          ]
        },
        "vaccineCode": {
          "coding": [
            {
              "code": "1181000221105",
              "system": "http://snomed.info/sct",
              "display": "Vaccine product containing Influenza virus antigen"
            },
            {
              "code": "J07BB02",
              "system": "http://www.whocc.no/atc",
              "display": "Influenza, inactivated, split virus"
            },
            {
              "code": "140",
              "system": "http://hl7.org/fhir/sid/cvx",
              "display": "Influenza  seasonal  injectable  preservative free"
            }
          ],
          "text": "Influenza virus antigen only vaccine product"
        },
        "site": {
          "coding": [
            {
              "code": "73776007",
              "system": "http://snomed.info/sct",
              "display": "Structure of muscle of upper arm"
            }
          ],
          "text": "Structure of muscle of upper arm"
        },
        "route": {
          "coding": [
            {
              "code": "78421000",
              "system": "http://snomed.info/sct",
              "display": "Intramuscular route"
            }
          ],
          "text": "Intramuscular route"
        },
        "status": "completed",
        "patient": {
          "reference": "Patient/3cdddf48-064e-4aac-bc24-81a286d6f983",
          "display": "Elizabeth Hyam"
        },
        "occurrenceDateTime": "2024-10-07",
        "lotNumber": "YD-KWSaC",
        "expirationDate": "2025-09-21"
      }
    },
    {
      "fullUrl": "urn:uuid:e2ee6932-c6b9-4f06-8e67-a264c7220efb",
      "resource": {
        "resourceType": "Immunization",
        "id": "e2ee6932-c6b9-4f06-8e67-a264c7220efb",
        "meta": {
          "profile": [
            "http://hl7.org/fhir/uv/ips/StructureDefinition/Immunization-uv-ips"
          ]
        },
        "vaccineCode": {
          "coding": [
            {
              "code": "1119349007",
              "system": "http://snomed.info/sct",
              "display": "Vaccine product containing SARS-CoV-2 mRNA"
            },
            {
              "code": "J07BX03",
              "system": "http://www.whocc.no/atc",
              "display": "COVID-19 mRNA vaccines"
            },
            {
              "code": "208",
              "system": "http://hl7.org/fhir/sid/cvx",
              "display": "COVID-19  mRNA  LNP-S  PF  30 mcg/0.3 mL dose"
            }
          ],
          "text": "SARS-CoV-2 mRNA vaccine"
        },
        "site": {
          "coding": [
            {
              "code": "73776007",
              "system": "http://snomed.info/sct",
              "display": "Structure of muscle of upper arm"
            }
          ],
          "text": "Structure of muscle of upper arm"
        },
        "route": {
          "coding": [
            {
              "code": "78421000",
              "system": "http://snomed.info/sct",
              "display": "Intramuscular route"
            }
          ],
          "text": "Intramuscular route"
        },
        "status": "completed",
        "patient": {
          "reference": "Patient/3cdddf48-064e-4aac-bc24-81a286d6f983",
          "display": "Elizabeth Hyam"
        },
        "occurrenceDateTime": "2021-06-21",
        "lotNumber": "GO-Qz1vCKI",
        "expirationDate": "2022-02-13"
      }
    },
    {
      "fullUrl": "urn:uuid:6e79df62-af10-4635-9f9e-c45016b807ed",
      "resource": {
        "resourceType": "Immunization",
        "id": "6e79df62-af10-4635-9f9e-c45016b807ed",
        "meta": {
          "profile": [
            "http://hl7.org/fhir/uv/ips/StructureDefinition/Immunization-uv-ips"
          ]
        },
        "vaccineCode": {
          "coding": [
            {
              "code": "777725002",
              "system": "http://snomed.info/sct",
              "display": "Vaccine product containing only Clostridium tetani toxoid antigen adsorbed"
            },
            {
              "code": "J07AM51",
              "system": "http://www.whocc.no/atc",
              "display": "Diphtheria-tetanus vaccines, adult type"
            },
            {
              "code": "113",
              "system": "http://hl7.org/fhir/sid/cvx",
              "display": "Td (adult)  5 Lf tetanus toxoid  preservative free  adsorbed"
            }
          ],
          "text": "Clostridium tetani toxoid antigen adsorbed only vaccine product"
        },
        "site": {
          "coding": [
            {
              "code": "73776007",
              "system": "http://snomed.info/sct",
              "display": "Structure of muscle of upper arm"
            }
          ],
          "text": "Structure of muscle of upper arm"
        },
        "route": {
          "coding": [
            {
              "code": "78421000",
              "system": "http://snomed.info/sct",
              "display": "Intramuscular route"
            }
          ],
          "text": "Intramuscular route"
        },
        "status": "completed",
        "patient": {
          "reference": "Patient/3cdddf48-064e-4aac-bc24-81a286d6f983",
          "display": "Elizabeth Hyam"
        },
        "occurrenceDateTime": "2019-09-09",
        "lotNumber": "WI-u1Cll",
        "expirationDate": "2020-01-23"
      }
    }
  ],
  "type": "document",
  "timestamp": "2025-06-17T11:26:49Z"
}
