{
  "resourceType": "Bundle",
  "id": "Instance-Bundle-6993d10e-8ab7-446f-bece-a8705ebc98c8",
  "meta": {
    "profile": [
      "http://hl7.eu/fhir/eps/StructureDefinition/bundle-eu-eps"
    ]
  },
  "identifier": {
    "assigner": {
      "display": "HL7 Europe"
    },
    "system": "urn:oid:2.16.840.1.113883.2.51.999",
    "value": "5ca4136b-a16e-47a4-a7e7-8d3f3b066907"
  },
  "entry": [
    {
      "fullUrl": "urn:uuid:01dcf027-f71f-4509-a11e-9117012010a2",
      "resource": {
        "resourceType": "Composition",
        "id": "01dcf027-f71f-4509-a11e-9117012010a2",
        "meta": {
          "profile": [
            "http://hl7.eu/fhir/eps/StructureDefinition/composition-eu-eps"
          ]
        },
        "identifier": {
          "assigner": {
            "display": "HL7 Europe"
          },
          "system": "urn:oid:2.16.840.1.113883.2.51.999",
          "value": "a2a6b421-acef-4241-aaf2-8c1f714b84e6"
        },
        "type": {
          "coding": [
            {
              "system": "http://loinc.org",
              "code": "60591-5",
              "display": "European Patient Summary"
            }
          ],
          "text": "European Patient Summary"
        },
        "author": [
          {
            "reference": "urn:uuid:be2966d2-c0ca-4e6f-b58c-b80b142fa749"
          }
        ],
        "section": [
          {
            "text": {
              "status": "generated",
              "div": "<div xmlns=\"http://www.w3.org/1999/xhtml\"><table class=\"hl7__ips\"><tr><th>Condition</th><th>Onset Date</th><th>Status</th></tr><tr><td>Acute ST segment elevation myocardial infarction</td><td><span class=\"nb\">2023-03-20</span></td><td>active</td></tr><tr><td>Sepsis</td><td><span class=\"nb\">1998-12-18</span></td><td>active</td></tr><tr><td><span class=\"grayedout\">Myocardial infarction</span></td><td><span class=\"nb\">2023-03-20</span></td><td><span class=\"grayedout\">inactive</span></td></tr><tr><td><span class=\"grayedout\">Fracture of rib</span></td><td><span class=\"nb\">2023-01-09</span></td><td><span class=\"grayedout\">inactive</span></td></tr><tr><td><span class=\"grayedout\">Fracture of bone</span></td><td><span class=\"nb\">2023-01-09</span></td><td><span class=\"grayedout\">inactive</span></td></tr><tr><td><span class=\"grayedout\">Primary dental caries</span></td><td><span class=\"nb\">2021-11-26</span></td><td><span class=\"grayedout\">inactive</span></td></tr><tr><td><span class=\"grayedout\">Viral sinusitis</span></td><td><span class=\"nb\">2020-11-20</span></td><td><span class=\"grayedout\">inactive</span></td></tr><tr><td><span class=\"grayedout\">Viral sinusitis</span></td><td><span class=\"nb\">2019-06-28</span></td><td><span class=\"grayedout\">inactive</span></td></tr><tr><td><span class=\"grayedout\">Primary dental caries</span></td><td><span class=\"nb\">2018-11-09</span></td><td><span class=\"grayedout\">inactive</span></td></tr><tr><td><span class=\"grayedout\">Gingivitis</span></td><td><span class=\"nb\">2018-10-26</span></td><td><span class=\"grayedout\">inactive</span></td></tr><tr><td><span class=\"grayedout\">Gingival disease</span></td><td><span class=\"nb\">2017-11-03</span></td><td><span class=\"grayedout\">inactive</span></td></tr><tr><td><span class=\"grayedout\">Gingivitis</span></td><td><span class=\"nb\">2017-10-20</span></td><td><span class=\"grayedout\">inactive</span></td></tr></table></div>"
            },
            "entry": [
              {
                "reference": "urn:uuid:fe381aa5-1fcb-4e86-bc6e-4129ef7d6046"
              },
              {
                "reference": "urn:uuid:1036e1c1-4c50-49c3-92a0-d2aefcebb34a"
              },
              {
                "reference": "urn:uuid:3e3f8b1e-f9f8-4e34-b61f-aa4b54b7cc9c"
              },
              {
                "reference": "urn:uuid:de71a98b-3f91-4552-90c1-c49d88a8ca9a"
              },
              {
                "reference": "urn:uuid:e5d31d86-524d-4fbd-a2c0-e348147a819b"
              },
              {
                "reference": "urn:uuid:39460b22-e3d7-456e-981a-972a05d3455a"
              },
              {
                "reference": "urn:uuid:0707526d-a90c-40fe-99f2-b51d59d63cc8"
              },
              {
                "reference": "urn:uuid:f78e5649-222c-4844-8613-d36333a74416"
              },
              {
                "reference": "urn:uuid:08961bf5-5eb0-49d7-8f4a-8848679053e2"
              },
              {
                "reference": "urn:uuid:0d551bc4-7991-44dc-8b56-899c60ec7145"
              },
              {
                "reference": "urn:uuid:6d2d117a-f074-49dc-bf94-c7367886394b"
              },
              {
                "reference": "urn:uuid:03b47e71-35ba-4f3c-af6f-2ccb227f8fdd"
              }
            ],
            "code": {
              "coding": [
                {
                  "system": "http://loinc.org",
                  "code": "11450-4",
                  "display": "Problem list - Reported"
                }
              ]
            },
            "title": "Problem list"
          },
          {
            "text": {
              "status": "generated",
              "div": "<div xmlns=\"http://www.w3.org/1999/xhtml\"><table class=\"hl7__ips\"><tr><th>Medication</th><th>Since</th><th>Form</th><th>Dosage</th><th>Reason</th></tr><tr><td>Albuterol (as albuterol sulfate) 210 microgram/mL solution for inhalation</td><td><span class=\"nb\">2024-11-29</span></td><td>Solution for inhalation</td><td>2 puffs (210 micrograms per puff) every 4 to 6 hours as needed</td><td>Childhood asthma (disorder)</td></tr><tr><td>budesonide 0.125 MG/ML Inhalation Suspension [Pulmicort]</td><td><span class=\"nb\">2024-11-29</span></td><td></td><td>0.5 mg via nebulizer twice daily</td><td>Childhood asthma (disorder)</td></tr><tr><td>Atenolol 25 mg oral tablet</td><td><span class=\"nb\">2023-03-20</span></td><td>Oral tablet</td><td>1 tablet (25 mg) by mouth once daily</td><td></td></tr><tr><td>aspirin 81 MG Oral Tablet</td><td><span class=\"nb\">2023-03-20</span></td><td></td><td>1 tablet (81 mg) once daily</td><td></td></tr><tr><td>Ramipril 10 mg oral capsule</td><td><span class=\"nb\">2023-03-20</span></td><td>Oral capsule</td><td>10 mg once daily</td><td></td></tr><tr><td>Prasugrel (as prasugrel hydrochloride) 10 mg oral tablet</td><td><span class=\"nb\">2023-03-20</span></td><td>Oral tablet</td><td>1 tablet (10 mg) once daily</td><td></td></tr><tr><td>Pravastatin sodium 20 mg oral tablet</td><td><span class=\"nb\">2023-03-20</span></td><td>Oral tablet</td><td>1 tablet (20 mg) by mouth once daily</td><td></td></tr></table></div>"
            },
            "entry": [
              {
                "reference": "urn:uuid:b6d70888-8405-4a66-992f-cb8192f5bbd3"
              },
              {
                "reference": "urn:uuid:8c99d957-1e58-4de5-b02b-d82ee27e041e"
              },
              {
                "reference": "urn:uuid:dadc197c-fe61-4bf9-86e6-a0b659ddf23d"
              },
              {
                "reference": "urn:uuid:a0f55446-f8a0-4067-a570-d8b1dc7de1dd"
              },
              {
                "reference": "urn:uuid:1dec04a9-1109-4071-95b6-1feacb836a45"
              },
              {
                "reference": "urn:uuid:90eef4ac-e47a-43b4-bbec-eeda7bd74eb1"
              },
              {
                "reference": "urn:uuid:03092369-4c50-4856-9e03-d50f2f88cc49"
              }
            ],
            "code": {
              "coding": [
                {
                  "system": "http://loinc.org",
                  "code": "10160-0",
                  "display": "History of Medication use Narrative"
                }
              ]
            },
            "title": "Medication list"
          },
          {
            "text": {
              "status": "generated",
              "div": "<div xmlns=\"http://www.w3.org/1999/xhtml\"><table class=\"hl7__ips\"><tr><td>No known allergies or intolerances</td></tr></table></div>"
            },
            "entry": [
              {
                "reference": "urn:uuid:f646c59a-7e83-4374-ad0c-70edbf45e05e"
              }
            ],
            "code": {
              "coding": [
                {
                  "system": "http://loinc.org",
                  "code": "48765-2",
                  "display": "Allergies and adverse reactions Document"
                }
              ]
            },
            "title": "Allergies and Intolerances"
          },
          {
            "text": {
              "status": "generated",
              "div": "<div xmlns=\"http://www.w3.org/1999/xhtml\"><table class=\"hl7__ips\"><tr><th>Procedure</th><th>Date</th><th>Reason</th></tr><tr><td>Laboratory test</td><td><span class=\"nb\">2023-03-20</span></td><td>-</td></tr><tr><td>Electrocardiographic procedure</td><td><span class=\"nb\">2023-03-20</span></td><td>-</td></tr><tr><td>Angiography of coronary artery</td><td><span class=\"nb\">2023-03-20</span></td><td>-</td></tr><tr><td>Diagnostic assessment</td><td><span class=\"nb\">2023-03-20</span></td><td>-</td></tr><tr><td>Oxygen administration by mask</td><td><span class=\"nb\">2023-03-20</span></td><td>-</td></tr><tr><td>Plain X-ray of chest</td><td><span class=\"nb\">2023-03-20</span></td><td>-</td></tr><tr><td>Percutaneous coronary intervention</td><td><span class=\"nb\">2023-03-20</span></td><td>Acute ST segment elevation myocardial infarction (disorder)</td></tr><tr><td>Transthoracic echocardiography</td><td><span class=\"nb\">2023-03-20</span></td><td>-</td></tr><tr><td>Consultation for treatment</td><td><span class=\"nb\">2023-03-20</span></td><td>-</td></tr><tr><td>Assessment of cardiac status using monitoring device</td><td><span class=\"nb\">2023-03-20</span></td><td>-</td></tr><tr><td>Bone immobilization</td><td><span class=\"nb\">2023-01-09</span></td><td>Fracture of rib (disorder)</td></tr><tr><td>Bone density scan</td><td><span class=\"nb\">2023-01-09</span></td><td>Fracture of rib (disorder)</td></tr></table></div>"
            },
            "entry": [
              {
                "reference": "urn:uuid:e5720d7c-98c2-487e-8f3c-e2d94b1b9c8e"
              },
              {
                "reference": "urn:uuid:7bfad427-9dc3-4a4a-b9fa-9d98b534875f"
              },
              {
                "reference": "urn:uuid:a18d5bf0-314a-4f89-86cb-1c7375affb4a"
              },
              {
                "reference": "urn:uuid:030b9377-a628-49ca-b584-478886a1caa0"
              },
              {
                "reference": "urn:uuid:fb52fb2e-ae8b-4839-a1d0-f4fa2357b70c"
              },
              {
                "reference": "urn:uuid:42ea7688-1723-4edc-8bee-3ebfa39fb803"
              },
              {
                "reference": "urn:uuid:7730e2cc-a362-4d07-94a1-b5bbc3403a85"
              },
              {
                "reference": "urn:uuid:ec856ac8-06ef-4f0b-a449-47c4d9df3855"
              },
              {
                "reference": "urn:uuid:15ea04b9-4bf3-48a1-82dc-14699a849230"
              },
              {
                "reference": "urn:uuid:4e0a2c58-a0e9-41ad-867c-e164a1426688"
              },
              {
                "reference": "urn:uuid:635f1ca6-6545-45ff-a414-c4c70f1a1769"
              },
              {
                "reference": "urn:uuid:506c21ee-e61a-4077-b1f9-a48e95b70cf4"
              }
            ],
            "code": {
              "coding": [
                {
                  "system": "http://loinc.org",
                  "code": "47519-4",
                  "display": "History of Procedures Document"
                }
              ]
            },
            "title": "Procedure History list"
          },
          {
            "text": {
              "status": "generated",
              "div": "<div xmlns=\"http://www.w3.org/1999/xhtml\"><table class=\"hl7__ips\"><tr><th>Vaccine</th><th>Date</th></tr><tr><td>Influenza virus antigen only vaccine product</td><td><span class=\"nb\">2024-11-29</span></td></tr><tr><td>Streptococcus pneumoniae Danish serotype 1</td><td><span class=\"nb\">2021-11-12</span></td></tr><tr><td>COVID-19 non-replicating viral vector vaccine</td><td><span class=\"nb\">2021-04-16</span></td></tr><tr><td>Streptococcus pneumoniae Danish serotype 1</td><td><span class=\"nb\">2020-11-06</span></td></tr><tr><td>Clostridium tetani toxoid antigen adsorbed only vaccine product</td><td><span class=\"nb\">2016-10-14</span></td></tr></table></div>"
            },
            "entry": [
              {
                "reference": "urn:uuid:af30d0e6-af71-4df0-bc9b-97c47364d297"
              },
              {
                "reference": "urn:uuid:4f112f6f-fa03-45b3-9f7f-673902bd28d5"
              },
              {
                "reference": "urn:uuid:f537258e-6b43-411a-97b0-6604e712faa6"
              },
              {
                "reference": "urn:uuid:9c7d150d-424b-4f2a-aa4e-97e13ef71bb4"
              },
              {
                "reference": "urn:uuid:da82e93b-4df1-4fe5-860c-590c5b7ae67b"
              }
            ],
            "code": {
              "coding": [
                {
                  "system": "http://loinc.org",
                  "code": "11369-6",
                  "display": "History of Immunization Narrative"
                }
              ]
            },
            "title": "Immunizations list"
          }
        ],
        "title": "European Patient Summary",
        "status": "final",
        "subject": {
          "reference": "urn:uuid:2a09fa90-5c5b-4077-a1ad-30e788897fa0"
        },
        "custodian": {
          "reference": "urn:uuid:f01d53b8-bd13-42cb-8182-271e43e2ac2f"
        },
        "date": "2025-06-17T11:26:49Z",
        "confidentiality": "N"
      }
    },
    {
      "fullUrl": "urn:uuid:2a09fa90-5c5b-4077-a1ad-30e788897fa0",
      "resource": {
        "resourceType": "Patient",
        "id": "2a09fa90-5c5b-4077-a1ad-30e788897fa0",
        "meta": {
          "profile": [
            "http://hl7.eu/fhir/eps/StructureDefinition/patient-eu-eps"
          ]
        },
        "identifier": [
          {
            "type": {
              "coding": [
                {
                  "code": "NI",
                  "system": "http://terminology.hl7.org/CodeSystem/v2-0203"
                }
              ]
            },
            "system": "http://ec.europa.eu/identifier/eci",
            "value": "1054-284421-1"
          },
          {
            "type": {
              "coding": [
                {
                  "code": "MR",
                  "system": "http://terminology.hl7.org/CodeSystem/v2-0203"
                }
              ]
            },
            "system": "http://local.setting.eu/identifier",
            "value": "a54bb0fb-7e96-9488-505a-a71d58cdae85"
          }
        ],
        "name": [
          {
            "given": [
              "Malachy"
            ],
            "family": "Dodd",
            "text": "Malachy Dodd"
          }
        ],
        "address": [
          {
            "line": [
              "43 Leicester Road"
            ],
            "use": "home",
            "type": "physical",
            "city": "Babbacombe",
            "postalCode": "TQ1 3JG",
            "country": "United Kingdom"
          }
        ],
        "telecom": [
          {
            "system": "phone",
            "value": "+44 077 2242 4617"
          }
        ],
        "gender": "male",
        "birthDate": "1950-09-12"
      }
    },
    {
      "fullUrl": "urn:uuid:be2966d2-c0ca-4e6f-b58c-b80b142fa749",
      "resource": {
        "resourceType": "PractitionerRole",
        "id": "be2966d2-c0ca-4e6f-b58c-b80b142fa749",
        "meta": {
          "profile": [
            "http://hl7.eu/fhir/base/StructureDefinition/practitionerRole-eu"
          ]
        },
        "practitioner": {
          "reference": "urn:uuid:95f6db4d-88d4-4f98-aed4-df6c4f8d48de"
        },
        "organization": {
          "reference": "urn:uuid:f01d53b8-bd13-42cb-8182-271e43e2ac2f"
        }
      }
    },
    {
      "fullUrl": "urn:uuid:95f6db4d-88d4-4f98-aed4-df6c4f8d48de",
      "resource": {
        "resourceType": "Practitioner",
        "id": "95f6db4d-88d4-4f98-aed4-df6c4f8d48de",
        "meta": {
          "profile": [
            "http://hl7.eu/fhir/base/StructureDefinition/practitioner-eu"
          ]
        },
        "name": [
          {
            "prefix": [
              "Dr."
            ],
            "given": [
              "Hel"
            ],
            "family": "Ping"
          }
        ]
      }
    },
    {
      "fullUrl": "urn:uuid:fe381aa5-1fcb-4e86-bc6e-4129ef7d6046",
      "resource": {
        "resourceType": "Condition",
        "id": "fe381aa5-1fcb-4e86-bc6e-4129ef7d6046",
        "meta": {
          "profile": [
            "http://hl7.org/fhir/uv/ips/StructureDefinition/Condition-uv-ips"
          ]
        },
        "category": [
          {
            "coding": [
              {
                "code": "problem-list-item",
                "system": "http://terminology.hl7.org/CodeSystem/condition-category",
                "display": "Problem List Item"
              }
            ]
          }
        ],
        "code": {
          "coding": [
            {
              "code": "401303003",
              "system": "http://snomed.info/sct",
              "display": "Acute ST segment elevation myocardial infarction (disorder)"
            }
          ],
          "text": "Acute ST segment elevation myocardial infarction"
        },
        "onsetDateTime": "2023-03-20",
        "clinicalStatus": {
          "coding": [
            {
              "code": "active",
              "system": "http://terminology.hl7.org/CodeSystem/condition-clinical"
            }
          ]
        },
        "subject": {
          "reference": "Patient/2a09fa90-5c5b-4077-a1ad-30e788897fa0",
          "display": "Malachy Dodd"
        },
        "asserter": {
          "reference": "Practitioner/95f6db4d-88d4-4f98-aed4-df6c4f8d48de",
          "display": "Dr. Hel Ping"
        }
      }
    },
    {
      "fullUrl": "urn:uuid:1036e1c1-4c50-49c3-92a0-d2aefcebb34a",
      "resource": {
        "resourceType": "Condition",
        "id": "1036e1c1-4c50-49c3-92a0-d2aefcebb34a",
        "meta": {
          "profile": [
            "http://hl7.org/fhir/uv/ips/StructureDefinition/Condition-uv-ips"
          ]
        },
        "category": [
          {
            "coding": [
              {
                "code": "problem-list-item",
                "system": "http://terminology.hl7.org/CodeSystem/condition-category",
                "display": "Problem List Item"
              }
            ]
          }
        ],
        "code": {
          "coding": [
            {
              "code": "91302008",
              "system": "http://snomed.info/sct",
              "display": "Sepsis (disorder)"
            }
          ],
          "text": "Sepsis"
        },
        "onsetDateTime": "1998-12-18",
        "clinicalStatus": {
          "coding": [
            {
              "code": "active",
              "system": "http://terminology.hl7.org/CodeSystem/condition-clinical"
            }
          ]
        },
        "subject": {
          "reference": "Patient/2a09fa90-5c5b-4077-a1ad-30e788897fa0",
          "display": "Malachy Dodd"
        },
        "asserter": {
          "reference": "Practitioner/95f6db4d-88d4-4f98-aed4-df6c4f8d48de",
          "display": "Dr. Hel Ping"
        }
      }
    },
    {
      "fullUrl": "urn:uuid:3e3f8b1e-f9f8-4e34-b61f-aa4b54b7cc9c",
      "resource": {
        "resourceType": "Condition",
        "id": "3e3f8b1e-f9f8-4e34-b61f-aa4b54b7cc9c",
        "meta": {
          "profile": [
            "http://hl7.org/fhir/uv/ips/StructureDefinition/Condition-uv-ips"
          ]
        },
        "category": [
          {
            "coding": [
              {
                "code": "problem-list-item",
                "system": "http://terminology.hl7.org/CodeSystem/condition-category",
                "display": "Problem List Item"
              }
            ]
          }
        ],
        "code": {
          "coding": [
            {
              "code": "22298006",
              "system": "http://snomed.info/sct",
              "display": "Myocardial infarction (disorder)"
            }
          ],
          "text": "Myocardial infarction"
        },
        "onsetDateTime": "2023-03-20",
        "clinicalStatus": {
          "coding": [
            {
              "code": "inactive",
              "system": "http://terminology.hl7.org/CodeSystem/condition-clinical"
            }
          ]
        },
        "subject": {
          "reference": "Patient/2a09fa90-5c5b-4077-a1ad-30e788897fa0",
          "display": "Malachy Dodd"
        },
        "asserter": {
          "reference": "Practitioner/95f6db4d-88d4-4f98-aed4-df6c4f8d48de",
          "display": "Dr. Hel Ping"
        }
      }
    },
    {
      "fullUrl": "urn:uuid:de71a98b-3f91-4552-90c1-c49d88a8ca9a",
      "resource": {
        "resourceType": "Condition",
        "id": "de71a98b-3f91-4552-90c1-c49d88a8ca9a",
        "meta": {
          "profile": [
            "http://hl7.org/fhir/uv/ips/StructureDefinition/Condition-uv-ips"
          ]
        },
        "category": [
          {
            "coding": [
              {
                "code": "problem-list-item",
                "system": "http://terminology.hl7.org/CodeSystem/condition-category",
                "display": "Problem List Item"
              }
            ]
          }
        ],
        "code": {
          "coding": [
            {
              "code": "33737001",
              "system": "http://snomed.info/sct",
              "display": "Fracture of rib (disorder)"
            }
          ],
          "text": "Fracture of rib"
        },
        "onsetDateTime": "2023-01-09",
        "clinicalStatus": {
          "coding": [
            {
              "code": "inactive",
              "system": "http://terminology.hl7.org/CodeSystem/condition-clinical"
            }
          ]
        },
        "subject": {
          "reference": "Patient/2a09fa90-5c5b-4077-a1ad-30e788897fa0",
          "display": "Malachy Dodd"
        },
        "asserter": {
          "reference": "Practitioner/95f6db4d-88d4-4f98-aed4-df6c4f8d48de",
          "display": "Dr. Hel Ping"
        }
      }
    },
    {
      "fullUrl": "urn:uuid:e5d31d86-524d-4fbd-a2c0-e348147a819b",
      "resource": {
        "resourceType": "Condition",
        "id": "e5d31d86-524d-4fbd-a2c0-e348147a819b",
        "meta": {
          "profile": [
            "http://hl7.org/fhir/uv/ips/StructureDefinition/Condition-uv-ips"
          ]
        },
        "category": [
          {
            "coding": [
              {
                "code": "problem-list-item",
                "system": "http://terminology.hl7.org/CodeSystem/condition-category",
                "display": "Problem List Item"
              }
            ]
          }
        ],
        "code": {
          "coding": [
            {
              "code": "125605004",
              "system": "http://snomed.info/sct",
              "display": "Fracture of bone (disorder)"
            }
          ],
          "text": "Fracture of bone"
        },
        "onsetDateTime": "2023-01-09",
        "clinicalStatus": {
          "coding": [
            {
              "code": "inactive",
              "system": "http://terminology.hl7.org/CodeSystem/condition-clinical"
            }
          ]
        },
        "subject": {
          "reference": "Patient/2a09fa90-5c5b-4077-a1ad-30e788897fa0",
          "display": "Malachy Dodd"
        },
        "asserter": {
          "reference": "Practitioner/95f6db4d-88d4-4f98-aed4-df6c4f8d48de",
          "display": "Dr. Hel Ping"
        }
      }
    },
    {
      "fullUrl": "urn:uuid:39460b22-e3d7-456e-981a-972a05d3455a",
      "resource": {
        "resourceType": "Condition",
        "id": "39460b22-e3d7-456e-981a-972a05d3455a",
        "meta": {
          "profile": [
            "http://hl7.org/fhir/uv/ips/StructureDefinition/Condition-uv-ips"
          ]
        },
        "category": [
          {
            "coding": [
              {
                "code": "problem-list-item",
                "system": "http://terminology.hl7.org/CodeSystem/condition-category",
                "display": "Problem List Item"
              }
            ]
          }
        ],
        "code": {
          "coding": [
            {
              "code": "109570002",
              "system": "http://snomed.info/sct",
              "display": "Primary dental caries (disorder)"
            }
          ],
          "text": "Primary dental caries"
        },
        "onsetDateTime": "2021-11-26",
        "clinicalStatus": {
          "coding": [
            {
              "code": "inactive",
              "system": "http://terminology.hl7.org/CodeSystem/condition-clinical"
            }
          ]
        },
        "subject": {
          "reference": "Patient/2a09fa90-5c5b-4077-a1ad-30e788897fa0",
          "display": "Malachy Dodd"
        },
        "asserter": {
          "reference": "Practitioner/95f6db4d-88d4-4f98-aed4-df6c4f8d48de",
          "display": "Dr. Hel Ping"
        }
      }
    },
    {
      "fullUrl": "urn:uuid:0707526d-a90c-40fe-99f2-b51d59d63cc8",
      "resource": {
        "resourceType": "Condition",
        "id": "0707526d-a90c-40fe-99f2-b51d59d63cc8",
        "meta": {
          "profile": [
            "http://hl7.org/fhir/uv/ips/StructureDefinition/Condition-uv-ips"
          ]
        },
        "category": [
          {
            "coding": [
              {
                "code": "problem-list-item",
                "system": "http://terminology.hl7.org/CodeSystem/condition-category",
                "display": "Problem List Item"
              }
            ]
          }
        ],
        "code": {
          "coding": [
            {
              "code": "444814009",
              "system": "http://snomed.info/sct",
              "display": "Viral sinusitis (disorder)"
            }
          ],
          "text": "Viral sinusitis"
        },
        "onsetDateTime": "2020-11-20",
        "clinicalStatus": {
          "coding": [
            {
              "code": "inactive",
              "system": "http://terminology.hl7.org/CodeSystem/condition-clinical"
            }
          ]
        },
        "subject": {
          "reference": "Patient/2a09fa90-5c5b-4077-a1ad-30e788897fa0",
          "display": "Malachy Dodd"
        },
        "asserter": {
          "reference": "Practitioner/95f6db4d-88d4-4f98-aed4-df6c4f8d48de",
          "display": "Dr. Hel Ping"
        }
      }
    },
    {
      "fullUrl": "urn:uuid:f78e5649-222c-4844-8613-d36333a74416",
      "resource": {
        "resourceType": "Condition",
        "id": "f78e5649-222c-4844-8613-d36333a74416",
        "meta": {
          "profile": [
            "http://hl7.org/fhir/uv/ips/StructureDefinition/Condition-uv-ips"
          ]
        },
        "category": [
          {
            "coding": [
              {
                "code": "problem-list-item",
                "system": "http://terminology.hl7.org/CodeSystem/condition-category",
                "display": "Problem List Item"
              }
            ]
          }
        ],
        "code": {
          "coding": [
            {
              "code": "444814009",
              "system": "http://snomed.info/sct",
              "display": "Viral sinusitis (disorder)"
            }
          ],
          "text": "Viral sinusitis"
        },
        "onsetDateTime": "2019-06-28",
        "clinicalStatus": {
          "coding": [
            {
              "code": "inactive",
              "system": "http://terminology.hl7.org/CodeSystem/condition-clinical"
            }
          ]
        },
        "subject": {
          "reference": "Patient/2a09fa90-5c5b-4077-a1ad-30e788897fa0",
          "display": "Malachy Dodd"
        },
        "asserter": {
          "reference": "Practitioner/95f6db4d-88d4-4f98-aed4-df6c4f8d48de",
          "display": "Dr. Hel Ping"
        }
      }
    },
    {
      "fullUrl": "urn:uuid:08961bf5-5eb0-49d7-8f4a-8848679053e2",
      "resource": {
        "resourceType": "Condition",
        "id": "08961bf5-5eb0-49d7-8f4a-8848679053e2",
        "meta": {
          "profile": [
            "http://hl7.org/fhir/uv/ips/StructureDefinition/Condition-uv-ips"
          ]
        },
        "category": [
          {
            "coding": [
              {
                "code": "problem-list-item",
                "system": "http://terminology.hl7.org/CodeSystem/condition-category",
                "display": "Problem List Item"
              }
            ]
          }
        ],
        "code": {
          "coding": [
            {
              "code": "109570002",
              "system": "http://snomed.info/sct",
              "display": "Primary dental caries (disorder)"
            }
          ],
          "text": "Primary dental caries"
        },
        "onsetDateTime": "2018-11-09",
        "clinicalStatus": {
          "coding": [
            {
              "code": "inactive",
              "system": "http://terminology.hl7.org/CodeSystem/condition-clinical"
            }
          ]
        },
        "subject": {
          "reference": "Patient/2a09fa90-5c5b-4077-a1ad-30e788897fa0",
          "display": "Malachy Dodd"
        },
        "asserter": {
          "reference": "Practitioner/95f6db4d-88d4-4f98-aed4-df6c4f8d48de",
          "display": "Dr. Hel Ping"
        }
      }
    },
    {
      "fullUrl": "urn:uuid:0d551bc4-7991-44dc-8b56-899c60ec7145",
      "resource": {
        "resourceType": "Condition",
        "id": "0d551bc4-7991-44dc-8b56-899c60ec7145",
        "meta": {
          "profile": [
            "http://hl7.org/fhir/uv/ips/StructureDefinition/Condition-uv-ips"
          ]
        },
        "category": [
          {
            "coding": [
              {
                "code": "problem-list-item",
                "system": "http://terminology.hl7.org/CodeSystem/condition-category",
                "display": "Problem List Item"
              }
            ]
          }
        ],
        "code": {
          "coding": [
            {
              "code": "66383009",
              "system": "http://snomed.info/sct",
              "display": "Gingivitis (disorder)"
            }
          ],
          "text": "Gingivitis"
        },
        "onsetDateTime": "2018-10-26",
        "clinicalStatus": {
          "coding": [
            {
              "code": "inactive",
              "system": "http://terminology.hl7.org/CodeSystem/condition-clinical"
            }
          ]
        },
        "subject": {
          "reference": "Patient/2a09fa90-5c5b-4077-a1ad-30e788897fa0",
          "display": "Malachy Dodd"
        },
        "asserter": {
          "reference": "Practitioner/95f6db4d-88d4-4f98-aed4-df6c4f8d48de",
          "display": "Dr. Hel Ping"
        }
      }
    },
    {
      "fullUrl": "urn:uuid:6d2d117a-f074-49dc-bf94-c7367886394b",
      "resource": {
        "resourceType": "Condition",
        "id": "6d2d117a-f074-49dc-bf94-c7367886394b",
        "meta": {
          "profile": [
            "http://hl7.org/fhir/uv/ips/StructureDefinition/Condition-uv-ips"
          ]
        },
        "category": [
          {
            "coding": [
              {
                "code": "problem-list-item",
                "system": "http://terminology.hl7.org/CodeSystem/condition-category",
                "display": "Problem List Item"
              }
            ]
          }
        ],
        "code": {
          "coding": [
            {
              "code": "18718003",
              "system": "http://snomed.info/sct",
              "display": "Gingival disease (disorder)"
            }
          ],
          "text": "Gingival disease"
        },
        "onsetDateTime": "2017-11-03",
        "clinicalStatus": {
          "coding": [
            {
              "code": "inactive",
              "system": "http://terminology.hl7.org/CodeSystem/condition-clinical"
            }
          ]
        },
        "subject": {
          "reference": "Patient/2a09fa90-5c5b-4077-a1ad-30e788897fa0",
          "display": "Malachy Dodd"
        },
        "asserter": {
          "reference": "Practitioner/95f6db4d-88d4-4f98-aed4-df6c4f8d48de",
          "display": "Dr. Hel Ping"
        }
      }
    },
    {
      "fullUrl": "urn:uuid:03b47e71-35ba-4f3c-af6f-2ccb227f8fdd",
      "resource": {
        "resourceType": "Condition",
        "id": "03b47e71-35ba-4f3c-af6f-2ccb227f8fdd",
        "meta": {
          "profile": [
            "http://hl7.org/fhir/uv/ips/StructureDefinition/Condition-uv-ips"
          ]
        },
        "category": [
          {
            "coding": [
              {
                "code": "problem-list-item",
                "system": "http://terminology.hl7.org/CodeSystem/condition-category",
                "display": "Problem List Item"
              }
            ]
          }
        ],
        "code": {
          "coding": [
            {
              "code": "66383009",
              "system": "http://snomed.info/sct",
              "display": "Gingivitis (disorder)"
            }
          ],
          "text": "Gingivitis"
        },
        "onsetDateTime": "2017-10-20",
        "clinicalStatus": {
          "coding": [
            {
              "code": "inactive",
              "system": "http://terminology.hl7.org/CodeSystem/condition-clinical"
            }
          ]
        },
        "subject": {
          "reference": "Patient/2a09fa90-5c5b-4077-a1ad-30e788897fa0",
          "display": "Malachy Dodd"
        },
        "asserter": {
          "reference": "Practitioner/95f6db4d-88d4-4f98-aed4-df6c4f8d48de",
          "display": "Dr. Hel Ping"
        }
      }
    },
    {
      "fullUrl": "urn:uuid:85c398b0-5289-41c5-bdb5-8a8e2d6eb846",
      "resource": {
        "resourceType": "Medication",
        "id": "85c398b0-5289-41c5-bdb5-8a8e2d6eb846",
        "meta": {
          "profile": [
            "http://hl7.org/fhir/uv/ips/StructureDefinition/Medication-uv-ips"
          ]
        },
        "code": {
          "coding": [
            {
              "code": "351137",
              "system": "http://www.nlm.nih.gov/research/umls/rxnorm",
              "display": "albuterol 0.21 MG/ML Inhalation Solution"
            },
            {
              "code": "375336001",
              "system": "http://snomed.info/sct",
              "display": "Product containing precisely salbutamol (as salbutamol sulfate) 210 microgram/1 milliliter conventional release solution for inhalation (clinical drug)"
            }
          ],
          "text": "Albuterol (as albuterol sulfate) 210 microgram/mL solution for inhalation"
        },
        "form": {
          "coding": [
            {
              "code": "420641004",
              "system": "http://snomed.info/sct",
              "display": "Solution for inhalation"
            }
          ]
        },
        "ingredient": [
          {
            "itemCodeableConcept": {
              "coding": [
                {
                  "code": "48474002",
                  "system": "http://snomed.info/sct",
                  "display": "Albuterol sulfate"
                }
              ]
            },
            "isActive": true
          }
        ]
      }
    },
    {
      "fullUrl": "urn:uuid:b6d70888-8405-4a66-992f-cb8192f5bbd3",
      "resource": {
        "resourceType": "MedicationStatement",
        "id": "b6d70888-8405-4a66-992f-cb8192f5bbd3",
        "meta": {
          "profile": [
            "http://hl7.org/fhir/uv/ips/StructureDefinition/MedicationStatement-uv-ips"
          ]
        },
        "effectivePeriod": {
          "start": "2024-11-29"
        },
        "dosage": [
          {
            "doseAndRate": [
              {
                "doseQuantity": {
                  "value": 420,
                  "unit": "microgram",
                  "code": "ug"
                }
              }
            ],
            "timing": {
              "repeat": {
                "frequency": 1,
                "period": 4,
                "periodUnit": "h"
              }
            },
            "text": "2 puffs (210 micrograms per puff) every 4 to 6 hours as needed",
            "asNeededBoolean": true
          }
        ],
        "reasonCode": [
          {
            "coding": [
              {
                "code": "233678006",
                "system": "http://snomed.info/sct",
                "display": "Childhood asthma (disorder)"
              }
            ]
          }
        ],
        "status": "active",
        "medicationReference": {
          "reference": "Medication/85c398b0-5289-41c5-bdb5-8a8e2d6eb846",
          "display": "Albuterol (as albuterol sulfate) 210 microgram/mL solution for inhalation"
        },
        "subject": {
          "reference": "Patient/2a09fa90-5c5b-4077-a1ad-30e788897fa0",
          "display": "Malachy Dodd"
        }
      }
    },
    {
      "fullUrl": "urn:uuid:19bea50e-a1b0-4acd-97be-3cf2e58af081",
      "resource": {
        "resourceType": "Medication",
        "id": "19bea50e-a1b0-4acd-97be-3cf2e58af081",
        "meta": {
          "profile": [
            "http://hl7.org/fhir/uv/ips/StructureDefinition/Medication-uv-ips"
          ]
        },
        "code": {
          "coding": [
            {
              "code": "616830",
              "system": "http://www.nlm.nih.gov/research/umls/rxnorm",
              "display": "budesonide 0.125 MG/ML Inhalation Suspension [Pulmicort]"
            }
          ],
          "text": "budesonide 0.125 MG/ML Inhalation Suspension [Pulmicort]"
        }
      }
    },
    {
      "fullUrl": "urn:uuid:8c99d957-1e58-4de5-b02b-d82ee27e041e",
      "resource": {
        "resourceType": "MedicationStatement",
        "id": "8c99d957-1e58-4de5-b02b-d82ee27e041e",
        "meta": {
          "profile": [
            "http://hl7.org/fhir/uv/ips/StructureDefinition/MedicationStatement-uv-ips"
          ]
        },
        "effectivePeriod": {
          "start": "2024-11-29"
        },
        "dosage": [
          {
            "doseAndRate": [
              {
                "doseQuantity": {
                  "value": 0.5,
                  "unit": "mg",
                  "code": "mg"
                }
              }
            ],
            "timing": {
              "repeat": {
                "frequency": 2,
                "period": 1,
                "periodUnit": "d"
              }
            },
            "text": "0.5 mg via nebulizer twice daily",
            "asNeededBoolean": false
          }
        ],
        "reasonCode": [
          {
            "coding": [
              {
                "code": "233678006",
                "system": "http://snomed.info/sct",
                "display": "Childhood asthma (disorder)"
              }
            ]
          }
        ],
        "status": "active",
        "medicationReference": {
          "reference": "Medication/19bea50e-a1b0-4acd-97be-3cf2e58af081",
          "display": "budesonide 0.125 MG/ML Inhalation Suspension [Pulmicort]"
        },
        "subject": {
          "reference": "Patient/2a09fa90-5c5b-4077-a1ad-30e788897fa0",
          "display": "Malachy Dodd"
        }
      }
    },
    {
      "fullUrl": "urn:uuid:86c7edb2-e28c-49e1-95fa-22bc1e092d88",
      "resource": {
        "resourceType": "Medication",
        "id": "86c7edb2-e28c-49e1-95fa-22bc1e092d88",
        "meta": {
          "profile": [
            "http://hl7.org/fhir/uv/ips/StructureDefinition/Medication-uv-ips"
          ]
        },
        "code": {
          "coding": [
            {
              "code": "197380",
              "system": "http://www.nlm.nih.gov/research/umls/rxnorm",
              "display": "atenolol 25 MG Oral Tablet"
            },
            {
              "code": "318434003",
              "system": "http://snomed.info/sct",
              "display": "Product containing precisely atenolol 25 milligram/1 each conventional release oral tablet (clinical drug)"
            }
          ],
          "text": "Atenolol 25 mg oral tablet"
        },
        "form": {
          "coding": [
            {
              "code": "421026006",
              "system": "http://snomed.info/sct",
              "display": "Oral tablet"
            }
          ]
        },
        "ingredient": [
          {
            "itemCodeableConcept": {
              "coding": [
                {
                  "code": "387506000",
                  "system": "http://snomed.info/sct",
                  "display": "Atenolol"
                }
              ]
            },
            "isActive": true
          }
        ]
      }
    },
    {
      "fullUrl": "urn:uuid:dadc197c-fe61-4bf9-86e6-a0b659ddf23d",
      "resource": {
        "resourceType": "MedicationStatement",
        "id": "dadc197c-fe61-4bf9-86e6-a0b659ddf23d",
        "meta": {
          "profile": [
            "http://hl7.org/fhir/uv/ips/StructureDefinition/MedicationStatement-uv-ips"
          ]
        },
        "effectivePeriod": {
          "start": "2023-03-20"
        },
        "dosage": [
          {
            "doseAndRate": [
              {
                "doseQuantity": {
                  "value": 1,
                  "unit": "{tbl}",
                  "code": "{tbl}"
                }
              }
            ],
            "timing": {
              "repeat": {
                "frequency": 1,
                "period": 1,
                "periodUnit": "d"
              }
            },
            "text": "1 tablet (25 mg) by mouth once daily",
            "asNeededBoolean": false
          }
        ],
        "status": "active",
        "medicationReference": {
          "reference": "Medication/86c7edb2-e28c-49e1-95fa-22bc1e092d88",
          "display": "Atenolol 25 mg oral tablet"
        },
        "subject": {
          "reference": "Patient/2a09fa90-5c5b-4077-a1ad-30e788897fa0",
          "display": "Malachy Dodd"
        }
      }
    },
    {
      "fullUrl": "urn:uuid:895137b7-645d-4335-962f-e78458ba8a0a",
      "resource": {
        "resourceType": "Medication",
        "id": "895137b7-645d-4335-962f-e78458ba8a0a",
        "meta": {
          "profile": [
            "http://hl7.org/fhir/uv/ips/StructureDefinition/Medication-uv-ips"
          ]
        },
        "code": {
          "coding": [
            {
              "code": "243670",
              "system": "http://www.nlm.nih.gov/research/umls/rxnorm",
              "display": "aspirin 81 MG Oral Tablet"
            }
          ],
          "text": "aspirin 81 MG Oral Tablet"
        }
      }
    },
    {
      "fullUrl": "urn:uuid:a0f55446-f8a0-4067-a570-d8b1dc7de1dd",
      "resource": {
        "resourceType": "MedicationStatement",
        "id": "a0f55446-f8a0-4067-a570-d8b1dc7de1dd",
        "meta": {
          "profile": [
            "http://hl7.org/fhir/uv/ips/StructureDefinition/MedicationStatement-uv-ips"
          ]
        },
        "effectivePeriod": {
          "start": "2023-03-20"
        },
        "dosage": [
          {
            "doseAndRate": [
              {
                "doseQuantity": {
                  "value": 1,
                  "unit": "{tbl}",
                  "code": "{tbl}"
                }
              }
            ],
            "timing": {
              "repeat": {
                "frequency": 1,
                "period": 1,
                "periodUnit": "d"
              }
            },
            "text": "1 tablet (81 mg) once daily",
            "asNeededBoolean": false
          }
        ],
        "status": "active",
        "medicationReference": {
          "reference": "Medication/895137b7-645d-4335-962f-e78458ba8a0a",
          "display": "aspirin 81 MG Oral Tablet"
        },
        "subject": {
          "reference": "Patient/2a09fa90-5c5b-4077-a1ad-30e788897fa0",
          "display": "Malachy Dodd"
        }
      }
    },
    {
      "fullUrl": "urn:uuid:46498094-ea0c-444a-9918-9fd4e2168851",
      "resource": {
        "resourceType": "Medication",
        "id": "46498094-ea0c-444a-9918-9fd4e2168851",
        "meta": {
          "profile": [
            "http://hl7.org/fhir/uv/ips/StructureDefinition/Medication-uv-ips"
          ]
        },
        "code": {
          "coding": [
            {
              "code": "261962",
              "system": "http://www.nlm.nih.gov/research/umls/rxnorm",
              "display": "ramipril 10 MG Oral Capsule"
            },
            {
              "code": "318906001",
              "system": "http://snomed.info/sct",
              "display": "Product containing precisely ramipril 10 milligram/1 each conventional release oral capsule (clinical drug)"
            }
          ],
          "text": "Ramipril 10 mg oral capsule"
        },
        "form": {
          "coding": [
            {
              "code": "420692007",
              "system": "http://snomed.info/sct",
              "display": "Oral capsule"
            }
          ]
        },
        "ingredient": [
          {
            "itemCodeableConcept": {
              "coding": [
                {
                  "code": "386872004",
                  "system": "http://snomed.info/sct",
                  "display": "Ramipril"
                }
              ]
            },
            "isActive": true
          }
        ]
      }
    },
    {
      "fullUrl": "urn:uuid:1dec04a9-1109-4071-95b6-1feacb836a45",
      "resource": {
        "resourceType": "MedicationStatement",
        "id": "1dec04a9-1109-4071-95b6-1feacb836a45",
        "meta": {
          "profile": [
            "http://hl7.org/fhir/uv/ips/StructureDefinition/MedicationStatement-uv-ips"
          ]
        },
        "effectivePeriod": {
          "start": "2023-03-20"
        },
        "dosage": [
          {
            "doseAndRate": [
              {
                "doseQuantity": {
                  "value": 10,
                  "unit": "mg",
                  "code": "mg"
                }
              }
            ],
            "timing": {
              "repeat": {
                "frequency": 1,
                "period": 1,
                "periodUnit": "d"
              }
            },
            "text": "10 mg once daily",
            "asNeededBoolean": false
          }
        ],
        "status": "active",
        "medicationReference": {
          "reference": "Medication/46498094-ea0c-444a-9918-9fd4e2168851",
          "display": "Ramipril 10 mg oral capsule"
        },
        "subject": {
          "reference": "Patient/2a09fa90-5c5b-4077-a1ad-30e788897fa0",
          "display": "Malachy Dodd"
        }
      }
    },
    {
      "fullUrl": "urn:uuid:fcbd4942-5851-4bcf-a982-085461e26a45",
      "resource": {
        "resourceType": "Medication",
        "id": "fcbd4942-5851-4bcf-a982-085461e26a45",
        "meta": {
          "profile": [
            "http://hl7.org/fhir/uv/ips/StructureDefinition/Medication-uv-ips"
          ]
        },
        "code": {
          "coding": [
            {
              "code": "855812",
              "system": "http://www.nlm.nih.gov/research/umls/rxnorm",
              "display": "prasugrel 10 MG Oral Tablet"
            },
            {
              "code": "783368008",
              "system": "http://snomed.info/sct",
              "display": "Product containing precisely prasugrel (as prasugrel hydrochloride) 10 milligram/1 each conventional release oral tablet (clinical drug)"
            }
          ],
          "text": "Prasugrel (as prasugrel hydrochloride) 10 mg oral tablet"
        },
        "form": {
          "coding": [
            {
              "code": "421026006",
              "system": "http://snomed.info/sct",
              "display": "Oral tablet"
            }
          ]
        },
        "ingredient": [
          {
            "itemCodeableConcept": {
              "coding": [
                {
                  "code": "735166002",
                  "system": "http://snomed.info/sct",
                  "display": "Prasugrel hydrochloride"
                }
              ]
            },
            "isActive": true
          }
        ]
      }
    },
    {
      "fullUrl": "urn:uuid:90eef4ac-e47a-43b4-bbec-eeda7bd74eb1",
      "resource": {
        "resourceType": "MedicationStatement",
        "id": "90eef4ac-e47a-43b4-bbec-eeda7bd74eb1",
        "meta": {
          "profile": [
            "http://hl7.org/fhir/uv/ips/StructureDefinition/MedicationStatement-uv-ips"
          ]
        },
        "effectivePeriod": {
          "start": "2023-03-20"
        },
        "dosage": [
          {
            "doseAndRate": [
              {
                "doseQuantity": {
                  "value": 1,
                  "unit": "{tbl}",
                  "code": "{tbl}"
                }
              }
            ],
            "timing": {
              "repeat": {
                "frequency": 1,
                "period": 1,
                "periodUnit": "d"
              }
            },
            "text": "1 tablet (10 mg) once daily",
            "asNeededBoolean": false
          }
        ],
        "status": "active",
        "medicationReference": {
          "reference": "Medication/fcbd4942-5851-4bcf-a982-085461e26a45",
          "display": "Prasugrel (as prasugrel hydrochloride) 10 mg oral tablet"
        },
        "subject": {
          "reference": "Patient/2a09fa90-5c5b-4077-a1ad-30e788897fa0",
          "display": "Malachy Dodd"
        }
      }
    },
    {
      "fullUrl": "urn:uuid:ed018b48-8e03-42fd-9006-4e64084f5fb8",
      "resource": {
        "resourceType": "Medication",
        "id": "ed018b48-8e03-42fd-9006-4e64084f5fb8",
        "meta": {
          "profile": [
            "http://hl7.org/fhir/uv/ips/StructureDefinition/Medication-uv-ips"
          ]
        },
        "code": {
          "coding": [
            {
              "code": "904467",
              "system": "http://www.nlm.nih.gov/research/umls/rxnorm",
              "display": "pravastatin sodium 20 MG Oral Tablet"
            },
            {
              "code": "320013003",
              "system": "http://snomed.info/sct",
              "display": "Product containing precisely pravastatin sodium 20 milligram/1 each conventional release oral tablet (clinical drug)"
            }
          ],
          "text": "Pravastatin sodium 20 mg oral tablet"
        },
        "form": {
          "coding": [
            {
              "code": "421026006",
              "system": "http://snomed.info/sct",
              "display": "Oral tablet"
            }
          ]
        },
        "ingredient": [
          {
            "itemCodeableConcept": {
              "coding": [
                {
                  "code": "96306007",
                  "system": "http://snomed.info/sct",
                  "display": "Pravastatin sodium"
                }
              ]
            },
            "isActive": true
          }
        ]
      }
    },
    {
      "fullUrl": "urn:uuid:03092369-4c50-4856-9e03-d50f2f88cc49",
      "resource": {
        "resourceType": "MedicationStatement",
        "id": "03092369-4c50-4856-9e03-d50f2f88cc49",
        "meta": {
          "profile": [
            "http://hl7.org/fhir/uv/ips/StructureDefinition/MedicationStatement-uv-ips"
          ]
        },
        "effectivePeriod": {
          "start": "2023-03-20"
        },
        "dosage": [
          {
            "doseAndRate": [
              {
                "doseQuantity": {
                  "value": 1,
                  "unit": "{tbl}",
                  "code": "{tbl}"
                }
              }
            ],
            "timing": {
              "repeat": {
                "frequency": 1,
                "period": 1,
                "periodUnit": "d"
              }
            },
            "text": "1 tablet (20 mg) by mouth once daily",
            "asNeededBoolean": false
          }
        ],
        "status": "active",
        "medicationReference": {
          "reference": "Medication/ed018b48-8e03-42fd-9006-4e64084f5fb8",
          "display": "Pravastatin sodium 20 mg oral tablet"
        },
        "subject": {
          "reference": "Patient/2a09fa90-5c5b-4077-a1ad-30e788897fa0",
          "display": "Malachy Dodd"
        }
      }
    },
    {
      "fullUrl": "urn:uuid:f646c59a-7e83-4374-ad0c-70edbf45e05e",
      "resource": {
        "resourceType": "AllergyIntolerance",
        "id": "f646c59a-7e83-4374-ad0c-70edbf45e05e",
        "meta": {
          "profile": [
            "http://hl7.eu/fhir/eps/StructureDefinition/allergyIntolerance-eu-eps"
          ]
        },
        "code": {
          "coding": [
            {
              "code": "716186003",
              "system": "http://snomed.info/sct",
              "display": "No known allergy (situation)"
            }
          ]
        },
        "patient": {
          "reference": "Patient/2a09fa90-5c5b-4077-a1ad-30e788897fa0",
          "display": "Malachy Dodd"
        },
        "_onsetDateTime": {
          "extension": [
            {
              "url": "http://hl7.org/fhir/StructureDefinition/data-absent-reason",
              "valueCode": "unknown"
            }
          ]
        }
      }
    },
    {
      "fullUrl": "urn:uuid:e5720d7c-98c2-487e-8f3c-e2d94b1b9c8e",
      "resource": {
        "resourceType": "Procedure",
        "id": "e5720d7c-98c2-487e-8f3c-e2d94b1b9c8e",
        "meta": {
          "profile": [
            "http://hl7.org/fhir/uv/ips/StructureDefinition/Procedure-uv-ips"
          ]
        },
        "code": {
          "coding": [
            {
              "code": "15220000",
              "system": "http://snomed.info/sct",
              "display": "Laboratory test (procedure)"
            }
          ],
          "text": "Laboratory test"
        },
        "status": "completed",
        "subject": {
          "reference": "Patient/2a09fa90-5c5b-4077-a1ad-30e788897fa0",
          "display": "Malachy Dodd"
        },
        "performedDateTime": "2023-03-20"
      }
    },
    {
      "fullUrl": "urn:uuid:7bfad427-9dc3-4a4a-b9fa-9d98b534875f",
      "resource": {
        "resourceType": "Procedure",
        "id": "7bfad427-9dc3-4a4a-b9fa-9d98b534875f",
        "meta": {
          "profile": [
            "http://hl7.org/fhir/uv/ips/StructureDefinition/Procedure-uv-ips"
          ]
        },
        "code": {
          "coding": [
            {
              "code": "29303009",
              "system": "http://snomed.info/sct",
              "display": "Electrocardiographic procedure (procedure)"
            }
          ],
          "text": "Electrocardiographic procedure"
        },
        "status": "completed",
        "subject": {
          "reference": "Patient/2a09fa90-5c5b-4077-a1ad-30e788897fa0",
          "display": "Malachy Dodd"
        },
        "performedDateTime": "2023-03-20"
      }
    },
    {
      "fullUrl": "urn:uuid:a18d5bf0-314a-4f89-86cb-1c7375affb4a",
      "resource": {
        "resourceType": "Procedure",
        "id": "a18d5bf0-314a-4f89-86cb-1c7375affb4a",
        "meta": {
          "profile": [
            "http://hl7.org/fhir/uv/ips/StructureDefinition/Procedure-uv-ips"
          ]
        },
        "code": {
          "coding": [
            {
              "code": "33367005",
              "system": "http://snomed.info/sct",
              "display": "Angiography of coronary artery (procedure)"
            }
          ],
          "text": "Angiography of coronary artery"
        },
        "status": "completed",
        "subject": {
          "reference": "Patient/2a09fa90-5c5b-4077-a1ad-30e788897fa0",
          "display": "Malachy Dodd"
        },
        "performedDateTime": "2023-03-20"
      }
    },
    {
      "fullUrl": "urn:uuid:030b9377-a628-49ca-b584-478886a1caa0",
      "resource": {
        "resourceType": "Procedure",
        "id": "030b9377-a628-49ca-b584-478886a1caa0",
        "meta": {
          "profile": [
            "http://hl7.org/fhir/uv/ips/StructureDefinition/Procedure-uv-ips"
          ]
        },
        "code": {
          "coding": [
            {
              "code": "165197003",
              "system": "http://snomed.info/sct",
              "display": "Diagnostic assessment (procedure)"
            }
          ],
          "text": "Diagnostic assessment"
        },
        "status": "completed",
        "subject": {
          "reference": "Patient/2a09fa90-5c5b-4077-a1ad-30e788897fa0",
          "display": "Malachy Dodd"
        },
        "performedDateTime": "2023-03-20"
      }
    },
    {
      "fullUrl": "urn:uuid:fb52fb2e-ae8b-4839-a1d0-f4fa2357b70c",
      "resource": {
        "resourceType": "Procedure",
        "id": "fb52fb2e-ae8b-4839-a1d0-f4fa2357b70c",
        "meta": {
          "profile": [
            "http://hl7.org/fhir/uv/ips/StructureDefinition/Procedure-uv-ips"
          ]
        },
        "code": {
          "coding": [
            {
              "code": "371908008",
              "system": "http://snomed.info/sct",
              "display": "Oxygen administration by mask (procedure)"
            }
          ],
          "text": "Oxygen administration by mask"
        },
        "status": "completed",
        "subject": {
          "reference": "Patient/2a09fa90-5c5b-4077-a1ad-30e788897fa0",
          "display": "Malachy Dodd"
        },
        "performedDateTime": "2023-03-20"
      }
    },
    {
      "fullUrl": "urn:uuid:42ea7688-1723-4edc-8bee-3ebfa39fb803",
      "resource": {
        "resourceType": "Procedure",
        "id": "42ea7688-1723-4edc-8bee-3ebfa39fb803",
        "meta": {
          "profile": [
            "http://hl7.org/fhir/uv/ips/StructureDefinition/Procedure-uv-ips"
          ]
        },
        "code": {
          "coding": [
            {
              "code": "399208008",
              "system": "http://snomed.info/sct",
              "display": "Plain X-ray of chest (procedure)"
            }
          ],
          "text": "Plain X-ray of chest"
        },
        "status": "completed",
        "subject": {
          "reference": "Patient/2a09fa90-5c5b-4077-a1ad-30e788897fa0",
          "display": "Malachy Dodd"
        },
        "performedDateTime": "2023-03-20"
      }
    },
    {
      "fullUrl": "urn:uuid:7730e2cc-a362-4d07-94a1-b5bbc3403a85",
      "resource": {
        "resourceType": "Procedure",
        "id": "7730e2cc-a362-4d07-94a1-b5bbc3403a85",
        "meta": {
          "profile": [
            "http://hl7.org/fhir/uv/ips/StructureDefinition/Procedure-uv-ips"
          ]
        },
        "code": {
          "coding": [
            {
              "code": "415070008",
              "system": "http://snomed.info/sct",
              "display": "Percutaneous coronary intervention (procedure)"
            }
          ],
          "text": "Percutaneous coronary intervention"
        },
        "reasonCode": [
          {
            "coding": [
              {
                "code": "401303003",
                "system": "http://snomed.info/sct",
                "display": "Acute ST segment elevation myocardial infarction (disorder)"
              }
            ]
          }
        ],
        "status": "completed",
        "subject": {
          "reference": "Patient/2a09fa90-5c5b-4077-a1ad-30e788897fa0",
          "display": "Malachy Dodd"
        },
        "performedDateTime": "2023-03-20"
      }
    },
    {
      "fullUrl": "urn:uuid:ec856ac8-06ef-4f0b-a449-47c4d9df3855",
      "resource": {
        "resourceType": "Procedure",
        "id": "ec856ac8-06ef-4f0b-a449-47c4d9df3855",
        "meta": {
          "profile": [
            "http://hl7.org/fhir/uv/ips/StructureDefinition/Procedure-uv-ips"
          ]
        },
        "code": {
          "coding": [
            {
              "code": "433236007",
              "system": "http://snomed.info/sct",
              "display": "Transthoracic echocardiography (procedure)"
            }
          ],
          "text": "Transthoracic echocardiography"
        },
        "status": "completed",
        "subject": {
          "reference": "Patient/2a09fa90-5c5b-4077-a1ad-30e788897fa0",
          "display": "Malachy Dodd"
        },
        "performedDateTime": "2023-03-20"
      }
    },
    {
      "fullUrl": "urn:uuid:15ea04b9-4bf3-48a1-82dc-14699a849230",
      "resource": {
        "resourceType": "Procedure",
        "id": "15ea04b9-4bf3-48a1-82dc-14699a849230",
        "meta": {
          "profile": [
            "http://hl7.org/fhir/uv/ips/StructureDefinition/Procedure-uv-ips"
          ]
        },
        "code": {
          "coding": [
            {
              "code": "698314001",
              "system": "http://snomed.info/sct",
              "display": "Consultation for treatment (procedure)"
            }
          ],
          "text": "Consultation for treatment"
        },
        "status": "completed",
        "subject": {
          "reference": "Patient/2a09fa90-5c5b-4077-a1ad-30e788897fa0",
          "display": "Malachy Dodd"
        },
        "performedDateTime": "2023-03-20"
      }
    },
    {
      "fullUrl": "urn:uuid:4e0a2c58-a0e9-41ad-867c-e164a1426688",
      "resource": {
        "resourceType": "Procedure",
        "id": "4e0a2c58-a0e9-41ad-867c-e164a1426688",
        "meta": {
          "profile": [
            "http://hl7.org/fhir/uv/ips/StructureDefinition/Procedure-uv-ips"
          ]
        },
        "code": {
          "coding": [
            {
              "code": "710839006",
              "system": "http://snomed.info/sct",
              "display": "Assessment of cardiac status using monitoring device (procedure)"
            }
          ],
          "text": "Assessment of cardiac status using monitoring device"
        },
        "status": "completed",
        "subject": {
          "reference": "Patient/2a09fa90-5c5b-4077-a1ad-30e788897fa0",
          "display": "Malachy Dodd"
        },
        "performedDateTime": "2023-03-20"
      }
    },
    {
      "fullUrl": "urn:uuid:635f1ca6-6545-45ff-a414-c4c70f1a1769",
      "resource": {
        "resourceType": "Procedure",
        "id": "635f1ca6-6545-45ff-a414-c4c70f1a1769",
        "meta": {
          "profile": [
            "http://hl7.org/fhir/uv/ips/StructureDefinition/Procedure-uv-ips"
          ]
        },
        "code": {
          "coding": [
            {
              "code": "274474001",
              "system": "http://snomed.info/sct",
              "display": "Bone immobilization (procedure)"
            }
          ],
          "text": "Bone immobilization"
        },
        "reasonCode": [
          {
            "coding": [
              {
                "code": "33737001",
                "system": "http://snomed.info/sct",
                "display": "Fracture of rib (disorder)"
              }
            ]
          }
        ],
        "status": "completed",
        "subject": {
          "reference": "Patient/2a09fa90-5c5b-4077-a1ad-30e788897fa0",
          "display": "Malachy Dodd"
        },
        "performedDateTime": "2023-01-09"
      }
    },
    {
      "fullUrl": "urn:uuid:506c21ee-e61a-4077-b1f9-a48e95b70cf4",
      "resource": {
        "resourceType": "Procedure",
        "id": "506c21ee-e61a-4077-b1f9-a48e95b70cf4",
        "meta": {
          "profile": [
            "http://hl7.org/fhir/uv/ips/StructureDefinition/Procedure-uv-ips"
          ]
        },
        "code": {
          "coding": [
            {
              "code": "312681000",
              "system": "http://snomed.info/sct",
              "display": "Bone density scan (procedure)"
            }
          ],
          "text": "Bone density scan"
        },
        "reasonCode": [
          {
            "coding": [
              {
                "code": "33737001",
                "system": "http://snomed.info/sct",
                "display": "Fracture of rib (disorder)"
              }
            ]
          }
        ],
        "status": "completed",
        "subject": {
          "reference": "Patient/2a09fa90-5c5b-4077-a1ad-30e788897fa0",
          "display": "Malachy Dodd"
        },
        "performedDateTime": "2023-01-09"
      }
    },
    {
      "fullUrl": "urn:uuid:af30d0e6-af71-4df0-bc9b-97c47364d297",
      "resource": {
        "resourceType": "Immunization",
        "id": "af30d0e6-af71-4df0-bc9b-97c47364d297",
        "meta": {
          "profile": [
            "http://hl7.org/fhir/uv/ips/StructureDefinition/Immunization-uv-ips"
          ]
        },
        "vaccineCode": {
          "coding": [
            {
              "code": "1181000221105",
              "system": "http://snomed.info/sct",
              "display": "Vaccine product containing Influenza virus antigen"
            },
            {
              "code": "J07BB02",
              "system": "http://www.whocc.no/atc",
              "display": "Influenza, inactivated, split virus"
            },
            {
              "code": "140",
              "system": "http://hl7.org/fhir/sid/cvx",
              "display": "Influenza  seasonal  injectable  preservative free"
            }
          ],
          "text": "Influenza virus antigen only vaccine product"
        },
        "site": {
          "coding": [
            {
              "code": "73776007",
              "system": "http://snomed.info/sct",
              "display": "Structure of muscle of upper arm"
            }
          ],
          "text": "Structure of muscle of upper arm"
        },
        "route": {
          "coding": [
            {
              "code": "78421000",
              "system": "http://snomed.info/sct",
              "display": "Intramuscular route"
            }
          ],
          "text": "Intramuscular route"
        },
        "status": "completed",
        "patient": {
          "reference": "Patient/2a09fa90-5c5b-4077-a1ad-30e788897fa0",
          "display": "Malachy Dodd"
        },
        "occurrenceDateTime": "2024-11-29",
        "lotNumber": "UI-1YOr5O7",
        "expirationDate": "2025-08-19"
      }
    },
    {
      "fullUrl": "urn:uuid:4f112f6f-fa03-45b3-9f7f-673902bd28d5",
      "resource": {
        "resourceType": "Immunization",
        "id": "4f112f6f-fa03-45b3-9f7f-673902bd28d5",
        "meta": {
          "profile": [
            "http://hl7.org/fhir/uv/ips/StructureDefinition/Immunization-uv-ips"
          ]
        },
        "vaccineCode": {
          "coding": [
            {
              "code": "1252709000",
              "system": "http://snomed.info/sct",
              "display": "Vaccine product containing Streptococcus pneumoniae capsular polysaccharide antigens conjugated"
            },
            {
              "code": "J07AL01",
              "system": "http://www.whocc.no/atc",
              "display": "Pneumococcal polysaccharide vaccines"
            },
            {
              "code": "33",
              "system": "http://hl7.org/fhir/sid/cvx",
              "display": "pneumococcal polysaccharide vaccine  23 valent"
            }
          ],
          "text": "Streptococcus pneumoniae Danish serotype 1"
        },
        "site": {
          "coding": [
            {
              "code": "73776007",
              "system": "http://snomed.info/sct",
              "display": "Structure of muscle of upper arm"
            }
          ],
          "text": "Structure of muscle of upper arm"
        },
        "route": {
          "coding": [
            {
              "code": "78421000",
              "system": "http://snomed.info/sct",
              "display": "Intramuscular route"
            }
          ],
          "text": "Intramuscular route"
        },
        "status": "completed",
        "patient": {
          "reference": "Patient/2a09fa90-5c5b-4077-a1ad-30e788897fa0",
          "display": "Malachy Dodd"
        },
        "occurrenceDateTime": "2021-11-12",
        "lotNumber": "EF-G6Uc",
        "expirationDate": "2022-03-29"
      }
    },
    {
      "fullUrl": "urn:uuid:f537258e-6b43-411a-97b0-6604e712faa6",
      "resource": {
        "resourceType": "Immunization",
        "id": "f537258e-6b43-411a-97b0-6604e712faa6",
        "meta": {
          "profile": [
            "http://hl7.org/fhir/uv/ips/StructureDefinition/Immunization-uv-ips"
          ]
        },
        "vaccineCode": {
          "coding": [
            {
              "code": "29061000087103",
              "system": "http://snomed.info/sct",
              "display": "Vaccine product containing recombinant viral vector encoding SARS-CoV-2 spike protein"
            },
            {
              "code": "J07BX03",
              "system": "http://www.whocc.no/atc",
              "display": "COVID-19 vector vaccines (non-replicating)"
            },
            {
              "code": "212",
              "system": "http://hl7.org/fhir/sid/cvx",
              "display": "COVID-19 vaccine  vector-nr  rS-Ad26  PF  0.5 mL"
            }
          ],
          "text": "COVID-19 non-replicating viral vector vaccine"
        },
        "site": {
          "coding": [
            {
              "code": "73776007",
              "system": "http://snomed.info/sct",
              "display": "Structure of muscle of upper arm"
            }
          ],
          "text": "Structure of muscle of upper arm"
        },
        "route": {
          "coding": [
            {
              "code": "78421000",
              "system": "http://snomed.info/sct",
              "display": "Intramuscular route"
            }
          ],
          "text": "Intramuscular route"
        },
        "status": "completed",
        "patient": {
          "reference": "Patient/2a09fa90-5c5b-4077-a1ad-30e788897fa0",
          "display": "Malachy Dodd"
        },
        "occurrenceDateTime": "2021-04-16",
        "lotNumber": "JB-6ujYXmA",
        "expirationDate": "2022-03-04"
      }
    },
    {
      "fullUrl": "urn:uuid:9c7d150d-424b-4f2a-aa4e-97e13ef71bb4",
      "resource": {
        "resourceType": "Immunization",
        "id": "9c7d150d-424b-4f2a-aa4e-97e13ef71bb4",
        "meta": {
          "profile": [
            "http://hl7.org/fhir/uv/ips/StructureDefinition/Immunization-uv-ips"
          ]
        },
        "vaccineCode": {
          "coding": [
            {
              "code": "51451000087105",
              "system": "http://snomed.info/sct",
              "display": "Vaccine product containing Streptococcus pneumoniae capsular polysaccharide antigens conjugated"
            },
            {
              "code": "J07AL02",
              "system": "http://www.whocc.no/atc",
              "display": "Pneumococcal conjugate vaccines"
            },
            {
              "code": "133",
              "system": "http://hl7.org/fhir/sid/cvx",
              "display": "Pneumococcal conjugate PCV 13"
            }
          ],
          "text": "Streptococcus pneumoniae Danish serotype 1"
        },
        "site": {
          "coding": [
            {
              "code": "73776007",
              "system": "http://snomed.info/sct",
              "display": "Structure of muscle of upper arm"
            }
          ],
          "text": "Structure of muscle of upper arm"
        },
        "route": {
          "coding": [
            {
              "code": "78421000",
              "system": "http://snomed.info/sct",
              "display": "Intramuscular route"
            }
          ],
          "text": "Intramuscular route"
        },
        "status": "completed",
        "patient": {
          "reference": "Patient/2a09fa90-5c5b-4077-a1ad-30e788897fa0",
          "display": "Malachy Dodd"
        },
        "occurrenceDateTime": "2020-11-06",
        "lotNumber": "EU-w3xjw",
        "expirationDate": "2020-12-24"
      }
    },
    {
      "fullUrl": "urn:uuid:da82e93b-4df1-4fe5-860c-590c5b7ae67b",
      "resource": {
        "resourceType": "Immunization",
        "id": "da82e93b-4df1-4fe5-860c-590c5b7ae67b",
        "meta": {
          "profile": [
            "http://hl7.org/fhir/uv/ips/StructureDefinition/Immunization-uv-ips"
          ]
        },
        "vaccineCode": {
          "coding": [
            {
              "code": "777725002",
              "system": "http://snomed.info/sct",
              "display": "Vaccine product containing only Clostridium tetani toxoid antigen adsorbed"
            },
            {
              "code": "J07AM51",
              "system": "http://www.whocc.no/atc",
              "display": "Diphtheria-tetanus vaccines, adult type"
            },
            {
              "code": "113",
              "system": "http://hl7.org/fhir/sid/cvx",
              "display": "Td (adult)  5 Lf tetanus toxoid  preservative free  adsorbed"
            }
          ],
          "text": "Clostridium tetani toxoid antigen adsorbed only vaccine product"
        },
        "site": {
          "coding": [
            {
              "code": "73776007",
              "system": "http://snomed.info/sct",
              "display": "Structure of muscle of upper arm"
            }
          ],
          "text": "Structure of muscle of upper arm"
        },
        "route": {
          "coding": [
            {
              "code": "78421000",
              "system": "http://snomed.info/sct",
              "display": "Intramuscular route"
            }
          ],
          "text": "Intramuscular route"
        },
        "status": "completed",
        "patient": {
          "reference": "Patient/2a09fa90-5c5b-4077-a1ad-30e788897fa0",
          "display": "Malachy Dodd"
        },
        "occurrenceDateTime": "2016-10-14",
        "lotNumber": "DD-z5CsR4",
        "expirationDate": "2017-10-09"
      }
    }
  ],
  "type": "document",
  "timestamp": "2025-06-17T11:26:49Z"
}
