{
  "resourceType": "Bundle",
  "id": "Instance-Bundle-1c266539-10a6-449e-814e-e93332323066",
  "meta": {
    "profile": [
      "http://hl7.eu/fhir/eps/StructureDefinition/bundle-eu-eps"
    ]
  },
  "identifier": {
    "assigner": {
      "display": "HL7 Europe"
    },
    "system": "urn:oid:2.16.840.1.113883.2.51.999",
    "value": "715d0f0a-8cdb-4358-a61f-bf0f8280aa64"
  },
  "entry": [
    {
      "fullUrl": "urn:uuid:a0148adf-f761-442b-9744-7b7a9144d6af",
      "resource": {
        "resourceType": "Composition",
        "id": "a0148adf-f761-442b-9744-7b7a9144d6af",
        "meta": {
          "profile": [
            "http://hl7.eu/fhir/eps/StructureDefinition/composition-eu-eps"
          ]
        },
        "identifier": {
          "assigner": {
            "display": "HL7 Europe"
          },
          "system": "urn:oid:2.16.840.1.113883.2.51.999",
          "value": "afea798f-7e74-43c4-8ccf-1f2ce3bc0b90"
        },
        "type": {
          "coding": [
            {
              "system": "http://loinc.org",
              "code": "60591-5",
              "display": "European Patient Summary"
            }
          ],
          "text": "European Patient Summary"
        },
        "author": [
          {
            "reference": "urn:uuid:1efba4d3-7f03-4dd0-9bd2-7330ca7ab16d"
          }
        ],
        "section": [
          {
            "text": {
              "status": "generated",
              "div": "<div xmlns=\"http://www.w3.org/1999/xhtml\"><table class=\"hl7__ips\"><tr><th>Condition</th><th>Onset Date</th><th>Status</th></tr><tr><td>Acute ST segment elevation myocardial infarction</td><td><span class=\"nb\">2015-02-21</span></td><td>active</td></tr><tr><td>Ischemic heart disease</td><td><span class=\"nb\">2014-07-18</span></td><td>active</td></tr><tr><td>Metabolic syndrome X</td><td><span class=\"nb\">2005-05-27</span></td><td>active</td></tr><tr><td>Hypertriglyceridemia</td><td><span class=\"nb\">2005-05-27</span></td><td>active</td></tr><tr><td>Neuropathy due to type 2 diabetes mellitus</td><td><span class=\"nb\">2005-05-27</span></td><td>active</td></tr><tr><td>Type 2 diabetes mellitus</td><td><span class=\"nb\">2004-05-21</span></td><td>active</td></tr><tr><td>Essential hypertension</td><td><span class=\"nb\">2001-05-04</span></td><td>active</td></tr><tr><td>Hyperlipidemia</td><td><span class=\"nb\">1991-04-19</span></td><td>active</td></tr><tr><td>Chronic sinusitis</td><td><span class=\"nb\">1990-05-12</span></td><td>active</td></tr><tr><td>Anemia</td><td><span class=\"nb\">1976-06-11</span></td><td>active</td></tr><tr><td><span class=\"grayedout\">Primary dental caries</span></td><td><span class=\"nb\">2024-09-27</span></td><td><span class=\"grayedout\">inactive</span></td></tr><tr><td><span class=\"grayedout\">Gingivitis</span></td><td><span class=\"nb\">2022-09-02</span></td><td><span class=\"grayedout\">inactive</span></td></tr><tr><td><span class=\"grayedout\">COVID-19</span></td><td><span class=\"nb\">2020-08-31</span></td><td><span class=\"grayedout\">inactive</span></td></tr><tr><td><span class=\"grayedout\">Gingivitis</span></td><td><span class=\"nb\">2020-08-21</span></td><td><span class=\"grayedout\">inactive</span></td></tr><tr><td><span class=\"grayedout\">Viral sinusitis</span></td><td><span class=\"nb\">2015-07-07</span></td><td><span class=\"grayedout\">inactive</span></td></tr></table></div>"
            },
            "entry": [
              {
                "reference": "urn:uuid:d29dba83-f92c-45b6-98b9-e0d99b53d401"
              },
              {
                "reference": "urn:uuid:59407eed-28d2-45f8-86e7-1cb2836fdccb"
              },
              {
                "reference": "urn:uuid:34f08332-2535-4df2-9dba-33d7f808442d"
              },
              {
                "reference": "urn:uuid:326d4cad-e816-488c-9727-9832501ea1b4"
              },
              {
                "reference": "urn:uuid:f988e723-7206-4f80-a08d-b8ec6e5f16a3"
              },
              {
                "reference": "urn:uuid:cae04082-f052-4bbc-8b5c-864c90bcfa2a"
              },
              {
                "reference": "urn:uuid:217604a7-515e-4f21-81c6-15153b2d00af"
              },
              {
                "reference": "urn:uuid:15cc4809-a69d-4d82-81a0-ac406befed6b"
              },
              {
                "reference": "urn:uuid:55bfcde4-0e05-4f82-8923-c8c1fe1db5e0"
              },
              {
                "reference": "urn:uuid:7e13c92a-94ec-41de-ae00-2394310079e3"
              },
              {
                "reference": "urn:uuid:026e3247-8a05-49be-bb09-70d4355f02a0"
              },
              {
                "reference": "urn:uuid:da4d5254-4906-40c8-a902-88cfa0af9baa"
              },
              {
                "reference": "urn:uuid:3fa5d86d-870b-4be6-871d-4b65871b6514"
              },
              {
                "reference": "urn:uuid:eb7ec919-b65d-4dbb-b967-013288647b08"
              },
              {
                "reference": "urn:uuid:84011bb3-6a1c-4c7a-8bc3-9811910d1924"
              }
            ],
            "code": {
              "coding": [
                {
                  "system": "http://loinc.org",
                  "code": "11450-4",
                  "display": "Problem list - Reported"
                }
              ]
            },
            "title": "Problem list"
          },
          {
            "text": {
              "status": "generated",
              "div": "<div xmlns=\"http://www.w3.org/1999/xhtml\"><table class=\"hl7__ips\"><tr><th>Medication</th><th>Since</th><th>Form</th><th>Dosage</th><th>Reason</th></tr><tr><td>Simvastatin 10 mg oral tablet</td><td><span class=\"nb\">2024-09-14</span></td><td>Oral tablet</td><td>1 tablet (10 mg) by mouth once daily</td><td>Hyperlipidemia (disorder)</td></tr><tr><td>Amlodipine (as amlodipine besylate) 2.5 mg oral tablet</td><td><span class=\"nb\">2024-09-13</span></td><td>Oral tablet</td><td>1 tablet (2.5 mg) by mouth once daily</td><td>Essential hypertension (disorder)</td></tr><tr><td>Hydrochlorothiazide 25 mg oral tablet</td><td><span class=\"nb\">2024-09-13</span></td><td>Oral tablet</td><td>1 tablet (25 mg) by mouth once daily</td><td>Essential hypertension (disorder)</td></tr><tr><td>Carvedilol 6.25 mg oral tablet</td><td><span class=\"nb\">2015-02-21</span></td><td>Oral tablet</td><td>1 tablet (6.25 mg) by mouth twice daily</td><td></td></tr><tr><td>aspirin 81 MG Oral Tablet</td><td><span class=\"nb\">2015-02-21</span></td><td></td><td>1 tablet (81 mg) by mouth once daily</td><td></td></tr><tr><td>Atorvastatin (as atorvastatin calcium) 40 mg oral tablet</td><td><span class=\"nb\">2015-02-21</span></td><td>Oral tablet</td><td>1 tablet (40 mg) by mouth once daily</td><td></td></tr><tr><td>Enalapril maleate 10 mg oral tablet</td><td><span class=\"nb\">2015-02-21</span></td><td>Oral tablet</td><td>1 tablet (10 mg) by mouth once daily</td><td></td></tr><tr><td>Vitamin B12 5 MG/ML Injectable Solution</td><td><span class=\"nb\">1976-06-18</span></td><td></td><td>5 mg (1 mL) intramuscularly once monthly</td><td></td></tr><tr><td>Hydrocortisone 10 mg/g and urea 100 mg/g cutaneous cream</td><td><span class=\"nb\">1965-06-20</span></td><td>Cutaneous cream</td><td>Apply a thin layer (containing 10 mg/g hydrocortisone and 100 mg/g urea) to the affected area twice daily</td><td>Contact dermatitis (disorder)</td></tr></table></div>"
            },
            "entry": [
              {
                "reference": "urn:uuid:6dd215a9-e335-483d-9cd1-90d1ca0a622b"
              },
              {
                "reference": "urn:uuid:7855c5ab-b1a0-4f76-a655-181f5ddc1290"
              },
              {
                "reference": "urn:uuid:abdd3923-7401-4157-acd7-69746de86087"
              },
              {
                "reference": "urn:uuid:a02ffb13-e48a-4ab1-b8b5-e2f27287a9c9"
              },
              {
                "reference": "urn:uuid:920ffd8a-b040-4c36-ade2-9489392e93d1"
              },
              {
                "reference": "urn:uuid:2662fa14-4314-446b-af59-0bd0de246666"
              },
              {
                "reference": "urn:uuid:504b583b-f5b1-4ee0-a03b-726baf5d780b"
              },
              {
                "reference": "urn:uuid:e2383bf3-e8e0-4bee-a01c-64c0572217d1"
              },
              {
                "reference": "urn:uuid:4e4040cc-2cd2-4cb3-b28d-334669e2d7bf"
              }
            ],
            "code": {
              "coding": [
                {
                  "system": "http://loinc.org",
                  "code": "10160-0",
                  "display": "History of Medication use Narrative"
                }
              ]
            },
            "title": "Medication list"
          },
          {
            "text": {
              "status": "generated",
              "div": "<div xmlns=\"http://www.w3.org/1999/xhtml\"><table class=\"hl7__ips\"><tr><th>Allergy/Intolerance</th><th>Onset Date</th><th>Status</th><th>Type</th><th>Reaction</th></tr><tr><td>Allergic disposition</td><td><span class=\"nb\">1965-07-03</span></td><td>active</td><td>environment</td><td></td></tr></table></div>"
            },
            "entry": [
              {
                "reference": "urn:uuid:ddd4c83f-1996-4cdf-9036-a55b3f44ad4e"
              }
            ],
            "code": {
              "coding": [
                {
                  "system": "http://loinc.org",
                  "code": "48765-2",
                  "display": "Allergies and adverse reactions Document"
                }
              ]
            },
            "title": "Allergies and Intolerances"
          },
          {
            "text": {
              "status": "generated",
              "div": "<div xmlns=\"http://www.w3.org/1999/xhtml\"><table class=\"hl7__ips\"><tr><th>Procedure</th><th>Date</th><th>Reason</th></tr><tr><td>Referral to home health care service</td><td><span class=\"nb\">2018-04-06</span></td><td>-</td></tr></table></div>"
            },
            "entry": [
              {
                "reference": "urn:uuid:f3131781-f3ac-432b-bb2d-89dcb6911b6c"
              }
            ],
            "code": {
              "coding": [
                {
                  "system": "http://loinc.org",
                  "code": "47519-4",
                  "display": "History of Procedures Document"
                }
              ]
            },
            "title": "Procedure History list"
          },
          {
            "text": {
              "status": "generated",
              "div": "<div xmlns=\"http://www.w3.org/1999/xhtml\"><table class=\"hl7__ips\"><tr><th>Vaccine</th><th>Date</th></tr><tr><td>Influenza virus antigen only vaccine product</td><td><span class=\"nb\">2024-09-13</span></td></tr><tr><td>SARS-CoV-2 mRNA vaccine</td><td><span class=\"nb\">2021-04-23</span></td></tr><tr><td>Clostridium tetani toxoid antigen adsorbed only vaccine product</td><td><span class=\"nb\">2016-07-29</span></td></tr></table></div>"
            },
            "entry": [
              {
                "reference": "urn:uuid:244d1c66-4877-4550-baeb-0abc790e9f77"
              },
              {
                "reference": "urn:uuid:a735e0ad-c9eb-4412-a178-ea7a99cee389"
              },
              {
                "reference": "urn:uuid:d302b7e1-1a06-4396-b65f-d924abfc13fe"
              }
            ],
            "code": {
              "coding": [
                {
                  "system": "http://loinc.org",
                  "code": "11369-6",
                  "display": "History of Immunization Narrative"
                }
              ]
            },
            "title": "Immunizations list"
          }
        ],
        "title": "European Patient Summary",
        "status": "final",
        "subject": {
          "reference": "urn:uuid:602458ae-10bb-4043-bb86-398ca76326de"
        },
        "custodian": {
          "reference": "urn:uuid:5574fe1f-4393-4dac-9d7b-4b9dec39d422"
        },
        "date": "2025-06-17T11:26:49Z",
        "confidentiality": "N"
      }
    },
    {
      "fullUrl": "urn:uuid:602458ae-10bb-4043-bb86-398ca76326de",
      "resource": {
        "resourceType": "Patient",
        "id": "602458ae-10bb-4043-bb86-398ca76326de",
        "meta": {
          "profile": [
            "http://hl7.eu/fhir/eps/StructureDefinition/patient-eu-eps"
          ]
        },
        "identifier": [
          {
            "type": {
              "coding": [
                {
                  "code": "NI",
                  "system": "http://terminology.hl7.org/CodeSystem/v2-0203"
                }
              ]
            },
            "system": "http://ec.europa.eu/identifier/eci",
            "value": "1380-437420-8"
          },
          {
            "type": {
              "coding": [
                {
                  "code": "MR",
                  "system": "http://terminology.hl7.org/CodeSystem/v2-0203"
                }
              ]
            },
            "system": "http://local.setting.eu/identifier",
            "value": "8b3c98b0-2c6a-fcd2-b8a8-e4d1966d72ae"
          }
        ],
        "name": [
          {
            "given": [
              "Ludwig"
            ],
            "family": "Hedlund",
            "text": "Ludwig Hedlund"
          }
        ],
        "address": [
          {
            "line": [
              "Djursbo 24"
            ],
            "use": "home",
            "type": "physical",
            "city": "Näsviken",
            "postalCode": "820 64",
            "country": "Sweden"
          }
        ],
        "telecom": [
          {
            "system": "phone",
            "value": "+46 0650-6305261"
          }
        ],
        "gender": "male",
        "birthDate": "1950-03-02"
      }
    },
    {
      "fullUrl": "urn:uuid:1efba4d3-7f03-4dd0-9bd2-7330ca7ab16d",
      "resource": {
        "resourceType": "PractitionerRole",
        "id": "1efba4d3-7f03-4dd0-9bd2-7330ca7ab16d",
        "meta": {
          "profile": [
            "http://hl7.eu/fhir/base/StructureDefinition/practitionerRole-eu"
          ]
        },
        "practitioner": {
          "reference": "urn:uuid:409ddd5d-91da-48df-bea5-4aa9256e1158"
        },
        "organization": {
          "reference": "urn:uuid:5574fe1f-4393-4dac-9d7b-4b9dec39d422"
        }
      }
    },
    {
      "fullUrl": "urn:uuid:409ddd5d-91da-48df-bea5-4aa9256e1158",
      "resource": {
        "resourceType": "Practitioner",
        "id": "409ddd5d-91da-48df-bea5-4aa9256e1158",
        "meta": {
          "profile": [
            "http://hl7.eu/fhir/base/StructureDefinition/practitioner-eu"
          ]
        },
        "name": [
          {
            "prefix": [
              "Dr."
            ],
            "given": [
              "Hel"
            ],
            "family": "Ping"
          }
        ]
      }
    },
    {
      "fullUrl": "urn:uuid:d29dba83-f92c-45b6-98b9-e0d99b53d401",
      "resource": {
        "resourceType": "Condition",
        "id": "d29dba83-f92c-45b6-98b9-e0d99b53d401",
        "meta": {
          "profile": [
            "http://hl7.org/fhir/uv/ips/StructureDefinition/Condition-uv-ips"
          ]
        },
        "category": [
          {
            "coding": [
              {
                "code": "problem-list-item",
                "system": "http://terminology.hl7.org/CodeSystem/condition-category",
                "display": "Problem List Item"
              }
            ]
          }
        ],
        "code": {
          "coding": [
            {
              "code": "401303003",
              "system": "http://snomed.info/sct",
              "display": "Acute ST segment elevation myocardial infarction (disorder)"
            }
          ],
          "text": "Acute ST segment elevation myocardial infarction"
        },
        "onsetDateTime": "2015-02-21",
        "clinicalStatus": {
          "coding": [
            {
              "code": "active",
              "system": "http://terminology.hl7.org/CodeSystem/condition-clinical"
            }
          ]
        },
        "subject": {
          "reference": "Patient/602458ae-10bb-4043-bb86-398ca76326de",
          "display": "Ludwig Hedlund"
        },
        "asserter": {
          "reference": "Practitioner/409ddd5d-91da-48df-bea5-4aa9256e1158",
          "display": "Dr. Hel Ping"
        }
      }
    },
    {
      "fullUrl": "urn:uuid:59407eed-28d2-45f8-86e7-1cb2836fdccb",
      "resource": {
        "resourceType": "Condition",
        "id": "59407eed-28d2-45f8-86e7-1cb2836fdccb",
        "meta": {
          "profile": [
            "http://hl7.org/fhir/uv/ips/StructureDefinition/Condition-uv-ips"
          ]
        },
        "category": [
          {
            "coding": [
              {
                "code": "problem-list-item",
                "system": "http://terminology.hl7.org/CodeSystem/condition-category",
                "display": "Problem List Item"
              }
            ]
          }
        ],
        "code": {
          "coding": [
            {
              "code": "414545008",
              "system": "http://snomed.info/sct",
              "display": "Ischemic heart disease (disorder)"
            }
          ],
          "text": "Ischemic heart disease"
        },
        "onsetDateTime": "2014-07-18",
        "clinicalStatus": {
          "coding": [
            {
              "code": "active",
              "system": "http://terminology.hl7.org/CodeSystem/condition-clinical"
            }
          ]
        },
        "subject": {
          "reference": "Patient/602458ae-10bb-4043-bb86-398ca76326de",
          "display": "Ludwig Hedlund"
        },
        "asserter": {
          "reference": "Practitioner/409ddd5d-91da-48df-bea5-4aa9256e1158",
          "display": "Dr. Hel Ping"
        }
      }
    },
    {
      "fullUrl": "urn:uuid:34f08332-2535-4df2-9dba-33d7f808442d",
      "resource": {
        "resourceType": "Condition",
        "id": "34f08332-2535-4df2-9dba-33d7f808442d",
        "meta": {
          "profile": [
            "http://hl7.org/fhir/uv/ips/StructureDefinition/Condition-uv-ips"
          ]
        },
        "category": [
          {
            "coding": [
              {
                "code": "problem-list-item",
                "system": "http://terminology.hl7.org/CodeSystem/condition-category",
                "display": "Problem List Item"
              }
            ]
          }
        ],
        "code": {
          "coding": [
            {
              "code": "237602007",
              "system": "http://snomed.info/sct",
              "display": "Metabolic syndrome X (disorder)"
            }
          ],
          "text": "Metabolic syndrome X"
        },
        "onsetDateTime": "2005-05-27",
        "clinicalStatus": {
          "coding": [
            {
              "code": "active",
              "system": "http://terminology.hl7.org/CodeSystem/condition-clinical"
            }
          ]
        },
        "subject": {
          "reference": "Patient/602458ae-10bb-4043-bb86-398ca76326de",
          "display": "Ludwig Hedlund"
        },
        "asserter": {
          "reference": "Practitioner/409ddd5d-91da-48df-bea5-4aa9256e1158",
          "display": "Dr. Hel Ping"
        }
      }
    },
    {
      "fullUrl": "urn:uuid:326d4cad-e816-488c-9727-9832501ea1b4",
      "resource": {
        "resourceType": "Condition",
        "id": "326d4cad-e816-488c-9727-9832501ea1b4",
        "meta": {
          "profile": [
            "http://hl7.org/fhir/uv/ips/StructureDefinition/Condition-uv-ips"
          ]
        },
        "category": [
          {
            "coding": [
              {
                "code": "problem-list-item",
                "system": "http://terminology.hl7.org/CodeSystem/condition-category",
                "display": "Problem List Item"
              }
            ]
          }
        ],
        "code": {
          "coding": [
            {
              "code": "302870006",
              "system": "http://snomed.info/sct",
              "display": "Hypertriglyceridemia (disorder)"
            }
          ],
          "text": "Hypertriglyceridemia"
        },
        "onsetDateTime": "2005-05-27",
        "clinicalStatus": {
          "coding": [
            {
              "code": "active",
              "system": "http://terminology.hl7.org/CodeSystem/condition-clinical"
            }
          ]
        },
        "subject": {
          "reference": "Patient/602458ae-10bb-4043-bb86-398ca76326de",
          "display": "Ludwig Hedlund"
        },
        "asserter": {
          "reference": "Practitioner/409ddd5d-91da-48df-bea5-4aa9256e1158",
          "display": "Dr. Hel Ping"
        }
      }
    },
    {
      "fullUrl": "urn:uuid:f988e723-7206-4f80-a08d-b8ec6e5f16a3",
      "resource": {
        "resourceType": "Condition",
        "id": "f988e723-7206-4f80-a08d-b8ec6e5f16a3",
        "meta": {
          "profile": [
            "http://hl7.org/fhir/uv/ips/StructureDefinition/Condition-uv-ips"
          ]
        },
        "category": [
          {
            "coding": [
              {
                "code": "problem-list-item",
                "system": "http://terminology.hl7.org/CodeSystem/condition-category",
                "display": "Problem List Item"
              }
            ]
          }
        ],
        "code": {
          "coding": [
            {
              "code": "368581000119106",
              "system": "http://snomed.info/sct",
              "display": "Neuropathy due to type 2 diabetes mellitus (disorder)"
            }
          ],
          "text": "Neuropathy due to type 2 diabetes mellitus"
        },
        "onsetDateTime": "2005-05-27",
        "clinicalStatus": {
          "coding": [
            {
              "code": "active",
              "system": "http://terminology.hl7.org/CodeSystem/condition-clinical"
            }
          ]
        },
        "subject": {
          "reference": "Patient/602458ae-10bb-4043-bb86-398ca76326de",
          "display": "Ludwig Hedlund"
        },
        "asserter": {
          "reference": "Practitioner/409ddd5d-91da-48df-bea5-4aa9256e1158",
          "display": "Dr. Hel Ping"
        }
      }
    },
    {
      "fullUrl": "urn:uuid:cae04082-f052-4bbc-8b5c-864c90bcfa2a",
      "resource": {
        "resourceType": "Condition",
        "id": "cae04082-f052-4bbc-8b5c-864c90bcfa2a",
        "meta": {
          "profile": [
            "http://hl7.org/fhir/uv/ips/StructureDefinition/Condition-uv-ips"
          ]
        },
        "category": [
          {
            "coding": [
              {
                "code": "problem-list-item",
                "system": "http://terminology.hl7.org/CodeSystem/condition-category",
                "display": "Problem List Item"
              }
            ]
          }
        ],
        "code": {
          "coding": [
            {
              "code": "44054006",
              "system": "http://snomed.info/sct",
              "display": "Diabetes mellitus type 2 (disorder)"
            }
          ],
          "text": "Type 2 diabetes mellitus"
        },
        "onsetDateTime": "2004-05-21",
        "clinicalStatus": {
          "coding": [
            {
              "code": "active",
              "system": "http://terminology.hl7.org/CodeSystem/condition-clinical"
            }
          ]
        },
        "subject": {
          "reference": "Patient/602458ae-10bb-4043-bb86-398ca76326de",
          "display": "Ludwig Hedlund"
        },
        "asserter": {
          "reference": "Practitioner/409ddd5d-91da-48df-bea5-4aa9256e1158",
          "display": "Dr. Hel Ping"
        }
      }
    },
    {
      "fullUrl": "urn:uuid:217604a7-515e-4f21-81c6-15153b2d00af",
      "resource": {
        "resourceType": "Condition",
        "id": "217604a7-515e-4f21-81c6-15153b2d00af",
        "meta": {
          "profile": [
            "http://hl7.org/fhir/uv/ips/StructureDefinition/Condition-uv-ips"
          ]
        },
        "category": [
          {
            "coding": [
              {
                "code": "problem-list-item",
                "system": "http://terminology.hl7.org/CodeSystem/condition-category",
                "display": "Problem List Item"
              }
            ]
          }
        ],
        "code": {
          "coding": [
            {
              "code": "59621000",
              "system": "http://snomed.info/sct",
              "display": "Essential hypertension (disorder)"
            }
          ],
          "text": "Essential hypertension"
        },
        "onsetDateTime": "2001-05-04",
        "clinicalStatus": {
          "coding": [
            {
              "code": "active",
              "system": "http://terminology.hl7.org/CodeSystem/condition-clinical"
            }
          ]
        },
        "subject": {
          "reference": "Patient/602458ae-10bb-4043-bb86-398ca76326de",
          "display": "Ludwig Hedlund"
        },
        "asserter": {
          "reference": "Practitioner/409ddd5d-91da-48df-bea5-4aa9256e1158",
          "display": "Dr. Hel Ping"
        }
      }
    },
    {
      "fullUrl": "urn:uuid:15cc4809-a69d-4d82-81a0-ac406befed6b",
      "resource": {
        "resourceType": "Condition",
        "id": "15cc4809-a69d-4d82-81a0-ac406befed6b",
        "meta": {
          "profile": [
            "http://hl7.org/fhir/uv/ips/StructureDefinition/Condition-uv-ips"
          ]
        },
        "category": [
          {
            "coding": [
              {
                "code": "problem-list-item",
                "system": "http://terminology.hl7.org/CodeSystem/condition-category",
                "display": "Problem List Item"
              }
            ]
          }
        ],
        "code": {
          "coding": [
            {
              "code": "55822004",
              "system": "http://snomed.info/sct",
              "display": "Hyperlipidemia (disorder)"
            }
          ],
          "text": "Hyperlipidemia"
        },
        "onsetDateTime": "1991-04-19",
        "clinicalStatus": {
          "coding": [
            {
              "code": "active",
              "system": "http://terminology.hl7.org/CodeSystem/condition-clinical"
            }
          ]
        },
        "subject": {
          "reference": "Patient/602458ae-10bb-4043-bb86-398ca76326de",
          "display": "Ludwig Hedlund"
        },
        "asserter": {
          "reference": "Practitioner/409ddd5d-91da-48df-bea5-4aa9256e1158",
          "display": "Dr. Hel Ping"
        }
      }
    },
    {
      "fullUrl": "urn:uuid:55bfcde4-0e05-4f82-8923-c8c1fe1db5e0",
      "resource": {
        "resourceType": "Condition",
        "id": "55bfcde4-0e05-4f82-8923-c8c1fe1db5e0",
        "meta": {
          "profile": [
            "http://hl7.org/fhir/uv/ips/StructureDefinition/Condition-uv-ips"
          ]
        },
        "category": [
          {
            "coding": [
              {
                "code": "problem-list-item",
                "system": "http://terminology.hl7.org/CodeSystem/condition-category",
                "display": "Problem List Item"
              }
            ]
          }
        ],
        "code": {
          "coding": [
            {
              "code": "40055000",
              "system": "http://snomed.info/sct",
              "display": "Chronic sinusitis (disorder)"
            }
          ],
          "text": "Chronic sinusitis"
        },
        "onsetDateTime": "1990-05-12",
        "clinicalStatus": {
          "coding": [
            {
              "code": "active",
              "system": "http://terminology.hl7.org/CodeSystem/condition-clinical"
            }
          ]
        },
        "subject": {
          "reference": "Patient/602458ae-10bb-4043-bb86-398ca76326de",
          "display": "Ludwig Hedlund"
        },
        "asserter": {
          "reference": "Practitioner/409ddd5d-91da-48df-bea5-4aa9256e1158",
          "display": "Dr. Hel Ping"
        }
      }
    },
    {
      "fullUrl": "urn:uuid:7e13c92a-94ec-41de-ae00-2394310079e3",
      "resource": {
        "resourceType": "Condition",
        "id": "7e13c92a-94ec-41de-ae00-2394310079e3",
        "meta": {
          "profile": [
            "http://hl7.org/fhir/uv/ips/StructureDefinition/Condition-uv-ips"
          ]
        },
        "category": [
          {
            "coding": [
              {
                "code": "problem-list-item",
                "system": "http://terminology.hl7.org/CodeSystem/condition-category",
                "display": "Problem List Item"
              }
            ]
          }
        ],
        "code": {
          "coding": [
            {
              "code": "271737000",
              "system": "http://snomed.info/sct",
              "display": "Anemia (disorder)"
            }
          ],
          "text": "Anemia"
        },
        "onsetDateTime": "1976-06-11",
        "clinicalStatus": {
          "coding": [
            {
              "code": "active",
              "system": "http://terminology.hl7.org/CodeSystem/condition-clinical"
            }
          ]
        },
        "subject": {
          "reference": "Patient/602458ae-10bb-4043-bb86-398ca76326de",
          "display": "Ludwig Hedlund"
        },
        "asserter": {
          "reference": "Practitioner/409ddd5d-91da-48df-bea5-4aa9256e1158",
          "display": "Dr. Hel Ping"
        }
      }
    },
    {
      "fullUrl": "urn:uuid:026e3247-8a05-49be-bb09-70d4355f02a0",
      "resource": {
        "resourceType": "Condition",
        "id": "026e3247-8a05-49be-bb09-70d4355f02a0",
        "meta": {
          "profile": [
            "http://hl7.org/fhir/uv/ips/StructureDefinition/Condition-uv-ips"
          ]
        },
        "category": [
          {
            "coding": [
              {
                "code": "problem-list-item",
                "system": "http://terminology.hl7.org/CodeSystem/condition-category",
                "display": "Problem List Item"
              }
            ]
          }
        ],
        "code": {
          "coding": [
            {
              "code": "109570002",
              "system": "http://snomed.info/sct",
              "display": "Primary dental caries (disorder)"
            }
          ],
          "text": "Primary dental caries"
        },
        "onsetDateTime": "2024-09-27",
        "clinicalStatus": {
          "coding": [
            {
              "code": "inactive",
              "system": "http://terminology.hl7.org/CodeSystem/condition-clinical"
            }
          ]
        },
        "subject": {
          "reference": "Patient/602458ae-10bb-4043-bb86-398ca76326de",
          "display": "Ludwig Hedlund"
        },
        "asserter": {
          "reference": "Practitioner/409ddd5d-91da-48df-bea5-4aa9256e1158",
          "display": "Dr. Hel Ping"
        }
      }
    },
    {
      "fullUrl": "urn:uuid:da4d5254-4906-40c8-a902-88cfa0af9baa",
      "resource": {
        "resourceType": "Condition",
        "id": "da4d5254-4906-40c8-a902-88cfa0af9baa",
        "meta": {
          "profile": [
            "http://hl7.org/fhir/uv/ips/StructureDefinition/Condition-uv-ips"
          ]
        },
        "category": [
          {
            "coding": [
              {
                "code": "problem-list-item",
                "system": "http://terminology.hl7.org/CodeSystem/condition-category",
                "display": "Problem List Item"
              }
            ]
          }
        ],
        "code": {
          "coding": [
            {
              "code": "66383009",
              "system": "http://snomed.info/sct",
              "display": "Gingivitis (disorder)"
            }
          ],
          "text": "Gingivitis"
        },
        "onsetDateTime": "2022-09-02",
        "clinicalStatus": {
          "coding": [
            {
              "code": "inactive",
              "system": "http://terminology.hl7.org/CodeSystem/condition-clinical"
            }
          ]
        },
        "subject": {
          "reference": "Patient/602458ae-10bb-4043-bb86-398ca76326de",
          "display": "Ludwig Hedlund"
        },
        "asserter": {
          "reference": "Practitioner/409ddd5d-91da-48df-bea5-4aa9256e1158",
          "display": "Dr. Hel Ping"
        }
      }
    },
    {
      "fullUrl": "urn:uuid:3fa5d86d-870b-4be6-871d-4b65871b6514",
      "resource": {
        "resourceType": "Condition",
        "id": "3fa5d86d-870b-4be6-871d-4b65871b6514",
        "meta": {
          "profile": [
            "http://hl7.org/fhir/uv/ips/StructureDefinition/Condition-uv-ips"
          ]
        },
        "category": [
          {
            "coding": [
              {
                "code": "problem-list-item",
                "system": "http://terminology.hl7.org/CodeSystem/condition-category",
                "display": "Problem List Item"
              }
            ]
          }
        ],
        "code": {
          "coding": [
            {
              "code": "840539006",
              "system": "http://snomed.info/sct",
              "display": "Disease caused by severe acute respiratory syndrome coronavirus 2 (disorder)"
            }
          ],
          "text": "COVID-19"
        },
        "onsetDateTime": "2020-08-31",
        "clinicalStatus": {
          "coding": [
            {
              "code": "inactive",
              "system": "http://terminology.hl7.org/CodeSystem/condition-clinical"
            }
          ]
        },
        "subject": {
          "reference": "Patient/602458ae-10bb-4043-bb86-398ca76326de",
          "display": "Ludwig Hedlund"
        },
        "asserter": {
          "reference": "Practitioner/409ddd5d-91da-48df-bea5-4aa9256e1158",
          "display": "Dr. Hel Ping"
        }
      }
    },
    {
      "fullUrl": "urn:uuid:eb7ec919-b65d-4dbb-b967-013288647b08",
      "resource": {
        "resourceType": "Condition",
        "id": "eb7ec919-b65d-4dbb-b967-013288647b08",
        "meta": {
          "profile": [
            "http://hl7.org/fhir/uv/ips/StructureDefinition/Condition-uv-ips"
          ]
        },
        "category": [
          {
            "coding": [
              {
                "code": "problem-list-item",
                "system": "http://terminology.hl7.org/CodeSystem/condition-category",
                "display": "Problem List Item"
              }
            ]
          }
        ],
        "code": {
          "coding": [
            {
              "code": "66383009",
              "system": "http://snomed.info/sct",
              "display": "Gingivitis (disorder)"
            }
          ],
          "text": "Gingivitis"
        },
        "onsetDateTime": "2020-08-21",
        "clinicalStatus": {
          "coding": [
            {
              "code": "inactive",
              "system": "http://terminology.hl7.org/CodeSystem/condition-clinical"
            }
          ]
        },
        "subject": {
          "reference": "Patient/602458ae-10bb-4043-bb86-398ca76326de",
          "display": "Ludwig Hedlund"
        },
        "asserter": {
          "reference": "Practitioner/409ddd5d-91da-48df-bea5-4aa9256e1158",
          "display": "Dr. Hel Ping"
        }
      }
    },
    {
      "fullUrl": "urn:uuid:84011bb3-6a1c-4c7a-8bc3-9811910d1924",
      "resource": {
        "resourceType": "Condition",
        "id": "84011bb3-6a1c-4c7a-8bc3-9811910d1924",
        "meta": {
          "profile": [
            "http://hl7.org/fhir/uv/ips/StructureDefinition/Condition-uv-ips"
          ]
        },
        "category": [
          {
            "coding": [
              {
                "code": "problem-list-item",
                "system": "http://terminology.hl7.org/CodeSystem/condition-category",
                "display": "Problem List Item"
              }
            ]
          }
        ],
        "code": {
          "coding": [
            {
              "code": "444814009",
              "system": "http://snomed.info/sct",
              "display": "Viral sinusitis (disorder)"
            }
          ],
          "text": "Viral sinusitis"
        },
        "onsetDateTime": "2015-07-07",
        "clinicalStatus": {
          "coding": [
            {
              "code": "inactive",
              "system": "http://terminology.hl7.org/CodeSystem/condition-clinical"
            }
          ]
        },
        "subject": {
          "reference": "Patient/602458ae-10bb-4043-bb86-398ca76326de",
          "display": "Ludwig Hedlund"
        },
        "asserter": {
          "reference": "Practitioner/409ddd5d-91da-48df-bea5-4aa9256e1158",
          "display": "Dr. Hel Ping"
        }
      }
    },
    {
      "fullUrl": "urn:uuid:16c126f7-56db-46ad-a88d-d0db185e83ec",
      "resource": {
        "resourceType": "Medication",
        "id": "16c126f7-56db-46ad-a88d-d0db185e83ec",
        "meta": {
          "profile": [
            "http://hl7.org/fhir/uv/ips/StructureDefinition/Medication-uv-ips"
          ]
        },
        "code": {
          "coding": [
            {
              "code": "314231",
              "system": "http://www.nlm.nih.gov/research/umls/rxnorm",
              "display": "simvastatin 10 MG Oral Tablet"
            },
            {
              "code": "319996000",
              "system": "http://snomed.info/sct",
              "display": "Product containing precisely simvastatin 10 milligram/1 each conventional release oral tablet (clinical drug)"
            }
          ],
          "text": "Simvastatin 10 mg oral tablet"
        },
        "form": {
          "coding": [
            {
              "code": "421026006",
              "system": "http://snomed.info/sct",
              "display": "Oral tablet"
            }
          ]
        },
        "ingredient": [
          {
            "itemCodeableConcept": {
              "coding": [
                {
                  "code": "387584000",
                  "system": "http://snomed.info/sct",
                  "display": "Simvastatin"
                }
              ]
            },
            "isActive": true
          }
        ]
      }
    },
    {
      "fullUrl": "urn:uuid:6dd215a9-e335-483d-9cd1-90d1ca0a622b",
      "resource": {
        "resourceType": "MedicationStatement",
        "id": "6dd215a9-e335-483d-9cd1-90d1ca0a622b",
        "meta": {
          "profile": [
            "http://hl7.org/fhir/uv/ips/StructureDefinition/MedicationStatement-uv-ips"
          ]
        },
        "effectivePeriod": {
          "start": "2024-09-14"
        },
        "dosage": [
          {
            "doseAndRate": [
              {
                "doseQuantity": {
                  "value": 1,
                  "unit": "{tbl}",
                  "code": "{tbl}"
                }
              }
            ],
            "timing": {
              "repeat": {
                "frequency": 1,
                "period": 1,
                "periodUnit": "d"
              }
            },
            "text": "1 tablet (10 mg) by mouth once daily",
            "asNeededBoolean": false
          }
        ],
        "reasonCode": [
          {
            "coding": [
              {
                "code": "55822004",
                "system": "http://snomed.info/sct",
                "display": "Hyperlipidemia (disorder)"
              }
            ]
          }
        ],
        "status": "active",
        "medicationReference": {
          "reference": "Medication/16c126f7-56db-46ad-a88d-d0db185e83ec",
          "display": "Simvastatin 10 mg oral tablet"
        },
        "subject": {
          "reference": "Patient/602458ae-10bb-4043-bb86-398ca76326de",
          "display": "Ludwig Hedlund"
        }
      }
    },
    {
      "fullUrl": "urn:uuid:4e8b9719-e7c9-47d0-8b7f-c0b81d2e1de0",
      "resource": {
        "resourceType": "Medication",
        "id": "4e8b9719-e7c9-47d0-8b7f-c0b81d2e1de0",
        "meta": {
          "profile": [
            "http://hl7.org/fhir/uv/ips/StructureDefinition/Medication-uv-ips"
          ]
        },
        "code": {
          "coding": [
            {
              "code": "308136",
              "system": "http://www.nlm.nih.gov/research/umls/rxnorm",
              "display": "amlodipine 2.5 MG Oral Tablet"
            },
            {
              "code": "1153431000",
              "system": "http://snomed.info/sct",
              "display": "Product containing precisely amlodipine (as amlodipine besilate) 2.5 milligram/1 each conventional release oral tablet (clinical drug)"
            }
          ],
          "text": "Amlodipine (as amlodipine besylate) 2.5 mg oral tablet"
        },
        "form": {
          "coding": [
            {
              "code": "421026006",
              "system": "http://snomed.info/sct",
              "display": "Oral tablet"
            }
          ]
        },
        "ingredient": [
          {
            "itemCodeableConcept": {
              "coding": [
                {
                  "code": "384976003",
                  "system": "http://snomed.info/sct",
                  "display": "Amlodipine besylate"
                }
              ]
            },
            "isActive": true
          }
        ]
      }
    },
    {
      "fullUrl": "urn:uuid:7855c5ab-b1a0-4f76-a655-181f5ddc1290",
      "resource": {
        "resourceType": "MedicationStatement",
        "id": "7855c5ab-b1a0-4f76-a655-181f5ddc1290",
        "meta": {
          "profile": [
            "http://hl7.org/fhir/uv/ips/StructureDefinition/MedicationStatement-uv-ips"
          ]
        },
        "effectivePeriod": {
          "start": "2024-09-13"
        },
        "dosage": [
          {
            "doseAndRate": [
              {
                "doseQuantity": {
                  "value": 1,
                  "unit": "{tbl}",
                  "code": "{tbl}"
                }
              }
            ],
            "timing": {
              "repeat": {
                "frequency": 1,
                "period": 1,
                "periodUnit": "d"
              }
            },
            "text": "1 tablet (2.5 mg) by mouth once daily",
            "asNeededBoolean": false
          }
        ],
        "reasonCode": [
          {
            "coding": [
              {
                "code": "59621000",
                "system": "http://snomed.info/sct",
                "display": "Essential hypertension (disorder)"
              }
            ]
          }
        ],
        "status": "active",
        "medicationReference": {
          "reference": "Medication/4e8b9719-e7c9-47d0-8b7f-c0b81d2e1de0",
          "display": "Amlodipine (as amlodipine besylate) 2.5 mg oral tablet"
        },
        "subject": {
          "reference": "Patient/602458ae-10bb-4043-bb86-398ca76326de",
          "display": "Ludwig Hedlund"
        }
      }
    },
    {
      "fullUrl": "urn:uuid:5e8ebf2b-0365-4d65-b132-320fa0949d22",
      "resource": {
        "resourceType": "Medication",
        "id": "5e8ebf2b-0365-4d65-b132-320fa0949d22",
        "meta": {
          "profile": [
            "http://hl7.org/fhir/uv/ips/StructureDefinition/Medication-uv-ips"
          ]
        },
        "code": {
          "coding": [
            {
              "code": "310798",
              "system": "http://www.nlm.nih.gov/research/umls/rxnorm",
              "display": "hydrochlorothiazide 25 MG Oral Tablet"
            },
            {
              "code": "376209006",
              "system": "http://snomed.info/sct",
              "display": "Product containing precisely hydrochlorothiazide 25 milligram/1 each conventional release oral tablet (clinical drug)"
            }
          ],
          "text": "Hydrochlorothiazide 25 mg oral tablet"
        },
        "form": {
          "coding": [
            {
              "code": "421026006",
              "system": "http://snomed.info/sct",
              "display": "Oral tablet"
            }
          ]
        },
        "ingredient": [
          {
            "itemCodeableConcept": {
              "coding": [
                {
                  "code": "387525002",
                  "system": "http://snomed.info/sct",
                  "display": "Hydrochlorothiazide"
                }
              ]
            },
            "isActive": true
          }
        ]
      }
    },
    {
      "fullUrl": "urn:uuid:abdd3923-7401-4157-acd7-69746de86087",
      "resource": {
        "resourceType": "MedicationStatement",
        "id": "abdd3923-7401-4157-acd7-69746de86087",
        "meta": {
          "profile": [
            "http://hl7.org/fhir/uv/ips/StructureDefinition/MedicationStatement-uv-ips"
          ]
        },
        "effectivePeriod": {
          "start": "2024-09-13"
        },
        "dosage": [
          {
            "doseAndRate": [
              {
                "doseQuantity": {
                  "value": 1,
                  "unit": "{tbl}",
                  "code": "{tbl}"
                }
              }
            ],
            "timing": {
              "repeat": {
                "frequency": 1,
                "period": 1,
                "periodUnit": "d"
              }
            },
            "text": "1 tablet (25 mg) by mouth once daily",
            "asNeededBoolean": false
          }
        ],
        "reasonCode": [
          {
            "coding": [
              {
                "code": "59621000",
                "system": "http://snomed.info/sct",
                "display": "Essential hypertension (disorder)"
              }
            ]
          }
        ],
        "status": "active",
        "medicationReference": {
          "reference": "Medication/5e8ebf2b-0365-4d65-b132-320fa0949d22",
          "display": "Hydrochlorothiazide 25 mg oral tablet"
        },
        "subject": {
          "reference": "Patient/602458ae-10bb-4043-bb86-398ca76326de",
          "display": "Ludwig Hedlund"
        }
      }
    },
    {
      "fullUrl": "urn:uuid:b8b1de86-629e-41a8-9e3d-280bb53bc664",
      "resource": {
        "resourceType": "Medication",
        "id": "b8b1de86-629e-41a8-9e3d-280bb53bc664",
        "meta": {
          "profile": [
            "http://hl7.org/fhir/uv/ips/StructureDefinition/Medication-uv-ips"
          ]
        },
        "code": {
          "coding": [
            {
              "code": "200031",
              "system": "http://www.nlm.nih.gov/research/umls/rxnorm",
              "display": "carvedilol 6.25 MG Oral Tablet"
            },
            {
              "code": "318635007",
              "system": "http://snomed.info/sct",
              "display": "Product containing precisely carvedilol 6.25 milligram/1 each conventional release oral tablet (clinical drug)"
            }
          ],
          "text": "Carvedilol 6.25 mg oral tablet"
        },
        "form": {
          "coding": [
            {
              "code": "421026006",
              "system": "http://snomed.info/sct",
              "display": "Oral tablet"
            }
          ]
        },
        "ingredient": [
          {
            "itemCodeableConcept": {
              "coding": [
                {
                  "code": "386870007",
                  "system": "http://snomed.info/sct",
                  "display": "Carvedilol"
                }
              ]
            },
            "isActive": true
          }
        ]
      }
    },
    {
      "fullUrl": "urn:uuid:a02ffb13-e48a-4ab1-b8b5-e2f27287a9c9",
      "resource": {
        "resourceType": "MedicationStatement",
        "id": "a02ffb13-e48a-4ab1-b8b5-e2f27287a9c9",
        "meta": {
          "profile": [
            "http://hl7.org/fhir/uv/ips/StructureDefinition/MedicationStatement-uv-ips"
          ]
        },
        "effectivePeriod": {
          "start": "2015-02-21"
        },
        "dosage": [
          {
            "doseAndRate": [
              {
                "doseQuantity": {
                  "value": 1,
                  "unit": "{tbl}",
                  "code": "{tbl}"
                }
              }
            ],
            "timing": {
              "repeat": {
                "frequency": 2,
                "period": 1,
                "periodUnit": "d"
              }
            },
            "text": "1 tablet (6.25 mg) by mouth twice daily",
            "asNeededBoolean": false
          }
        ],
        "status": "active",
        "medicationReference": {
          "reference": "Medication/b8b1de86-629e-41a8-9e3d-280bb53bc664",
          "display": "Carvedilol 6.25 mg oral tablet"
        },
        "subject": {
          "reference": "Patient/602458ae-10bb-4043-bb86-398ca76326de",
          "display": "Ludwig Hedlund"
        }
      }
    },
    {
      "fullUrl": "urn:uuid:9f106db9-0b40-4eca-b695-00210f187745",
      "resource": {
        "resourceType": "Medication",
        "id": "9f106db9-0b40-4eca-b695-00210f187745",
        "meta": {
          "profile": [
            "http://hl7.org/fhir/uv/ips/StructureDefinition/Medication-uv-ips"
          ]
        },
        "code": {
          "coding": [
            {
              "code": "243670",
              "system": "http://www.nlm.nih.gov/research/umls/rxnorm",
              "display": "aspirin 81 MG Oral Tablet"
            }
          ],
          "text": "aspirin 81 MG Oral Tablet"
        }
      }
    },
    {
      "fullUrl": "urn:uuid:920ffd8a-b040-4c36-ade2-9489392e93d1",
      "resource": {
        "resourceType": "MedicationStatement",
        "id": "920ffd8a-b040-4c36-ade2-9489392e93d1",
        "meta": {
          "profile": [
            "http://hl7.org/fhir/uv/ips/StructureDefinition/MedicationStatement-uv-ips"
          ]
        },
        "effectivePeriod": {
          "start": "2015-02-21"
        },
        "dosage": [
          {
            "doseAndRate": [
              {
                "doseQuantity": {
                  "value": 1,
                  "unit": "{tbl}",
                  "code": "{tbl}"
                }
              }
            ],
            "timing": {
              "repeat": {
                "frequency": 1,
                "period": 1,
                "periodUnit": "d"
              }
            },
            "text": "1 tablet (81 mg) by mouth once daily",
            "asNeededBoolean": false
          }
        ],
        "status": "active",
        "medicationReference": {
          "reference": "Medication/9f106db9-0b40-4eca-b695-00210f187745",
          "display": "aspirin 81 MG Oral Tablet"
        },
        "subject": {
          "reference": "Patient/602458ae-10bb-4043-bb86-398ca76326de",
          "display": "Ludwig Hedlund"
        }
      }
    },
    {
      "fullUrl": "urn:uuid:11b29f05-5905-4aab-9127-d63adfcc4667",
      "resource": {
        "resourceType": "Medication",
        "id": "11b29f05-5905-4aab-9127-d63adfcc4667",
        "meta": {
          "profile": [
            "http://hl7.org/fhir/uv/ips/StructureDefinition/Medication-uv-ips"
          ]
        },
        "code": {
          "coding": [
            {
              "code": "617311",
              "system": "http://www.nlm.nih.gov/research/umls/rxnorm",
              "display": "atorvastatin 40 MG Oral Tablet"
            },
            {
              "code": "1145421000",
              "system": "http://snomed.info/sct",
              "display": "Product containing precisely atorvastatin (as atorvastatin calcium) 40 milligram/1 each conventional release oral tablet (clinical drug)"
            }
          ],
          "text": "Atorvastatin (as atorvastatin calcium) 40 mg oral tablet"
        },
        "form": {
          "coding": [
            {
              "code": "421026006",
              "system": "http://snomed.info/sct",
              "display": "Oral tablet"
            }
          ]
        },
        "ingredient": [
          {
            "itemCodeableConcept": {
              "coding": [
                {
                  "code": "108601004",
                  "system": "http://snomed.info/sct",
                  "display": "Atorvastatin calcium"
                }
              ]
            },
            "isActive": true
          }
        ]
      }
    },
    {
      "fullUrl": "urn:uuid:2662fa14-4314-446b-af59-0bd0de246666",
      "resource": {
        "resourceType": "MedicationStatement",
        "id": "2662fa14-4314-446b-af59-0bd0de246666",
        "meta": {
          "profile": [
            "http://hl7.org/fhir/uv/ips/StructureDefinition/MedicationStatement-uv-ips"
          ]
        },
        "effectivePeriod": {
          "start": "2015-02-21"
        },
        "dosage": [
          {
            "doseAndRate": [
              {
                "doseQuantity": {
                  "value": 1,
                  "unit": "{tbl}",
                  "code": "{tbl}"
                }
              }
            ],
            "timing": {
              "repeat": {
                "frequency": 1,
                "period": 1,
                "periodUnit": "d"
              }
            },
            "text": "1 tablet (40 mg) by mouth once daily",
            "asNeededBoolean": false
          }
        ],
        "status": "active",
        "medicationReference": {
          "reference": "Medication/11b29f05-5905-4aab-9127-d63adfcc4667",
          "display": "Atorvastatin (as atorvastatin calcium) 40 mg oral tablet"
        },
        "subject": {
          "reference": "Patient/602458ae-10bb-4043-bb86-398ca76326de",
          "display": "Ludwig Hedlund"
        }
      }
    },
    {
      "fullUrl": "urn:uuid:d2e1380b-7d2f-47e3-b200-d60f93982a62",
      "resource": {
        "resourceType": "Medication",
        "id": "d2e1380b-7d2f-47e3-b200-d60f93982a62",
        "meta": {
          "profile": [
            "http://hl7.org/fhir/uv/ips/StructureDefinition/Medication-uv-ips"
          ]
        },
        "code": {
          "coding": [
            {
              "code": "858817",
              "system": "http://www.nlm.nih.gov/research/umls/rxnorm",
              "display": "enalapril maleate 10 MG Oral Tablet"
            },
            {
              "code": "318853004",
              "system": "http://snomed.info/sct",
              "display": "Product containing precisely enalapril maleate 10 milligram/1 each conventional release oral tablet (clinical drug)"
            }
          ],
          "text": "Enalapril maleate 10 mg oral tablet"
        },
        "form": {
          "coding": [
            {
              "code": "421026006",
              "system": "http://snomed.info/sct",
              "display": "Oral tablet"
            }
          ]
        },
        "ingredient": [
          {
            "itemCodeableConcept": {
              "coding": [
                {
                  "code": "387165009",
                  "system": "http://snomed.info/sct",
                  "display": "Enalapril maleate"
                }
              ]
            },
            "isActive": true
          }
        ]
      }
    },
    {
      "fullUrl": "urn:uuid:504b583b-f5b1-4ee0-a03b-726baf5d780b",
      "resource": {
        "resourceType": "MedicationStatement",
        "id": "504b583b-f5b1-4ee0-a03b-726baf5d780b",
        "meta": {
          "profile": [
            "http://hl7.org/fhir/uv/ips/StructureDefinition/MedicationStatement-uv-ips"
          ]
        },
        "effectivePeriod": {
          "start": "2015-02-21"
        },
        "dosage": [
          {
            "doseAndRate": [
              {
                "doseQuantity": {
                  "value": 1,
                  "unit": "{tbl}",
                  "code": "{tbl}"
                }
              }
            ],
            "timing": {
              "repeat": {
                "frequency": 1,
                "period": 1,
                "periodUnit": "d"
              }
            },
            "text": "1 tablet (10 mg) by mouth once daily",
            "asNeededBoolean": false
          }
        ],
        "status": "active",
        "medicationReference": {
          "reference": "Medication/d2e1380b-7d2f-47e3-b200-d60f93982a62",
          "display": "Enalapril maleate 10 mg oral tablet"
        },
        "subject": {
          "reference": "Patient/602458ae-10bb-4043-bb86-398ca76326de",
          "display": "Ludwig Hedlund"
        }
      }
    },
    {
      "fullUrl": "urn:uuid:ba1daec9-6936-4798-a178-d3a3c047a4da",
      "resource": {
        "resourceType": "Medication",
        "id": "ba1daec9-6936-4798-a178-d3a3c047a4da",
        "meta": {
          "profile": [
            "http://hl7.org/fhir/uv/ips/StructureDefinition/Medication-uv-ips"
          ]
        },
        "code": {
          "coding": [
            {
              "code": "2001499",
              "system": "http://www.nlm.nih.gov/research/umls/rxnorm",
              "display": "Vitamin B12 5 MG/ML Injectable Solution"
            }
          ],
          "text": "Vitamin B12 5 MG/ML Injectable Solution"
        }
      }
    },
    {
      "fullUrl": "urn:uuid:e2383bf3-e8e0-4bee-a01c-64c0572217d1",
      "resource": {
        "resourceType": "MedicationStatement",
        "id": "e2383bf3-e8e0-4bee-a01c-64c0572217d1",
        "meta": {
          "profile": [
            "http://hl7.org/fhir/uv/ips/StructureDefinition/MedicationStatement-uv-ips"
          ]
        },
        "effectivePeriod": {
          "start": "1976-06-18"
        },
        "dosage": [
          {
            "doseAndRate": [
              {
                "doseQuantity": {
                  "value": 1,
                  "unit": "mL",
                  "code": "mL"
                }
              }
            ],
            "timing": {
              "repeat": {
                "frequency": 1,
                "period": 1,
                "periodUnit": "mo"
              }
            },
            "text": "5 mg (1 mL) intramuscularly once monthly",
            "asNeededBoolean": false
          }
        ],
        "status": "active",
        "medicationReference": {
          "reference": "Medication/ba1daec9-6936-4798-a178-d3a3c047a4da",
          "display": "Vitamin B12 5 MG/ML Injectable Solution"
        },
        "subject": {
          "reference": "Patient/602458ae-10bb-4043-bb86-398ca76326de",
          "display": "Ludwig Hedlund"
        }
      }
    },
    {
      "fullUrl": "urn:uuid:f6e3047d-e1e3-41fc-be58-173f5e390635",
      "resource": {
        "resourceType": "Medication",
        "id": "f6e3047d-e1e3-41fc-be58-173f5e390635",
        "meta": {
          "profile": [
            "http://hl7.org/fhir/uv/ips/StructureDefinition/Medication-uv-ips"
          ]
        },
        "code": {
          "coding": [
            {
              "code": "106258",
              "system": "http://www.nlm.nih.gov/research/umls/rxnorm",
              "display": "hydrocortisone 10 MG/ML Topical Cream"
            },
            {
              "code": "331722005",
              "system": "http://snomed.info/sct",
              "display": "Product containing precisely hydrocortisone 10 milligram/1 gram and urea 100 milligram/1 gram conventional release cutaneous cream (clinical drug)"
            }
          ],
          "text": "Hydrocortisone 10 mg/g and urea 100 mg/g cutaneous cream"
        },
        "form": {
          "coding": [
            {
              "code": "421628006",
              "system": "http://snomed.info/sct",
              "display": "Cutaneous cream"
            }
          ]
        },
        "ingredient": [
          {
            "itemCodeableConcept": {
              "coding": [
                {
                  "code": "387092000",
                  "system": "http://snomed.info/sct",
                  "display": "Urea"
                }
              ]
            },
            "isActive": true
          }
        ]
      }
    },
    {
      "fullUrl": "urn:uuid:4e4040cc-2cd2-4cb3-b28d-334669e2d7bf",
      "resource": {
        "resourceType": "MedicationStatement",
        "id": "4e4040cc-2cd2-4cb3-b28d-334669e2d7bf",
        "meta": {
          "profile": [
            "http://hl7.org/fhir/uv/ips/StructureDefinition/MedicationStatement-uv-ips"
          ]
        },
        "effectivePeriod": {
          "start": "1965-06-20"
        },
        "dosage": [
          {
            "doseAndRate": [
              {
                "doseQuantity": {
                  "value": 1,
                  "unit": "application",
                  "code": "{application}"
                }
              }
            ],
            "timing": {
              "repeat": {
                "frequency": 2,
                "period": 1,
                "periodUnit": "d"
              }
            },
            "text": "Apply a thin layer (containing 10 mg/g hydrocortisone and 100 mg/g urea) to the affected area twice daily",
            "asNeededBoolean": false
          }
        ],
        "reasonCode": [
          {
            "coding": [
              {
                "code": "40275004",
                "system": "http://snomed.info/sct",
                "display": "Contact dermatitis (disorder)"
              }
            ]
          }
        ],
        "status": "active",
        "medicationReference": {
          "reference": "Medication/f6e3047d-e1e3-41fc-be58-173f5e390635",
          "display": "Hydrocortisone 10 mg/g and urea 100 mg/g cutaneous cream"
        },
        "subject": {
          "reference": "Patient/602458ae-10bb-4043-bb86-398ca76326de",
          "display": "Ludwig Hedlund"
        }
      }
    },
    {
      "fullUrl": "urn:uuid:ddd4c83f-1996-4cdf-9036-a55b3f44ad4e",
      "resource": {
        "resourceType": "AllergyIntolerance",
        "id": "ddd4c83f-1996-4cdf-9036-a55b3f44ad4e",
        "meta": {
          "profile": [
            "http://hl7.eu/fhir/eps/StructureDefinition/allergyIntolerance-eu-eps"
          ]
        },
        "code": {
          "coding": [
            {
              "code": "609328004",
              "system": "http://snomed.info/sct",
              "display": "Allergic disposition (finding)"
            }
          ],
          "text": "Allergic disposition"
        },
        "category": [
          "environment"
        ],
        "verificationStatus": {
          "coding": [
            {
              "code": "confirmed"
            }
          ]
        },
        "type": "allergy",
        "onsetDateTime": "1965-07-03",
        "clinicalStatus": {
          "coding": [
            {
              "code": "active"
            }
          ]
        },
        "patient": {
          "reference": "Patient/602458ae-10bb-4043-bb86-398ca76326de",
          "display": "Ludwig Hedlund"
        }
      }
    },
    {
      "fullUrl": "urn:uuid:f3131781-f3ac-432b-bb2d-89dcb6911b6c",
      "resource": {
        "resourceType": "Procedure",
        "id": "f3131781-f3ac-432b-bb2d-89dcb6911b6c",
        "meta": {
          "profile": [
            "http://hl7.org/fhir/uv/ips/StructureDefinition/Procedure-uv-ips"
          ]
        },
        "code": {
          "coding": [
            {
              "code": "417511005",
              "system": "http://snomed.info/sct",
              "display": "Referral to home health care service (procedure)"
            }
          ],
          "text": "Referral to home health care service"
        },
        "status": "completed",
        "subject": {
          "reference": "Patient/602458ae-10bb-4043-bb86-398ca76326de",
          "display": "Ludwig Hedlund"
        },
        "performedDateTime": "2018-04-06"
      }
    },
    {
      "fullUrl": "urn:uuid:244d1c66-4877-4550-baeb-0abc790e9f77",
      "resource": {
        "resourceType": "Immunization",
        "id": "244d1c66-4877-4550-baeb-0abc790e9f77",
        "meta": {
          "profile": [
            "http://hl7.org/fhir/uv/ips/StructureDefinition/Immunization-uv-ips"
          ]
        },
        "vaccineCode": {
          "coding": [
            {
              "code": "1181000221105",
              "system": "http://snomed.info/sct",
              "display": "Vaccine product containing Influenza virus antigen"
            },
            {
              "code": "J07BB02",
              "system": "http://www.whocc.no/atc",
              "display": "Influenza, inactivated, split virus"
            },
            {
              "code": "140",
              "system": "http://hl7.org/fhir/sid/cvx",
              "display": "Influenza  seasonal  injectable  preservative free"
            }
          ],
          "text": "Influenza virus antigen only vaccine product"
        },
        "site": {
          "coding": [
            {
              "code": "73776007",
              "system": "http://snomed.info/sct",
              "display": "Structure of muscle of upper arm"
            }
          ],
          "text": "Structure of muscle of upper arm"
        },
        "route": {
          "coding": [
            {
              "code": "78421000",
              "system": "http://snomed.info/sct",
              "display": "Intramuscular route"
            }
          ],
          "text": "Intramuscular route"
        },
        "status": "completed",
        "patient": {
          "reference": "Patient/602458ae-10bb-4043-bb86-398ca76326de",
          "display": "Ludwig Hedlund"
        },
        "occurrenceDateTime": "2024-09-13",
        "lotNumber": "YD-6UsuTXG",
        "expirationDate": "2025-04-11"
      }
    },
    {
      "fullUrl": "urn:uuid:a735e0ad-c9eb-4412-a178-ea7a99cee389",
      "resource": {
        "resourceType": "Immunization",
        "id": "a735e0ad-c9eb-4412-a178-ea7a99cee389",
        "meta": {
          "profile": [
            "http://hl7.org/fhir/uv/ips/StructureDefinition/Immunization-uv-ips"
          ]
        },
        "vaccineCode": {
          "coding": [
            {
              "code": "1119349007",
              "system": "http://snomed.info/sct",
              "display": "Vaccine product containing SARS-CoV-2 mRNA"
            },
            {
              "code": "J07BX03",
              "system": "http://www.whocc.no/atc",
              "display": "COVID-19 mRNA vaccines"
            },
            {
              "code": "208",
              "system": "http://hl7.org/fhir/sid/cvx",
              "display": "COVID-19  mRNA  LNP-S  PF  30 mcg/0.3 mL dose"
            }
          ],
          "text": "SARS-CoV-2 mRNA vaccine"
        },
        "site": {
          "coding": [
            {
              "code": "73776007",
              "system": "http://snomed.info/sct",
              "display": "Structure of muscle of upper arm"
            }
          ],
          "text": "Structure of muscle of upper arm"
        },
        "route": {
          "coding": [
            {
              "code": "78421000",
              "system": "http://snomed.info/sct",
              "display": "Intramuscular route"
            }
          ],
          "text": "Intramuscular route"
        },
        "status": "completed",
        "patient": {
          "reference": "Patient/602458ae-10bb-4043-bb86-398ca76326de",
          "display": "Ludwig Hedlund"
        },
        "occurrenceDateTime": "2021-04-23",
        "lotNumber": "VF-23GcYZd",
        "expirationDate": "2021-08-09"
      }
    },
    {
      "fullUrl": "urn:uuid:d302b7e1-1a06-4396-b65f-d924abfc13fe",
      "resource": {
        "resourceType": "Immunization",
        "id": "d302b7e1-1a06-4396-b65f-d924abfc13fe",
        "meta": {
          "profile": [
            "http://hl7.org/fhir/uv/ips/StructureDefinition/Immunization-uv-ips"
          ]
        },
        "vaccineCode": {
          "coding": [
            {
              "code": "777725002",
              "system": "http://snomed.info/sct",
              "display": "Vaccine product containing only Clostridium tetani toxoid antigen adsorbed"
            },
            {
              "code": "J07AM51",
              "system": "http://www.whocc.no/atc",
              "display": "Diphtheria-tetanus vaccines, adult type"
            },
            {
              "code": "113",
              "system": "http://hl7.org/fhir/sid/cvx",
              "display": "Td (adult)  5 Lf tetanus toxoid  preservative free  adsorbed"
            }
          ],
          "text": "Clostridium tetani toxoid antigen adsorbed only vaccine product"
        },
        "site": {
          "coding": [
            {
              "code": "73776007",
              "system": "http://snomed.info/sct",
              "display": "Structure of muscle of upper arm"
            }
          ],
          "text": "Structure of muscle of upper arm"
        },
        "route": {
          "coding": [
            {
              "code": "78421000",
              "system": "http://snomed.info/sct",
              "display": "Intramuscular route"
            }
          ],
          "text": "Intramuscular route"
        },
        "status": "completed",
        "patient": {
          "reference": "Patient/602458ae-10bb-4043-bb86-398ca76326de",
          "display": "Ludwig Hedlund"
        },
        "occurrenceDateTime": "2016-07-29",
        "lotNumber": "CR-IBwFEpIG",
        "expirationDate": "2017-01-26"
      }
    }
  ],
  "type": "document",
  "timestamp": "2025-06-17T11:26:49Z"
}
