{
  "resourceType": "Bundle",
  "id": "Instance-Bundle-fb111751-36ef-4e6d-858e-c388c070b6f7",
  "meta": {
    "profile": [
      "http://hl7.eu/fhir/eps/StructureDefinition/bundle-eu-eps"
    ]
  },
  "identifier": {
    "assigner": {
      "display": "HL7 Europe"
    },
    "system": "urn:oid:2.16.840.1.113883.2.51.999",
    "value": "7fb703cc-724a-43a6-b029-3fd2663fc5bc"
  },
  "entry": [
    {
      "fullUrl": "urn:uuid:7a09355a-1dc6-4cc5-8eff-a3bb029b7bf3",
      "resource": {
        "resourceType": "Composition",
        "id": "7a09355a-1dc6-4cc5-8eff-a3bb029b7bf3",
        "meta": {
          "profile": [
            "http://hl7.eu/fhir/eps/StructureDefinition/composition-eu-eps"
          ]
        },
        "identifier": {
          "assigner": {
            "display": "HL7 Europe"
          },
          "system": "urn:oid:2.16.840.1.113883.2.51.999",
          "value": "f3187126-e531-4f3c-b2c3-d61f41678136"
        },
        "type": {
          "coding": [
            {
              "system": "http://loinc.org",
              "code": "60591-5",
              "display": "European Patient Summary"
            }
          ],
          "text": "European Patient Summary"
        },
        "author": [
          {
            "reference": "urn:uuid:06acd5e2-3aa2-4873-b2b3-f88e36970e28"
          }
        ],
        "section": [
          {
            "text": {
              "status": "generated",
              "div": "<div xmlns=\"http://www.w3.org/1999/xhtml\"><table class=\"hl7__ips\"><tr><td>No known problems or disabilities</td></tr></table></div>"
            },
            "entry": [
              {
                "reference": "urn:uuid:11db285c-130d-4596-a228-840511980b2d"
              }
            ],
            "code": {
              "coding": [
                {
                  "system": "http://loinc.org",
                  "code": "11450-4",
                  "display": "Problem list - Reported"
                }
              ]
            },
            "title": "Problem list"
          },
          {
            "text": {
              "status": "generated",
              "div": "<div xmlns=\"http://www.w3.org/1999/xhtml\"><table class=\"hl7__ips\"><tr><td>No known medications</td><td></td><td></td><td></td><td></td></tr></table></div>"
            },
            "entry": [
              {
                "reference": "urn:uuid:138e03e1-65e8-4737-bb39-4cf2d12964d4"
              },
              {
                "reference": "urn:uuid:138e03e1-65e8-4737-bb39-4cf2d12964d4"
              }
            ],
            "code": {
              "coding": [
                {
                  "system": "http://loinc.org",
                  "code": "10160-0",
                  "display": "History of Medication use Narrative"
                }
              ]
            },
            "title": "Medication list"
          },
          {
            "text": {
              "status": "generated",
              "div": "<div xmlns=\"http://www.w3.org/1999/xhtml\"><table class=\"hl7__ips\"><tr><td>No known allergies or intolerances</td></tr></table></div>"
            },
            "entry": [
              {
                "reference": "urn:uuid:922efef9-5bfb-4601-807f-89c8977e8dba"
              }
            ],
            "code": {
              "coding": [
                {
                  "system": "http://loinc.org",
                  "code": "48765-2",
                  "display": "Allergies and adverse reactions Document"
                }
              ]
            },
            "title": "Allergies and Intolerances"
          }
        ],
        "title": "European Patient Summary",
        "status": "final",
        "subject": {
          "reference": "urn:uuid:0ef664ba-e2b3-4769-ad4e-a7e9960997a2"
        },
        "custodian": {
          "reference": "urn:uuid:fbc48bbe-7514-4a7a-80a2-94276f9d7603"
        },
        "date": "2025-06-17T11:26:49Z",
        "confidentiality": "N"
      }
    },
    {
      "fullUrl": "urn:uuid:0ef664ba-e2b3-4769-ad4e-a7e9960997a2",
      "resource": {
        "resourceType": "Patient",
        "id": "0ef664ba-e2b3-4769-ad4e-a7e9960997a2",
        "meta": {
          "profile": [
            "http://hl7.eu/fhir/eps/StructureDefinition/patient-eu-eps"
          ]
        },
        "identifier": [
          {
            "type": {
              "coding": [
                {
                  "code": "NI",
                  "system": "http://terminology.hl7.org/CodeSystem/v2-0203"
                }
              ]
            },
            "system": "http://ec.europa.eu/identifier/eci",
            "value": "5839-919809-0"
          },
          {
            "type": {
              "coding": [
                {
                  "code": "MR",
                  "system": "http://terminology.hl7.org/CodeSystem/v2-0203"
                }
              ]
            },
            "system": "http://local.setting.eu/identifier",
            "value": ""
          }
        ],
        "name": [
          {
            "given": [
              "Andrej Ivan"
            ],
            "family": "Frančeškin",
            "text": "Andrej Ivan Frančeškin"
          }
        ],
        "address": [
          {
            "line": [
              "Trg revolucije 94"
            ],
            "use": "home",
            "type": "physical",
            "city": "Čatež ob Savi",
            "postalCode": "8251",
            "country": "Slovenia"
          }
        ],
        "telecom": [
          {
            "system": "phone",
            "value": "+386 070-510-102"
          }
        ],
        "gender": "male",
        "birthDate": "2002-05-16"
      }
    },
    {
      "fullUrl": "urn:uuid:06acd5e2-3aa2-4873-b2b3-f88e36970e28",
      "resource": {
        "resourceType": "PractitionerRole",
        "id": "06acd5e2-3aa2-4873-b2b3-f88e36970e28",
        "meta": {
          "profile": [
            "http://hl7.eu/fhir/base/StructureDefinition/practitionerRole-eu"
          ]
        },
        "practitioner": {
          "reference": "urn:uuid:41fd56d4-73f0-4ba1-8b5d-37efe623f52e"
        },
        "organization": {
          "reference": "urn:uuid:fbc48bbe-7514-4a7a-80a2-94276f9d7603"
        }
      }
    },
    {
      "fullUrl": "urn:uuid:41fd56d4-73f0-4ba1-8b5d-37efe623f52e",
      "resource": {
        "resourceType": "Practitioner",
        "id": "41fd56d4-73f0-4ba1-8b5d-37efe623f52e",
        "meta": {
          "profile": [
            "http://hl7.eu/fhir/base/StructureDefinition/practitioner-eu"
          ]
        },
        "name": [
          {
            "prefix": [
              "Dr."
            ],
            "given": [
              "Hel"
            ],
            "family": "Ping"
          }
        ]
      }
    },
    {
      "fullUrl": "urn:uuid:11db285c-130d-4596-a228-840511980b2d",
      "resource": {
        "resourceType": "Condition",
        "id": "11db285c-130d-4596-a228-840511980b2d",
        "meta": {
          "profile": [
            "http://hl7.org/fhir/uv/ips/StructureDefinition/Condition-uv-ips"
          ]
        },
        "code": {
          "coding": [
            {
              "code": "160245001",
              "system": "http://snomed.info/sct",
              "display": "No current problems or disability (situation)"
            }
          ]
        },
        "subject": {
          "reference": "Patient/0ef664ba-e2b3-4769-ad4e-a7e9960997a2",
          "display": "Andrej Ivan Frančeškin"
        },
        "_onsetDateTime": {
          "extension": [
            {
              "url": "http://hl7.org/fhir/StructureDefinition/data-absent-reason",
              "valueCode": "unknown"
            }
          ]
        }
      }
    },
    {
      "fullUrl": "urn:uuid:138e03e1-65e8-4737-bb39-4cf2d12964d4",
      "resource": {
        "resourceType": "MedicationStatement",
        "id": "138e03e1-65e8-4737-bb39-4cf2d12964d4",
        "meta": {
          "profile": [
            "http://hl7.org/fhir/uv/ips/StructureDefinition/MedicationStatement-uv-ips"
          ]
        },
        "effectivePeriod": {
          "extension": [
            {
              "url": "http://hl7.org/fhir/StructureDefinition/data-absent-reason",
              "valueCode": "unknown"
            }
          ]
        },
        "status": "active",
        "medicationCodeableConcept": {
          "coding": [
            {
              "code": "787481004",
              "system": "http://snomed.info/sct",
              "display": "No known medications (situation)"
            }
          ]
        },
        "subject": {
          "reference": "Patient/0ef664ba-e2b3-4769-ad4e-a7e9960997a2",
          "display": "Andrej Ivan Frančeškin"
        }
      }
    },
    {
      "fullUrl": "urn:uuid:138e03e1-65e8-4737-bb39-4cf2d12964d4",
      "resource": {
        "resourceType": "MedicationStatement",
        "id": "138e03e1-65e8-4737-bb39-4cf2d12964d4",
        "meta": {
          "profile": [
            "http://hl7.org/fhir/uv/ips/StructureDefinition/MedicationStatement-uv-ips"
          ]
        },
        "effectivePeriod": {
          "extension": [
            {
              "url": "http://hl7.org/fhir/StructureDefinition/data-absent-reason",
              "valueCode": "unknown"
            }
          ]
        },
        "status": "active",
        "medicationCodeableConcept": {
          "coding": [
            {
              "code": "787481004",
              "system": "http://snomed.info/sct",
              "display": "No known medications (situation)"
            }
          ]
        },
        "subject": {
          "reference": "Patient/0ef664ba-e2b3-4769-ad4e-a7e9960997a2",
          "display": "Andrej Ivan Frančeškin"
        }
      }
    },
    {
      "fullUrl": "urn:uuid:922efef9-5bfb-4601-807f-89c8977e8dba",
      "resource": {
        "resourceType": "AllergyIntolerance",
        "id": "922efef9-5bfb-4601-807f-89c8977e8dba",
        "meta": {
          "profile": [
            "http://hl7.eu/fhir/eps/StructureDefinition/allergyIntolerance-eu-eps"
          ]
        },
        "code": {
          "coding": [
            {
              "code": "716186003",
              "system": "http://snomed.info/sct",
              "display": "No known allergy (situation)"
            }
          ]
        },
        "patient": {
          "reference": "Patient/0ef664ba-e2b3-4769-ad4e-a7e9960997a2",
          "display": "Andrej Ivan Frančeškin"
        },
        "_onsetDateTime": {
          "extension": [
            {
              "url": "http://hl7.org/fhir/StructureDefinition/data-absent-reason",
              "valueCode": "unknown"
            }
          ]
        }
      }
    }
  ],
  "type": "document",
  "timestamp": "2025-06-17T11:26:49Z"
}
