{
  "resourceType": "Bundle",
  "id": "Instance-Bundle-44c3cc0a-607f-49b8-8097-929dd0db68a5",
  "meta": {
    "profile": [
      "http://hl7.eu/fhir/eps/StructureDefinition/bundle-eu-eps"
    ]
  },
  "identifier": {
    "assigner": {
      "display": "HL7 Europe"
    },
    "system": "urn:oid:2.16.840.1.113883.2.51.999",
    "value": "bddbae72-e2ca-41b8-8800-822bf6cf20ff"
  },
  "entry": [
    {
      "fullUrl": "urn:uuid:9d8cf3cc-82a7-4589-ada6-d53f8b9db281",
      "resource": {
        "resourceType": "Composition",
        "id": "9d8cf3cc-82a7-4589-ada6-d53f8b9db281",
        "meta": {
          "profile": [
            "http://hl7.eu/fhir/eps/StructureDefinition/composition-eu-eps"
          ]
        },
        "identifier": {
          "assigner": {
            "display": "HL7 Europe"
          },
          "system": "urn:oid:2.16.840.1.113883.2.51.999",
          "value": "9aad05fa-586c-46fe-8151-c2ff82600bc9"
        },
        "type": {
          "coding": [
            {
              "system": "http://loinc.org",
              "code": "60591-5",
              "display": "European Patient Summary"
            }
          ],
          "text": "European Patient Summary"
        },
        "author": [
          {
            "reference": "urn:uuid:2593a922-fe56-45ed-940d-00b68f643528"
          }
        ],
        "section": [
          {
            "text": {
              "status": "generated",
              "div": "<div xmlns=\"http://www.w3.org/1999/xhtml\"><table class=\"hl7__ips\"><tr><td>Chronic sinusitis</td><td>2016-06-25</td><td>active</td></tr><tr><td>Osteoporosis</td><td>2010-11-01</td><td>active</td></tr><tr><td>Gingivitis</td><td>2025-01-21</td><td>inactive</td></tr><tr><td>Viral sinusitis</td><td>2023-02-09</td><td>inactive</td></tr><tr><td>Acute viral pharyngitis</td><td>2020-09-18</td><td>inactive</td></tr><tr><td>Sprain of ankle</td><td>2018-01-04</td><td>inactive</td></tr><tr><td>Viral sinusitis</td><td>2016-10-21</td><td>inactive</td></tr><tr><td>Acute bacterial sinusitis</td><td>2016-06-11</td><td>inactive</td></tr></table></div>"
            },
            "entry": [
              {
                "reference": "urn:uuid:8aab8257-2b63-4cce-bed4-6a966db02c06"
              },
              {
                "reference": "urn:uuid:8b280a18-4c11-4886-b49d-5956fe6a87e4"
              },
              {
                "reference": "urn:uuid:9637f269-b7b5-44dd-9744-a24d8a4a686b"
              },
              {
                "reference": "urn:uuid:4a54ce09-fe8e-45dd-844d-17c827ca3472"
              },
              {
                "reference": "urn:uuid:6a58d266-16c2-4366-bb2c-6a0156131fdc"
              },
              {
                "reference": "urn:uuid:60d45d31-bdef-4039-9c61-ef5b69af0f47"
              },
              {
                "reference": "urn:uuid:7861ffc9-83ad-4213-962a-c2b0bbce1d56"
              },
              {
                "reference": "urn:uuid:05aa148d-4047-4312-b507-e1ffcc830f26"
              }
            ],
            "code": {
              "coding": [
                {
                  "system": "http://loinc.org",
                  "code": "11450-4",
                  "display": "Problem list - Reported"
                }
              ]
            },
            "title": "Problem list"
          },
          {
            "text": {
              "status": "generated",
              "div": "<div xmlns=\"http://www.w3.org/1999/xhtml\"><table class=\"hl7__ips\"><tr><td>Alendronic acid (as alendronate sodium) 10 mg oral tablet</td><td>2025-01-20</td><td>Oral tablet</td><td>1 tablet (10 mg) once daily\"</td><td>Reason: Osteoporosis (disorder)</td></tr><tr><td>ferrous sulfate 325 MG Oral Tablet</td><td>1970-08-17</td><td></td><td>1 tablet (325 mg) by mouth once daily\"</td><td></td></tr><tr><td>Vitamin B12 5 MG/ML Injectable Solution</td><td>1970-08-17</td><td></td><td>1 mL (5 mg) intramuscularly once monthly\"</td><td></td></tr></table></div>"
            },
            "entry": [
              {
                "reference": "urn:uuid:f149cee6-29c9-4352-9c4f-84e40c11a08b"
              },
              {
                "reference": "urn:uuid:e58b34ff-ad3a-4f85-b103-f1cdb1266c60"
              },
              {
                "reference": "urn:uuid:5bcbec3b-16f4-43bc-b42f-19e43cbc9a3b"
              }
            ],
            "code": {
              "coding": [
                {
                  "system": "http://loinc.org",
                  "code": "10160-0",
                  "display": "History of Medication use Narrative"
                }
              ]
            },
            "title": "Medication list"
          },
          {
            "text": {
              "status": "generated",
              "div": "<div xmlns=\"http://www.w3.org/1999/xhtml\"><table class=\"hl7__ips\"><tr><td>No known allergies or intolerances</td></tr></table></div>"
            },
            "entry": [
              {
                "reference": "urn:uuid:cd7bdc8a-0bec-4bc7-b5cd-a2e41dafb46f"
              }
            ],
            "code": {
              "coding": [
                {
                  "system": "http://loinc.org",
                  "code": "48765-2",
                  "display": "Allergies and adverse reactions Document"
                }
              ]
            },
            "title": "Allergies and Intolerances"
          },
          {
            "text": {
              "status": "generated",
              "div": "<div xmlns=\"http://www.w3.org/1999/xhtml\"><table class=\"hl7__ips\"><tr><td>Influenza virus antigen only vaccine product</td><td>2025-01-20</td></tr><tr><td>Clostridium tetani toxoid antigen adsorbed only vaccine product</td><td>2022-01-03</td></tr><tr><td>SARS-CoV-2 mRNA vaccine</td><td>2021-03-22</td></tr><tr><td>Streptococcus pneumoniae Danish serotype 1</td><td>2016-12-05</td></tr><tr><td>Streptococcus pneumoniae Danish serotype 1</td><td>2015-11-30</td></tr></table></div>"
            },
            "entry": [
              {
                "reference": "urn:uuid:99fab7eb-16ef-4d33-b048-609951b1a418"
              },
              {
                "reference": "urn:uuid:2bb1e425-1f82-4478-ab36-9c6b6e9478a2"
              },
              {
                "reference": "urn:uuid:df00db94-646d-430c-871a-1190b9a11f46"
              },
              {
                "reference": "urn:uuid:b5e955d5-49ff-4cc1-a496-2b7034e2efd6"
              },
              {
                "reference": "urn:uuid:360db9c8-ee8d-4c9d-8c37-feb57bd5b31c"
              }
            ],
            "code": {
              "coding": [
                {
                  "system": "http://loinc.org",
                  "code": "11369-6",
                  "display": "History of Immunization Narrative"
                }
              ]
            },
            "title": "Immunizations list"
          }
        ],
        "title": "European Patient Summary",
        "status": "final",
        "subject": {
          "reference": "urn:uuid:774a975f-e9fa-4272-bbf3-150c8444dc4e"
        },
        "custodian": {
          "reference": "urn:uuid:e5412624-b158-4ab5-88c2-992a95515de8"
        },
        "date": "2025-06-16T17:28:57Z",
        "confidentiality": "N"
      }
    },
    {
      "fullUrl": "urn:uuid:774a975f-e9fa-4272-bbf3-150c8444dc4e",
      "resource": {
        "resourceType": "Patient",
        "id": "774a975f-e9fa-4272-bbf3-150c8444dc4e",
        "meta": {
          "profile": [
            "http://hl7.eu/fhir/eps/StructureDefinition/patient-eu-eps"
          ]
        },
        "identifier": [
          {
            "type": {
              "coding": [
                {
                  "code": "NI",
                  "system": "http://terminology.hl7.org/CodeSystem/v2-0203"
                }
              ]
            },
            "system": "http://ec.europa.eu/identifier/eci",
            "value": "3040-687841-0"
          },
          {
            "type": {
              "coding": [
                {
                  "code": "MR",
                  "system": "http://terminology.hl7.org/CodeSystem/v2-0203"
                }
              ]
            },
            "system": "http://local.setting.eu/identifier",
            "value": "17137ad1-df08-a285-9598-7854bb9a9c06"
          }
        ],
        "name": [
          {
            "given": [
              "Silvana"
            ],
            "family": "Plak",
            "text": "Silvana Plak"
          }
        ],
        "address": [
          {
            "line": [
              "Michaelkirchstr. 48"
            ],
            "use": "home",
            "type": "physical",
            "city": "Barum",
            "postalCode": "29576",
            "country": "Germany"
          }
        ],
        "telecom": [
          {
            "system": "phone",
            "value": "+49 05806 34 32 43"
          }
        ],
        "gender": "female",
        "birthDate": "1957-02-04"
      }
    },
    {
      "fullUrl": "urn:uuid:2593a922-fe56-45ed-940d-00b68f643528",
      "resource": {
        "resourceType": "PractitionerRole",
        "id": "2593a922-fe56-45ed-940d-00b68f643528",
        "meta": {
          "profile": [
            "http://hl7.eu/fhir/base/StructureDefinition/practitionerRole-eu"
          ]
        },
        "practitioner": {
          "reference": "urn:uuid:b2f165c4-604a-405f-8524-42a125fdb165"
        },
        "organization": {
          "reference": "urn:uuid:e5412624-b158-4ab5-88c2-992a95515de8"
        }
      }
    },
    {
      "fullUrl": "urn:uuid:b2f165c4-604a-405f-8524-42a125fdb165",
      "resource": {
        "resourceType": "Practitioner",
        "id": "b2f165c4-604a-405f-8524-42a125fdb165",
        "meta": {
          "profile": [
            "http://hl7.eu/fhir/base/StructureDefinition/practitioner-eu"
          ]
        },
        "name": [
          {
            "prefix": [
              "Dr."
            ],
            "given": [
              "Hel"
            ],
            "family": "Ping"
          }
        ]
      }
    },
    {
      "fullUrl": "urn:uuid:8aab8257-2b63-4cce-bed4-6a966db02c06",
      "resource": {
        "resourceType": "Condition",
        "id": "8aab8257-2b63-4cce-bed4-6a966db02c06",
        "meta": {
          "profile": [
            "http://hl7.org/fhir/uv/ips/StructureDefinition/Condition-uv-ips"
          ]
        },
        "category": [
          {
            "coding": [
              {
                "code": "problem-list-item",
                "system": "http://terminology.hl7.org/CodeSystem/condition-category",
                "display": "Problem List Item"
              }
            ]
          }
        ],
        "code": {
          "coding": [
            {
              "code": "40055000",
              "system": "http://snomed.info/sct",
              "display": "Chronic sinusitis (disorder)"
            }
          ],
          "text": "Chronic sinusitis"
        },
        "onsetDateTime": "2016-06-25",
        "clinicalStatus": {
          "coding": [
            {
              "code": "active",
              "system": "http://terminology.hl7.org/CodeSystem/condition-clinical"
            }
          ]
        },
        "subject": {
          "reference": "Patient/774a975f-e9fa-4272-bbf3-150c8444dc4e",
          "display": "Silvana Plak"
        },
        "asserter": {
          "reference": "Practitioner/b2f165c4-604a-405f-8524-42a125fdb165",
          "display": "Dr. Hel Ping"
        }
      }
    },
    {
      "fullUrl": "urn:uuid:8b280a18-4c11-4886-b49d-5956fe6a87e4",
      "resource": {
        "resourceType": "Condition",
        "id": "8b280a18-4c11-4886-b49d-5956fe6a87e4",
        "meta": {
          "profile": [
            "http://hl7.org/fhir/uv/ips/StructureDefinition/Condition-uv-ips"
          ]
        },
        "category": [
          {
            "coding": [
              {
                "code": "problem-list-item",
                "system": "http://terminology.hl7.org/CodeSystem/condition-category",
                "display": "Problem List Item"
              }
            ]
          }
        ],
        "code": {
          "coding": [
            {
              "code": "64859006",
              "system": "http://snomed.info/sct",
              "display": "Osteoporosis (disorder)"
            }
          ],
          "text": "Osteoporosis"
        },
        "onsetDateTime": "2010-11-01",
        "clinicalStatus": {
          "coding": [
            {
              "code": "active",
              "system": "http://terminology.hl7.org/CodeSystem/condition-clinical"
            }
          ]
        },
        "subject": {
          "reference": "Patient/774a975f-e9fa-4272-bbf3-150c8444dc4e",
          "display": "Silvana Plak"
        },
        "asserter": {
          "reference": "Practitioner/b2f165c4-604a-405f-8524-42a125fdb165",
          "display": "Dr. Hel Ping"
        }
      }
    },
    {
      "fullUrl": "urn:uuid:9637f269-b7b5-44dd-9744-a24d8a4a686b",
      "resource": {
        "resourceType": "Condition",
        "id": "9637f269-b7b5-44dd-9744-a24d8a4a686b",
        "meta": {
          "profile": [
            "http://hl7.org/fhir/uv/ips/StructureDefinition/Condition-uv-ips"
          ]
        },
        "category": [
          {
            "coding": [
              {
                "code": "problem-list-item",
                "system": "http://terminology.hl7.org/CodeSystem/condition-category",
                "display": "Problem List Item"
              }
            ]
          }
        ],
        "code": {
          "coding": [
            {
              "code": "66383009",
              "system": "http://snomed.info/sct",
              "display": "Gingivitis (disorder)"
            }
          ],
          "text": "Gingivitis"
        },
        "onsetDateTime": "2025-01-21",
        "clinicalStatus": {
          "coding": [
            {
              "code": "inactive",
              "system": "http://terminology.hl7.org/CodeSystem/condition-clinical"
            }
          ]
        },
        "subject": {
          "reference": "Patient/774a975f-e9fa-4272-bbf3-150c8444dc4e",
          "display": "Silvana Plak"
        },
        "asserter": {
          "reference": "Practitioner/b2f165c4-604a-405f-8524-42a125fdb165",
          "display": "Dr. Hel Ping"
        }
      }
    },
    {
      "fullUrl": "urn:uuid:4a54ce09-fe8e-45dd-844d-17c827ca3472",
      "resource": {
        "resourceType": "Condition",
        "id": "4a54ce09-fe8e-45dd-844d-17c827ca3472",
        "meta": {
          "profile": [
            "http://hl7.org/fhir/uv/ips/StructureDefinition/Condition-uv-ips"
          ]
        },
        "category": [
          {
            "coding": [
              {
                "code": "problem-list-item",
                "system": "http://terminology.hl7.org/CodeSystem/condition-category",
                "display": "Problem List Item"
              }
            ]
          }
        ],
        "code": {
          "coding": [
            {
              "code": "444814009",
              "system": "http://snomed.info/sct",
              "display": "Viral sinusitis (disorder)"
            }
          ],
          "text": "Viral sinusitis"
        },
        "onsetDateTime": "2023-02-09",
        "clinicalStatus": {
          "coding": [
            {
              "code": "inactive",
              "system": "http://terminology.hl7.org/CodeSystem/condition-clinical"
            }
          ]
        },
        "subject": {
          "reference": "Patient/774a975f-e9fa-4272-bbf3-150c8444dc4e",
          "display": "Silvana Plak"
        },
        "asserter": {
          "reference": "Practitioner/b2f165c4-604a-405f-8524-42a125fdb165",
          "display": "Dr. Hel Ping"
        }
      }
    },
    {
      "fullUrl": "urn:uuid:6a58d266-16c2-4366-bb2c-6a0156131fdc",
      "resource": {
        "resourceType": "Condition",
        "id": "6a58d266-16c2-4366-bb2c-6a0156131fdc",
        "meta": {
          "profile": [
            "http://hl7.org/fhir/uv/ips/StructureDefinition/Condition-uv-ips"
          ]
        },
        "category": [
          {
            "coding": [
              {
                "code": "problem-list-item",
                "system": "http://terminology.hl7.org/CodeSystem/condition-category",
                "display": "Problem List Item"
              }
            ]
          }
        ],
        "code": {
          "coding": [
            {
              "code": "195662009",
              "system": "http://snomed.info/sct",
              "display": "Acute viral pharyngitis (disorder)"
            }
          ],
          "text": "Acute viral pharyngitis"
        },
        "onsetDateTime": "2020-09-18",
        "clinicalStatus": {
          "coding": [
            {
              "code": "inactive",
              "system": "http://terminology.hl7.org/CodeSystem/condition-clinical"
            }
          ]
        },
        "subject": {
          "reference": "Patient/774a975f-e9fa-4272-bbf3-150c8444dc4e",
          "display": "Silvana Plak"
        },
        "asserter": {
          "reference": "Practitioner/b2f165c4-604a-405f-8524-42a125fdb165",
          "display": "Dr. Hel Ping"
        }
      }
    },
    {
      "fullUrl": "urn:uuid:60d45d31-bdef-4039-9c61-ef5b69af0f47",
      "resource": {
        "resourceType": "Condition",
        "id": "60d45d31-bdef-4039-9c61-ef5b69af0f47",
        "meta": {
          "profile": [
            "http://hl7.org/fhir/uv/ips/StructureDefinition/Condition-uv-ips"
          ]
        },
        "category": [
          {
            "coding": [
              {
                "code": "problem-list-item",
                "system": "http://terminology.hl7.org/CodeSystem/condition-category",
                "display": "Problem List Item"
              }
            ]
          }
        ],
        "code": {
          "coding": [
            {
              "code": "44465007",
              "system": "http://snomed.info/sct",
              "display": "Sprain of ankle (disorder)"
            }
          ],
          "text": "Sprain of ankle"
        },
        "onsetDateTime": "2018-01-04",
        "clinicalStatus": {
          "coding": [
            {
              "code": "inactive",
              "system": "http://terminology.hl7.org/CodeSystem/condition-clinical"
            }
          ]
        },
        "subject": {
          "reference": "Patient/774a975f-e9fa-4272-bbf3-150c8444dc4e",
          "display": "Silvana Plak"
        },
        "asserter": {
          "reference": "Practitioner/b2f165c4-604a-405f-8524-42a125fdb165",
          "display": "Dr. Hel Ping"
        }
      }
    },
    {
      "fullUrl": "urn:uuid:7861ffc9-83ad-4213-962a-c2b0bbce1d56",
      "resource": {
        "resourceType": "Condition",
        "id": "7861ffc9-83ad-4213-962a-c2b0bbce1d56",
        "meta": {
          "profile": [
            "http://hl7.org/fhir/uv/ips/StructureDefinition/Condition-uv-ips"
          ]
        },
        "category": [
          {
            "coding": [
              {
                "code": "problem-list-item",
                "system": "http://terminology.hl7.org/CodeSystem/condition-category",
                "display": "Problem List Item"
              }
            ]
          }
        ],
        "code": {
          "coding": [
            {
              "code": "444814009",
              "system": "http://snomed.info/sct",
              "display": "Viral sinusitis (disorder)"
            }
          ],
          "text": "Viral sinusitis"
        },
        "onsetDateTime": "2016-10-21",
        "clinicalStatus": {
          "coding": [
            {
              "code": "inactive",
              "system": "http://terminology.hl7.org/CodeSystem/condition-clinical"
            }
          ]
        },
        "subject": {
          "reference": "Patient/774a975f-e9fa-4272-bbf3-150c8444dc4e",
          "display": "Silvana Plak"
        },
        "asserter": {
          "reference": "Practitioner/b2f165c4-604a-405f-8524-42a125fdb165",
          "display": "Dr. Hel Ping"
        }
      }
    },
    {
      "fullUrl": "urn:uuid:05aa148d-4047-4312-b507-e1ffcc830f26",
      "resource": {
        "resourceType": "Condition",
        "id": "05aa148d-4047-4312-b507-e1ffcc830f26",
        "meta": {
          "profile": [
            "http://hl7.org/fhir/uv/ips/StructureDefinition/Condition-uv-ips"
          ]
        },
        "category": [
          {
            "coding": [
              {
                "code": "problem-list-item",
                "system": "http://terminology.hl7.org/CodeSystem/condition-category",
                "display": "Problem List Item"
              }
            ]
          }
        ],
        "code": {
          "coding": [
            {
              "code": "75498004",
              "system": "http://snomed.info/sct",
              "display": "Acute bacterial sinusitis (disorder)"
            }
          ],
          "text": "Acute bacterial sinusitis"
        },
        "onsetDateTime": "2016-06-11",
        "clinicalStatus": {
          "coding": [
            {
              "code": "inactive",
              "system": "http://terminology.hl7.org/CodeSystem/condition-clinical"
            }
          ]
        },
        "subject": {
          "reference": "Patient/774a975f-e9fa-4272-bbf3-150c8444dc4e",
          "display": "Silvana Plak"
        },
        "asserter": {
          "reference": "Practitioner/b2f165c4-604a-405f-8524-42a125fdb165",
          "display": "Dr. Hel Ping"
        }
      }
    },
    {
      "fullUrl": "urn:uuid:539d7c25-4782-4497-8070-b6d7a634f1c3",
      "resource": {
        "resourceType": "Medication",
        "id": "539d7c25-4782-4497-8070-b6d7a634f1c3",
        "meta": {
          "profile": [
            "http://hl7.org/fhir/uv/ips/StructureDefinition/Medication-uv-ips"
          ]
        },
        "code": {
          "coding": [
            {
              "code": "904419",
              "system": "http://www.nlm.nih.gov/research/umls/rxnorm",
              "display": "alendronic acid 10 MG Oral Tablet"
            },
            {
              "code": "783144007",
              "system": "http://snomed.info/sct",
              "display": "Product containing precisely alendronic acid (as alendronate sodium) 10 milligram/1 each conventional release oral tablet (clinical drug)"
            }
          ],
          "text": "Alendronic acid (as alendronate sodium) 10 mg oral tablet"
        },
        "form": {
          "coding": [
            {
              "code": "421026006",
              "system": "http://snomed.info/sct",
              "display": "Oral tablet"
            }
          ]
        },
        "ingredient": [
          {
            "itemCodeableConcept": {
              "coding": [
                {
                  "code": "391729003",
                  "system": "http://snomed.info/sct",
                  "display": "Alendronate sodium"
                }
              ]
            },
            "isActive": true
          }
        ]
      }
    },
    {
      "fullUrl": "urn:uuid:f149cee6-29c9-4352-9c4f-84e40c11a08b",
      "resource": {
        "resourceType": "MedicationStatement",
        "id": "f149cee6-29c9-4352-9c4f-84e40c11a08b",
        "effectivePeriod": {
          "start": "2025-01-20"
        },
        "dosage": [
          {
            "doseAndRate": [
              {
                "doseQuantity": {
                  "value": 1,
                  "unit": "{tbl}",
                  "code": "{tbl}"
                }
              }
            ],
            "timing": {
              "repeat": {
                "frequency": 1,
                "period": 1,
                "periodUnit": "d"
              }
            },
            "text": "1 tablet (10 mg) once daily",
            "asNeededBoolean": false
          }
        ],
        "reasonCode": [
          {
            "coding": [
              {
                "code": "64859006",
                "system": "http://snomed.info/sct",
                "display": "Osteoporosis (disorder)"
              }
            ]
          }
        ],
        "status": "active",
        "medicationReference": {
          "reference": "Medication/539d7c25-4782-4497-8070-b6d7a634f1c3",
          "display": "Alendronic acid (as alendronate sodium) 10 mg oral tablet"
        },
        "subject": {
          "reference": "Patient/774a975f-e9fa-4272-bbf3-150c8444dc4e",
          "display": "Silvana Plak"
        }
      }
    },
    {
      "fullUrl": "urn:uuid:67a2cc74-d08e-48e0-86cd-a238409969e0",
      "resource": {
        "resourceType": "Medication",
        "id": "67a2cc74-d08e-48e0-86cd-a238409969e0",
        "meta": {
          "profile": [
            "http://hl7.org/fhir/uv/ips/StructureDefinition/Medication-uv-ips"
          ]
        },
        "code": {
          "coding": [
            {
              "code": "310325",
              "system": "http://www.nlm.nih.gov/research/umls/rxnorm",
              "display": "ferrous sulfate 325 MG Oral Tablet"
            }
          ],
          "text": "ferrous sulfate 325 MG Oral Tablet"
        }
      }
    },
    {
      "fullUrl": "urn:uuid:e58b34ff-ad3a-4f85-b103-f1cdb1266c60",
      "resource": {
        "resourceType": "MedicationStatement",
        "id": "e58b34ff-ad3a-4f85-b103-f1cdb1266c60",
        "effectivePeriod": {
          "start": "1970-08-17"
        },
        "dosage": [
          {
            "doseAndRate": [
              {
                "doseQuantity": {
                  "value": 1,
                  "unit": "{tbl}",
                  "code": "{tbl}"
                }
              }
            ],
            "timing": {
              "repeat": {
                "frequency": 1,
                "period": 1,
                "periodUnit": "d"
              }
            },
            "text": "1 tablet (325 mg) by mouth once daily",
            "asNeededBoolean": false
          }
        ],
        "status": "active",
        "medicationReference": {
          "reference": "Medication/67a2cc74-d08e-48e0-86cd-a238409969e0",
          "display": "ferrous sulfate 325 MG Oral Tablet"
        },
        "subject": {
          "reference": "Patient/774a975f-e9fa-4272-bbf3-150c8444dc4e",
          "display": "Silvana Plak"
        }
      }
    },
    {
      "fullUrl": "urn:uuid:6f25e4aa-8dbe-432e-9729-dd2931b72ce8",
      "resource": {
        "resourceType": "Medication",
        "id": "6f25e4aa-8dbe-432e-9729-dd2931b72ce8",
        "meta": {
          "profile": [
            "http://hl7.org/fhir/uv/ips/StructureDefinition/Medication-uv-ips"
          ]
        },
        "code": {
          "coding": [
            {
              "code": "2001499",
              "system": "http://www.nlm.nih.gov/research/umls/rxnorm",
              "display": "Vitamin B12 5 MG/ML Injectable Solution"
            }
          ],
          "text": "Vitamin B12 5 MG/ML Injectable Solution"
        }
      }
    },
    {
      "fullUrl": "urn:uuid:5bcbec3b-16f4-43bc-b42f-19e43cbc9a3b",
      "resource": {
        "resourceType": "MedicationStatement",
        "id": "5bcbec3b-16f4-43bc-b42f-19e43cbc9a3b",
        "effectivePeriod": {
          "start": "1970-08-17"
        },
        "dosage": [
          {
            "doseAndRate": [
              {
                "doseQuantity": {
                  "value": 1,
                  "unit": "mL",
                  "code": "mL"
                }
              }
            ],
            "timing": {
              "repeat": {
                "frequency": 1,
                "period": 1,
                "periodUnit": "mo"
              }
            },
            "text": "1 mL (5 mg) intramuscularly once monthly",
            "asNeededBoolean": false
          }
        ],
        "status": "active",
        "medicationReference": {
          "reference": "Medication/6f25e4aa-8dbe-432e-9729-dd2931b72ce8",
          "display": "Vitamin B12 5 MG/ML Injectable Solution"
        },
        "subject": {
          "reference": "Patient/774a975f-e9fa-4272-bbf3-150c8444dc4e",
          "display": "Silvana Plak"
        }
      }
    },
    {
      "fullUrl": "urn:uuid:cd7bdc8a-0bec-4bc7-b5cd-a2e41dafb46f",
      "resource": {
        "resourceType": "AllergyIntolerance",
        "id": "cd7bdc8a-0bec-4bc7-b5cd-a2e41dafb46f",
        "meta": {
          "profile": [
            "http://hl7.eu/fhir/eps/StructureDefinition/allergyIntolerance-eu-eps"
          ]
        },
        "code": {
          "coding": [
            {
              "code": "716186003",
              "system": "http://snomed.info/sct",
              "display": "No known allergy (situation)"
            }
          ]
        },
        "patient": {
          "reference": "Patient/774a975f-e9fa-4272-bbf3-150c8444dc4e",
          "display": "Silvana Plak"
        },
        "_onsetDateTime": {
          "extension": [
            {
              "url": "http://hl7.org/fhir/StructureDefinition/data-absent-reason",
              "valueCode": "unknown"
            }
          ]
        }
      }
    },
    {
      "fullUrl": "urn:uuid:99fab7eb-16ef-4d33-b048-609951b1a418",
      "resource": {
        "resourceType": "Immunization",
        "id": "99fab7eb-16ef-4d33-b048-609951b1a418",
        "meta": {
          "profile": [
            "http://hl7.org/fhir/uv/ips/StructureDefinition/Immunization-uv-ips"
          ]
        },
        "vaccineCode": {
          "coding": [
            {
              "code": "1181000221105",
              "system": "http://snomed.info/sct",
              "display": "Vaccine product containing Influenza virus antigen"
            },
            {
              "code": "J07BB02",
              "system": "http://www.whocc.no/atc",
              "display": "Influenza, inactivated, split virus"
            },
            {
              "code": "140",
              "system": "http://hl7.org/fhir/sid/cvx",
              "display": "Influenza  seasonal  injectable  preservative free"
            }
          ],
          "text": "Influenza virus antigen only vaccine product"
        },
        "site": {
          "coding": [
            {
              "code": "73776007",
              "system": "http://snomed.info/sct",
              "display": "Structure of muscle of upper arm"
            }
          ],
          "text": "Structure of muscle of upper arm"
        },
        "route": {
          "coding": [
            {
              "code": "78421000",
              "system": "http://snomed.info/sct",
              "display": "Intramuscular route"
            }
          ],
          "text": "Intramuscular route"
        },
        "status": "completed",
        "patient": {
          "reference": "Patient/774a975f-e9fa-4272-bbf3-150c8444dc4e",
          "display": "Silvana Plak"
        },
        "occurrenceDateTime": "2025-01-20",
        "lotNumber": "OD-oppiJ",
        "expirationDate": "2025-04-26"
      }
    },
    {
      "fullUrl": "urn:uuid:2bb1e425-1f82-4478-ab36-9c6b6e9478a2",
      "resource": {
        "resourceType": "Immunization",
        "id": "2bb1e425-1f82-4478-ab36-9c6b6e9478a2",
        "meta": {
          "profile": [
            "http://hl7.org/fhir/uv/ips/StructureDefinition/Immunization-uv-ips"
          ]
        },
        "vaccineCode": {
          "coding": [
            {
              "code": "777725002",
              "system": "http://snomed.info/sct",
              "display": "Vaccine product containing only Clostridium tetani toxoid antigen adsorbed"
            },
            {
              "code": "J07AM51",
              "system": "http://www.whocc.no/atc",
              "display": "Diphtheria-tetanus vaccines, adult type"
            },
            {
              "code": "113",
              "system": "http://hl7.org/fhir/sid/cvx",
              "display": "Td (adult)  5 Lf tetanus toxoid  preservative free  adsorbed"
            }
          ],
          "text": "Clostridium tetani toxoid antigen adsorbed only vaccine product"
        },
        "site": {
          "coding": [
            {
              "code": "73776007",
              "system": "http://snomed.info/sct",
              "display": "Structure of muscle of upper arm"
            }
          ],
          "text": "Structure of muscle of upper arm"
        },
        "route": {
          "coding": [
            {
              "code": "78421000",
              "system": "http://snomed.info/sct",
              "display": "Intramuscular route"
            }
          ],
          "text": "Intramuscular route"
        },
        "status": "completed",
        "patient": {
          "reference": "Patient/774a975f-e9fa-4272-bbf3-150c8444dc4e",
          "display": "Silvana Plak"
        },
        "occurrenceDateTime": "2022-01-03",
        "lotNumber": "WB-KYXdnAp",
        "expirationDate": "2022-10-26"
      }
    },
    {
      "fullUrl": "urn:uuid:df00db94-646d-430c-871a-1190b9a11f46",
      "resource": {
        "resourceType": "Immunization",
        "id": "df00db94-646d-430c-871a-1190b9a11f46",
        "meta": {
          "profile": [
            "http://hl7.org/fhir/uv/ips/StructureDefinition/Immunization-uv-ips"
          ]
        },
        "vaccineCode": {
          "coding": [
            {
              "code": "1119349007",
              "system": "http://snomed.info/sct",
              "display": "Vaccine product containing SARS-CoV-2 mRNA"
            },
            {
              "code": "J07BX03",
              "system": "http://www.whocc.no/atc",
              "display": "COVID-19 mRNA vaccines"
            },
            {
              "code": "208",
              "system": "http://hl7.org/fhir/sid/cvx",
              "display": "COVID-19  mRNA  LNP-S  PF  30 mcg/0.3 mL dose"
            }
          ],
          "text": "SARS-CoV-2 mRNA vaccine"
        },
        "site": {
          "coding": [
            {
              "code": "73776007",
              "system": "http://snomed.info/sct",
              "display": "Structure of muscle of upper arm"
            }
          ],
          "text": "Structure of muscle of upper arm"
        },
        "route": {
          "coding": [
            {
              "code": "78421000",
              "system": "http://snomed.info/sct",
              "display": "Intramuscular route"
            }
          ],
          "text": "Intramuscular route"
        },
        "status": "completed",
        "patient": {
          "reference": "Patient/774a975f-e9fa-4272-bbf3-150c8444dc4e",
          "display": "Silvana Plak"
        },
        "occurrenceDateTime": "2021-03-22",
        "lotNumber": "PR-Mftg63",
        "expirationDate": "2022-02-16"
      }
    },
    {
      "fullUrl": "urn:uuid:b5e955d5-49ff-4cc1-a496-2b7034e2efd6",
      "resource": {
        "resourceType": "Immunization",
        "id": "b5e955d5-49ff-4cc1-a496-2b7034e2efd6",
        "meta": {
          "profile": [
            "http://hl7.org/fhir/uv/ips/StructureDefinition/Immunization-uv-ips"
          ]
        },
        "vaccineCode": {
          "coding": [
            {
              "code": "1252709000",
              "system": "http://snomed.info/sct",
              "display": "Vaccine product containing Streptococcus pneumoniae capsular polysaccharide antigens conjugated"
            },
            {
              "code": "J07AL01",
              "system": "http://www.whocc.no/atc",
              "display": "Pneumococcal polysaccharide vaccines"
            },
            {
              "code": "33",
              "system": "http://hl7.org/fhir/sid/cvx",
              "display": "pneumococcal polysaccharide vaccine  23 valent"
            }
          ],
          "text": "Streptococcus pneumoniae Danish serotype 1"
        },
        "site": {
          "coding": [
            {
              "code": "73776007",
              "system": "http://snomed.info/sct",
              "display": "Structure of muscle of upper arm"
            }
          ],
          "text": "Structure of muscle of upper arm"
        },
        "route": {
          "coding": [
            {
              "code": "78421000",
              "system": "http://snomed.info/sct",
              "display": "Intramuscular route"
            }
          ],
          "text": "Intramuscular route"
        },
        "status": "completed",
        "patient": {
          "reference": "Patient/774a975f-e9fa-4272-bbf3-150c8444dc4e",
          "display": "Silvana Plak"
        },
        "occurrenceDateTime": "2016-12-05",
        "lotNumber": "LA-zpam",
        "expirationDate": "2017-04-05"
      }
    },
    {
      "fullUrl": "urn:uuid:360db9c8-ee8d-4c9d-8c37-feb57bd5b31c",
      "resource": {
        "resourceType": "Immunization",
        "id": "360db9c8-ee8d-4c9d-8c37-feb57bd5b31c",
        "meta": {
          "profile": [
            "http://hl7.org/fhir/uv/ips/StructureDefinition/Immunization-uv-ips"
          ]
        },
        "vaccineCode": {
          "coding": [
            {
              "code": "51451000087105",
              "system": "http://snomed.info/sct",
              "display": "Vaccine product containing Streptococcus pneumoniae capsular polysaccharide antigens conjugated"
            },
            {
              "code": "J07AL02",
              "system": "http://www.whocc.no/atc",
              "display": "Pneumococcal conjugate vaccines"
            },
            {
              "code": "133",
              "system": "http://hl7.org/fhir/sid/cvx",
              "display": "Pneumococcal conjugate PCV 13"
            }
          ],
          "text": "Streptococcus pneumoniae Danish serotype 1"
        },
        "site": {
          "coding": [
            {
              "code": "73776007",
              "system": "http://snomed.info/sct",
              "display": "Structure of muscle of upper arm"
            }
          ],
          "text": "Structure of muscle of upper arm"
        },
        "route": {
          "coding": [
            {
              "code": "78421000",
              "system": "http://snomed.info/sct",
              "display": "Intramuscular route"
            }
          ],
          "text": "Intramuscular route"
        },
        "status": "completed",
        "patient": {
          "reference": "Patient/774a975f-e9fa-4272-bbf3-150c8444dc4e",
          "display": "Silvana Plak"
        },
        "occurrenceDateTime": "2015-11-30",
        "lotNumber": "YQ-YDM9",
        "expirationDate": "2016-06-10"
      }
    }
  ],
  "type": "document",
  "timestamp": "2025-06-16T17:28:57Z"
}
