{
  "resourceType": "Bundle",
  "id": "Instance-Bundle-477ab790-1301-4e8e-ba2e-9b568584a03a",
  "meta": {
    "profile": [
      "http://hl7.eu/fhir/eps/StructureDefinition/bundle-eu-eps"
    ]
  },
  "identifier": {
    "assigner": {
      "display": "HL7 Europe"
    },
    "system": "urn:oid:2.16.840.1.113883.2.51.999",
    "value": "aa6bce10-35a3-4114-94aa-b846460f72a5"
  },
  "entry": [
    {
      "fullUrl": "urn:uuid:46ed027f-65d0-48be-8b9f-c038d1043761",
      "resource": {
        "resourceType": "Composition",
        "id": "46ed027f-65d0-48be-8b9f-c038d1043761",
        "meta": {
          "profile": [
            "http://hl7.eu/fhir/eps/StructureDefinition/composition-eu-eps"
          ]
        },
        "identifier": {
          "assigner": {
            "display": "HL7 Europe"
          },
          "system": "urn:oid:2.16.840.1.113883.2.51.999",
          "value": "cdba09c4-f230-4b8d-84bc-2def2fd6c1bb"
        },
        "type": {
          "coding": [
            {
              "system": "http://loinc.org",
              "code": "60591-5",
              "display": "European Patient Summary"
            }
          ],
          "text": "European Patient Summary"
        },
        "author": [
          {
            "reference": "urn:uuid:e37dfb61-9034-47d4-b467-f9d4e182261d"
          }
        ],
        "section": [
          {
            "text": {
              "status": "generated",
              "div": "<div xmlns=\"http://www.w3.org/1999/xhtml\"><table class=\"hl7__ips\"><tr><td>Ischemic heart disease</td><td>2024-12-01</td><td>active</td></tr><tr><td>Hyperlipidemia</td><td>2018-12-09</td><td>active</td></tr><tr><td>Sepsis</td><td>2016-01-28</td><td>active</td></tr><tr><td>Malignant neoplasm of breast</td><td>2012-10-03</td><td>active</td></tr><tr><td>Gingivitis</td><td>2024-12-01</td><td>inactive</td></tr><tr><td>Streptococcal sore throat</td><td>2023-03-03</td><td>inactive</td></tr><tr><td>Acute bronchitis</td><td>2020-10-16</td><td>inactive</td></tr><tr><td>Viral sinusitis</td><td>2020-03-11</td><td>inactive</td></tr><tr><td>Acute bronchitis</td><td>2015-05-31</td><td>inactive</td></tr><tr><td>Acute viral pharyngitis</td><td>2015-05-02</td><td>inactive</td></tr></table></div>"
            },
            "entry": [
              {
                "reference": "urn:uuid:1c8bdef0-24ef-43d7-ab8a-bf4c6df1b8ba"
              },
              {
                "reference": "urn:uuid:a4edb5d9-0293-490f-a972-7591df074d12"
              },
              {
                "reference": "urn:uuid:0a117105-1aa4-4547-84a0-f1265b975e11"
              },
              {
                "reference": "urn:uuid:84eff762-b5b4-423d-8069-70c266a32fe5"
              },
              {
                "reference": "urn:uuid:03ba7355-e6b1-4c07-81b5-5effb337f0d5"
              },
              {
                "reference": "urn:uuid:910d42af-db11-411a-8a5e-ad0327bdc65c"
              },
              {
                "reference": "urn:uuid:97ba134f-5a73-4c64-9f5b-acbc954e41c8"
              },
              {
                "reference": "urn:uuid:e6ecaf0e-b859-4128-b838-5f6ffe39516a"
              },
              {
                "reference": "urn:uuid:2e2b8532-e8db-4b15-b8f1-d87a1d1190b6"
              },
              {
                "reference": "urn:uuid:1d1bcaa7-c9eb-4572-ab23-163ae9011fa0"
              }
            ],
            "code": {
              "coding": [
                {
                  "system": "http://loinc.org",
                  "code": "11450-4",
                  "display": "Problem list - Reported"
                }
              ]
            },
            "title": "Problem list"
          },
          {
            "text": {
              "status": "generated",
              "div": "<div xmlns=\"http://www.w3.org/1999/xhtml\"><table class=\"hl7__ips\"><tr><td>Simvastatin 10 mg oral tablet</td><td>2025-01-12</td><td>Oral tablet</td><td>1 tablet (10 mg) by mouth once daily\"</td><td>Reason: Hyperlipidemia (disorder)</td></tr><tr><td>Clopidogrel (as clopidogrel bisulfate) 75 mg oral tablet</td><td>2024-12-08</td><td>Oral tablet</td><td>1 tablet (75 mg) by mouth once daily\"</td><td></td></tr><tr><td>Simvastatin 20 mg oral tablet</td><td>2024-12-08</td><td>Oral tablet</td><td>1 tablet (20 mg) once daily\"</td><td></td></tr><tr><td>Nitroglycerin 400 microgram/actuation sublingual spray</td><td>2024-12-08</td><td>Sublingual spray</td><td>400 micrograms per spray, spray one dose under the tongue as needed for chest pain, repeat every 5 minutes as needed, up to 3 doses in 15 minutes\"</td><td></td></tr><tr><td>Metoprolol tartrate (as metoprolol succinate) 100 mg prolonged-release oral tablet</td><td>2024-12-08</td><td>Prolonged-release oral tablet</td><td>1 tablet (100 mg) once daily\"</td><td></td></tr></table></div>"
            },
            "entry": [
              {
                "reference": "urn:uuid:b3c401f0-fafc-4e1c-8036-eef6e3c143dc"
              },
              {
                "reference": "urn:uuid:74eb7b26-97e9-499b-a604-03a16d42d111"
              },
              {
                "reference": "urn:uuid:4e8d6bd4-4935-4ff3-ae1d-cd5bfb101bc9"
              },
              {
                "reference": "urn:uuid:ece60564-9be8-4032-833d-063e5d03042d"
              },
              {
                "reference": "urn:uuid:d6cdb00b-1a4a-4ade-87d9-a521cd5ab813"
              }
            ],
            "code": {
              "coding": [
                {
                  "system": "http://loinc.org",
                  "code": "10160-0",
                  "display": "History of Medication use Narrative"
                }
              ]
            },
            "title": "Medication list"
          },
          {
            "text": {
              "status": "generated",
              "div": "<div xmlns=\"http://www.w3.org/1999/xhtml\"><table class=\"hl7__ips\"><tr><td>No known allergies or intolerances</td></tr></table></div>"
            },
            "entry": [
              {
                "reference": "urn:uuid:3bdcde14-b91f-4d54-b4a9-6cf95e618e77"
              }
            ],
            "code": {
              "coding": [
                {
                  "system": "http://loinc.org",
                  "code": "48765-2",
                  "display": "Allergies and adverse reactions Document"
                }
              ]
            },
            "title": "Allergies and Intolerances"
          },
          {
            "text": {
              "status": "generated",
              "div": "<div xmlns=\"http://www.w3.org/1999/xhtml\"><table class=\"hl7__ips\"><tr><td>Postoperative procedure education</td><td>2025-01-12</td><td>History of coronary artery bypass grafting (situation)</td></tr><tr><td>Stair-climbing test</td><td>2025-01-12</td><td>History of coronary artery bypass grafting (situation)</td></tr><tr><td>Walking exercise test</td><td>2025-01-12</td><td>History of coronary artery bypass grafting (situation)</td></tr><tr><td>Discharge to ward</td><td>2025-01-12</td><td>-</td></tr><tr><td>Discharge from hospital</td><td>2025-01-12</td><td>History of coronary artery bypass grafting (situation)</td></tr><tr><td>Electrocardiographic procedure</td><td>2025-01-11</td><td>-</td></tr><tr><td>Plain X-ray of chest</td><td>2025-01-11</td><td>-</td></tr><tr><td>Transfusion of packed red blood cells</td><td>2025-01-10</td><td>-</td></tr><tr><td>Removal of endotracheal tube</td><td>2025-01-09</td><td>-</td></tr><tr><td>Resuscitation using intravenous fluid</td><td>2016-01-28</td><td>Sepsis (disorder)</td></tr><tr><td>Transfer to stepdown unit</td><td>2016-01-28</td><td>Sepsis (disorder)</td></tr></table></div>"
            },
            "entry": [
              {
                "reference": "urn:uuid:9bb62b4f-7e8d-41d5-ad92-09a8702e0c28"
              },
              {
                "reference": "urn:uuid:387faf10-8cb7-4448-9703-24014dd49f03"
              },
              {
                "reference": "urn:uuid:49281863-8610-4a38-828c-c642457fda65"
              },
              {
                "reference": "urn:uuid:ef6736c5-22bc-4e9e-9bbe-84e279879623"
              },
              {
                "reference": "urn:uuid:35a11f84-1d15-418e-b3d0-f4d110bf7499"
              },
              {
                "reference": "urn:uuid:9bab230b-0358-4c4a-ab7b-77240ac6142f"
              },
              {
                "reference": "urn:uuid:a1ddde95-0293-452c-9af9-4feb92e0fcf0"
              },
              {
                "reference": "urn:uuid:c0ce40dc-3cff-41e2-b521-d5ae08cc9910"
              },
              {
                "reference": "urn:uuid:87ea684a-ac81-4ea0-a289-18ff11c47fe8"
              },
              {
                "reference": "urn:uuid:6e5e9c77-8350-4dc3-ba81-065b12264753"
              },
              {
                "reference": "urn:uuid:d1a3c11e-5763-43af-8822-9401d038c04d"
              }
            ],
            "code": {
              "coding": [
                {
                  "system": "http://loinc.org",
                  "code": "47519-4",
                  "display": "History of Procedures Document"
                }
              ]
            },
            "title": "Procedure History list"
          },
          {
            "text": {
              "status": "generated",
              "div": "<div xmlns=\"http://www.w3.org/1999/xhtml\"><table class=\"hl7__ips\"><tr><td>Influenza virus antigen only vaccine product</td><td>2024-12-01</td></tr><tr><td>Clostridium tetani toxoid antigen adsorbed only vaccine product</td><td>2023-11-26</td></tr><tr><td>Live attenuated Human alphaherpesvirus 3 only vaccine product</td><td>2023-11-26</td></tr><tr><td>SARS-CoV-2 mRNA vaccine</td><td>2021-08-15</td></tr></table></div>"
            },
            "entry": [
              {
                "reference": "urn:uuid:f3e700c5-cedd-480a-8028-70d251c80450"
              },
              {
                "reference": "urn:uuid:532665d3-c449-476c-99de-9b405020fbb4"
              },
              {
                "reference": "urn:uuid:274b6f3a-1960-4dc8-9360-4528844e25de"
              },
              {
                "reference": "urn:uuid:efb1e94b-2d82-48af-9989-523cbf9400be"
              }
            ],
            "code": {
              "coding": [
                {
                  "system": "http://loinc.org",
                  "code": "11369-6",
                  "display": "History of Immunization Narrative"
                }
              ]
            },
            "title": "Immunizations list"
          }
        ],
        "title": "European Patient Summary",
        "status": "final",
        "subject": {
          "reference": "urn:uuid:613a627f-1c33-4469-9941-2ba81a80cd25"
        },
        "custodian": {
          "reference": "urn:uuid:eb84002c-6381-4ad9-bf0d-97e75b8710bd"
        },
        "date": "2025-06-16T17:19:49Z",
        "confidentiality": "N"
      }
    },
    {
      "fullUrl": "urn:uuid:613a627f-1c33-4469-9941-2ba81a80cd25",
      "resource": {
        "resourceType": "Patient",
        "id": "613a627f-1c33-4469-9941-2ba81a80cd25",
        "meta": {
          "profile": [
            "http://hl7.eu/fhir/eps/StructureDefinition/patient-eu-eps"
          ]
        },
        "identifier": [
          {
            "type": {
              "coding": [
                {
                  "code": "NI",
                  "system": "http://terminology.hl7.org/CodeSystem/v2-0203"
                }
              ]
            },
            "system": "http://ec.europa.eu/identifier/eci",
            "value": "6132-571926-0"
          },
          {
            "type": {
              "coding": [
                {
                  "code": "MR",
                  "system": "http://terminology.hl7.org/CodeSystem/v2-0203"
                }
              ]
            },
            "system": "http://local.setting.eu/identifier",
            "value": "f952d41f-c3ee-717c-4185-e02cd757ad7e"
          }
        ],
        "name": [
          {
            "given": [
              "Eliane"
            ],
            "family": "Rijneveld",
            "text": "Eliane Rijneveld"
          }
        ],
        "address": [
          {
            "line": [
              "Taille Maréchal 477"
            ],
            "use": "home",
            "type": "physical",
            "city": "Ganshoren",
            "postalCode": "1083",
            "country": "Belgium"
          }
        ],
        "telecom": [
          {
            "system": "phone",
            "value": "+32 0499 89 61 55"
          }
        ],
        "gender": "female",
        "birthDate": "1969-02-25"
      }
    },
    {
      "fullUrl": "urn:uuid:e37dfb61-9034-47d4-b467-f9d4e182261d",
      "resource": {
        "resourceType": "PractitionerRole",
        "id": "e37dfb61-9034-47d4-b467-f9d4e182261d",
        "meta": {
          "profile": [
            "http://hl7.eu/fhir/base/StructureDefinition/practitionerRole-eu"
          ]
        },
        "practitioner": {
          "reference": "urn:uuid:50e4e298-7633-4fc3-9708-c8938685acf0"
        },
        "organization": {
          "reference": "urn:uuid:eb84002c-6381-4ad9-bf0d-97e75b8710bd"
        }
      }
    },
    {
      "fullUrl": "urn:uuid:50e4e298-7633-4fc3-9708-c8938685acf0",
      "resource": {
        "resourceType": "Practitioner",
        "id": "50e4e298-7633-4fc3-9708-c8938685acf0",
        "meta": {
          "profile": [
            "http://hl7.eu/fhir/base/StructureDefinition/practitioner-eu"
          ]
        },
        "name": [
          {
            "prefix": [
              "Dr."
            ],
            "given": [
              "Hel"
            ],
            "family": "Ping"
          }
        ]
      }
    },
    {
      "fullUrl": "urn:uuid:1c8bdef0-24ef-43d7-ab8a-bf4c6df1b8ba",
      "resource": {
        "resourceType": "Condition",
        "id": "1c8bdef0-24ef-43d7-ab8a-bf4c6df1b8ba",
        "meta": {
          "profile": [
            "http://hl7.org/fhir/uv/ips/StructureDefinition/Condition-uv-ips"
          ]
        },
        "category": [
          {
            "coding": [
              {
                "code": "problem-list-item",
                "system": "http://terminology.hl7.org/CodeSystem/condition-category",
                "display": "Problem List Item"
              }
            ]
          }
        ],
        "code": {
          "coding": [
            {
              "code": "414545008",
              "system": "http://snomed.info/sct",
              "display": "Ischemic heart disease (disorder)"
            }
          ],
          "text": "Ischemic heart disease"
        },
        "onsetDateTime": "2024-12-01",
        "clinicalStatus": {
          "coding": [
            {
              "code": "active",
              "system": "http://terminology.hl7.org/CodeSystem/condition-clinical"
            }
          ]
        },
        "subject": {
          "reference": "Patient/613a627f-1c33-4469-9941-2ba81a80cd25",
          "display": "Eliane Rijneveld"
        },
        "asserter": {
          "reference": "Practitioner/50e4e298-7633-4fc3-9708-c8938685acf0",
          "display": "Dr. Hel Ping"
        }
      }
    },
    {
      "fullUrl": "urn:uuid:a4edb5d9-0293-490f-a972-7591df074d12",
      "resource": {
        "resourceType": "Condition",
        "id": "a4edb5d9-0293-490f-a972-7591df074d12",
        "meta": {
          "profile": [
            "http://hl7.org/fhir/uv/ips/StructureDefinition/Condition-uv-ips"
          ]
        },
        "category": [
          {
            "coding": [
              {
                "code": "problem-list-item",
                "system": "http://terminology.hl7.org/CodeSystem/condition-category",
                "display": "Problem List Item"
              }
            ]
          }
        ],
        "code": {
          "coding": [
            {
              "code": "55822004",
              "system": "http://snomed.info/sct",
              "display": "Hyperlipidemia (disorder)"
            }
          ],
          "text": "Hyperlipidemia"
        },
        "onsetDateTime": "2018-12-09",
        "clinicalStatus": {
          "coding": [
            {
              "code": "active",
              "system": "http://terminology.hl7.org/CodeSystem/condition-clinical"
            }
          ]
        },
        "subject": {
          "reference": "Patient/613a627f-1c33-4469-9941-2ba81a80cd25",
          "display": "Eliane Rijneveld"
        },
        "asserter": {
          "reference": "Practitioner/50e4e298-7633-4fc3-9708-c8938685acf0",
          "display": "Dr. Hel Ping"
        }
      }
    },
    {
      "fullUrl": "urn:uuid:0a117105-1aa4-4547-84a0-f1265b975e11",
      "resource": {
        "resourceType": "Condition",
        "id": "0a117105-1aa4-4547-84a0-f1265b975e11",
        "meta": {
          "profile": [
            "http://hl7.org/fhir/uv/ips/StructureDefinition/Condition-uv-ips"
          ]
        },
        "category": [
          {
            "coding": [
              {
                "code": "problem-list-item",
                "system": "http://terminology.hl7.org/CodeSystem/condition-category",
                "display": "Problem List Item"
              }
            ]
          }
        ],
        "code": {
          "coding": [
            {
              "code": "91302008",
              "system": "http://snomed.info/sct",
              "display": "Sepsis (disorder)"
            }
          ],
          "text": "Sepsis"
        },
        "onsetDateTime": "2016-01-28",
        "clinicalStatus": {
          "coding": [
            {
              "code": "active",
              "system": "http://terminology.hl7.org/CodeSystem/condition-clinical"
            }
          ]
        },
        "subject": {
          "reference": "Patient/613a627f-1c33-4469-9941-2ba81a80cd25",
          "display": "Eliane Rijneveld"
        },
        "asserter": {
          "reference": "Practitioner/50e4e298-7633-4fc3-9708-c8938685acf0",
          "display": "Dr. Hel Ping"
        }
      }
    },
    {
      "fullUrl": "urn:uuid:84eff762-b5b4-423d-8069-70c266a32fe5",
      "resource": {
        "resourceType": "Condition",
        "id": "84eff762-b5b4-423d-8069-70c266a32fe5",
        "meta": {
          "profile": [
            "http://hl7.org/fhir/uv/ips/StructureDefinition/Condition-uv-ips"
          ]
        },
        "category": [
          {
            "coding": [
              {
                "code": "problem-list-item",
                "system": "http://terminology.hl7.org/CodeSystem/condition-category",
                "display": "Problem List Item"
              }
            ]
          }
        ],
        "code": {
          "coding": [
            {
              "code": "254837009",
              "system": "http://snomed.info/sct",
              "display": "Malignant neoplasm of breast (disorder)"
            }
          ],
          "text": "Malignant neoplasm of breast"
        },
        "onsetDateTime": "2012-10-03",
        "clinicalStatus": {
          "coding": [
            {
              "code": "active",
              "system": "http://terminology.hl7.org/CodeSystem/condition-clinical"
            }
          ]
        },
        "subject": {
          "reference": "Patient/613a627f-1c33-4469-9941-2ba81a80cd25",
          "display": "Eliane Rijneveld"
        },
        "asserter": {
          "reference": "Practitioner/50e4e298-7633-4fc3-9708-c8938685acf0",
          "display": "Dr. Hel Ping"
        }
      }
    },
    {
      "fullUrl": "urn:uuid:03ba7355-e6b1-4c07-81b5-5effb337f0d5",
      "resource": {
        "resourceType": "Condition",
        "id": "03ba7355-e6b1-4c07-81b5-5effb337f0d5",
        "meta": {
          "profile": [
            "http://hl7.org/fhir/uv/ips/StructureDefinition/Condition-uv-ips"
          ]
        },
        "category": [
          {
            "coding": [
              {
                "code": "problem-list-item",
                "system": "http://terminology.hl7.org/CodeSystem/condition-category",
                "display": "Problem List Item"
              }
            ]
          }
        ],
        "code": {
          "coding": [
            {
              "code": "66383009",
              "system": "http://snomed.info/sct",
              "display": "Gingivitis (disorder)"
            }
          ],
          "text": "Gingivitis"
        },
        "onsetDateTime": "2024-12-01",
        "clinicalStatus": {
          "coding": [
            {
              "code": "inactive",
              "system": "http://terminology.hl7.org/CodeSystem/condition-clinical"
            }
          ]
        },
        "subject": {
          "reference": "Patient/613a627f-1c33-4469-9941-2ba81a80cd25",
          "display": "Eliane Rijneveld"
        },
        "asserter": {
          "reference": "Practitioner/50e4e298-7633-4fc3-9708-c8938685acf0",
          "display": "Dr. Hel Ping"
        }
      }
    },
    {
      "fullUrl": "urn:uuid:910d42af-db11-411a-8a5e-ad0327bdc65c",
      "resource": {
        "resourceType": "Condition",
        "id": "910d42af-db11-411a-8a5e-ad0327bdc65c",
        "meta": {
          "profile": [
            "http://hl7.org/fhir/uv/ips/StructureDefinition/Condition-uv-ips"
          ]
        },
        "category": [
          {
            "coding": [
              {
                "code": "problem-list-item",
                "system": "http://terminology.hl7.org/CodeSystem/condition-category",
                "display": "Problem List Item"
              }
            ]
          }
        ],
        "code": {
          "coding": [
            {
              "code": "43878008",
              "system": "http://snomed.info/sct",
              "display": "Streptococcal sore throat (disorder)"
            }
          ],
          "text": "Streptococcal sore throat"
        },
        "onsetDateTime": "2023-03-03",
        "clinicalStatus": {
          "coding": [
            {
              "code": "inactive",
              "system": "http://terminology.hl7.org/CodeSystem/condition-clinical"
            }
          ]
        },
        "subject": {
          "reference": "Patient/613a627f-1c33-4469-9941-2ba81a80cd25",
          "display": "Eliane Rijneveld"
        },
        "asserter": {
          "reference": "Practitioner/50e4e298-7633-4fc3-9708-c8938685acf0",
          "display": "Dr. Hel Ping"
        }
      }
    },
    {
      "fullUrl": "urn:uuid:97ba134f-5a73-4c64-9f5b-acbc954e41c8",
      "resource": {
        "resourceType": "Condition",
        "id": "97ba134f-5a73-4c64-9f5b-acbc954e41c8",
        "meta": {
          "profile": [
            "http://hl7.org/fhir/uv/ips/StructureDefinition/Condition-uv-ips"
          ]
        },
        "category": [
          {
            "coding": [
              {
                "code": "problem-list-item",
                "system": "http://terminology.hl7.org/CodeSystem/condition-category",
                "display": "Problem List Item"
              }
            ]
          }
        ],
        "code": {
          "coding": [
            {
              "code": "10509002",
              "system": "http://snomed.info/sct",
              "display": "Acute bronchitis (disorder)"
            }
          ],
          "text": "Acute bronchitis"
        },
        "onsetDateTime": "2020-10-16",
        "clinicalStatus": {
          "coding": [
            {
              "code": "inactive",
              "system": "http://terminology.hl7.org/CodeSystem/condition-clinical"
            }
          ]
        },
        "subject": {
          "reference": "Patient/613a627f-1c33-4469-9941-2ba81a80cd25",
          "display": "Eliane Rijneveld"
        },
        "asserter": {
          "reference": "Practitioner/50e4e298-7633-4fc3-9708-c8938685acf0",
          "display": "Dr. Hel Ping"
        }
      }
    },
    {
      "fullUrl": "urn:uuid:e6ecaf0e-b859-4128-b838-5f6ffe39516a",
      "resource": {
        "resourceType": "Condition",
        "id": "e6ecaf0e-b859-4128-b838-5f6ffe39516a",
        "meta": {
          "profile": [
            "http://hl7.org/fhir/uv/ips/StructureDefinition/Condition-uv-ips"
          ]
        },
        "category": [
          {
            "coding": [
              {
                "code": "problem-list-item",
                "system": "http://terminology.hl7.org/CodeSystem/condition-category",
                "display": "Problem List Item"
              }
            ]
          }
        ],
        "code": {
          "coding": [
            {
              "code": "444814009",
              "system": "http://snomed.info/sct",
              "display": "Viral sinusitis (disorder)"
            }
          ],
          "text": "Viral sinusitis"
        },
        "onsetDateTime": "2020-03-11",
        "clinicalStatus": {
          "coding": [
            {
              "code": "inactive",
              "system": "http://terminology.hl7.org/CodeSystem/condition-clinical"
            }
          ]
        },
        "subject": {
          "reference": "Patient/613a627f-1c33-4469-9941-2ba81a80cd25",
          "display": "Eliane Rijneveld"
        },
        "asserter": {
          "reference": "Practitioner/50e4e298-7633-4fc3-9708-c8938685acf0",
          "display": "Dr. Hel Ping"
        }
      }
    },
    {
      "fullUrl": "urn:uuid:2e2b8532-e8db-4b15-b8f1-d87a1d1190b6",
      "resource": {
        "resourceType": "Condition",
        "id": "2e2b8532-e8db-4b15-b8f1-d87a1d1190b6",
        "meta": {
          "profile": [
            "http://hl7.org/fhir/uv/ips/StructureDefinition/Condition-uv-ips"
          ]
        },
        "category": [
          {
            "coding": [
              {
                "code": "problem-list-item",
                "system": "http://terminology.hl7.org/CodeSystem/condition-category",
                "display": "Problem List Item"
              }
            ]
          }
        ],
        "code": {
          "coding": [
            {
              "code": "10509002",
              "system": "http://snomed.info/sct",
              "display": "Acute bronchitis (disorder)"
            }
          ],
          "text": "Acute bronchitis"
        },
        "onsetDateTime": "2015-05-31",
        "clinicalStatus": {
          "coding": [
            {
              "code": "inactive",
              "system": "http://terminology.hl7.org/CodeSystem/condition-clinical"
            }
          ]
        },
        "subject": {
          "reference": "Patient/613a627f-1c33-4469-9941-2ba81a80cd25",
          "display": "Eliane Rijneveld"
        },
        "asserter": {
          "reference": "Practitioner/50e4e298-7633-4fc3-9708-c8938685acf0",
          "display": "Dr. Hel Ping"
        }
      }
    },
    {
      "fullUrl": "urn:uuid:1d1bcaa7-c9eb-4572-ab23-163ae9011fa0",
      "resource": {
        "resourceType": "Condition",
        "id": "1d1bcaa7-c9eb-4572-ab23-163ae9011fa0",
        "meta": {
          "profile": [
            "http://hl7.org/fhir/uv/ips/StructureDefinition/Condition-uv-ips"
          ]
        },
        "category": [
          {
            "coding": [
              {
                "code": "problem-list-item",
                "system": "http://terminology.hl7.org/CodeSystem/condition-category",
                "display": "Problem List Item"
              }
            ]
          }
        ],
        "code": {
          "coding": [
            {
              "code": "195662009",
              "system": "http://snomed.info/sct",
              "display": "Acute viral pharyngitis (disorder)"
            }
          ],
          "text": "Acute viral pharyngitis"
        },
        "onsetDateTime": "2015-05-02",
        "clinicalStatus": {
          "coding": [
            {
              "code": "inactive",
              "system": "http://terminology.hl7.org/CodeSystem/condition-clinical"
            }
          ]
        },
        "subject": {
          "reference": "Patient/613a627f-1c33-4469-9941-2ba81a80cd25",
          "display": "Eliane Rijneveld"
        },
        "asserter": {
          "reference": "Practitioner/50e4e298-7633-4fc3-9708-c8938685acf0",
          "display": "Dr. Hel Ping"
        }
      }
    },
    {
      "fullUrl": "urn:uuid:c6d7b43e-67cf-42ca-8b33-e86ae6ef092a",
      "resource": {
        "resourceType": "Medication",
        "id": "c6d7b43e-67cf-42ca-8b33-e86ae6ef092a",
        "meta": {
          "profile": [
            "http://hl7.org/fhir/uv/ips/StructureDefinition/Medication-uv-ips"
          ]
        },
        "code": {
          "coding": [
            {
              "code": "314231",
              "system": "http://www.nlm.nih.gov/research/umls/rxnorm",
              "display": "simvastatin 10 MG Oral Tablet"
            },
            {
              "code": "319996000",
              "system": "http://snomed.info/sct",
              "display": "Product containing precisely simvastatin 10 milligram/1 each conventional release oral tablet (clinical drug)"
            }
          ],
          "text": "Simvastatin 10 mg oral tablet"
        },
        "form": {
          "coding": [
            {
              "code": "421026006",
              "system": "http://snomed.info/sct",
              "display": "Oral tablet"
            }
          ]
        },
        "ingredient": [
          {
            "itemCodeableConcept": {
              "coding": [
                {
                  "code": "387584000",
                  "system": "http://snomed.info/sct",
                  "display": "Simvastatin"
                }
              ]
            },
            "isActive": true
          }
        ]
      }
    },
    {
      "fullUrl": "urn:uuid:b3c401f0-fafc-4e1c-8036-eef6e3c143dc",
      "resource": {
        "resourceType": "MedicationStatement",
        "id": "b3c401f0-fafc-4e1c-8036-eef6e3c143dc",
        "effectivePeriod": {
          "start": "2025-01-12"
        },
        "dosage": [
          {
            "doseAndRate": [
              {
                "doseQuantity": {
                  "value": 1,
                  "unit": "{tbl}",
                  "code": "{tbl}"
                }
              }
            ],
            "timing": {
              "repeat": {
                "frequency": 1,
                "period": 1,
                "periodUnit": "d"
              }
            },
            "text": "1 tablet (10 mg) by mouth once daily",
            "asNeededBoolean": false
          }
        ],
        "reasonCode": [
          {
            "coding": [
              {
                "code": "55822004",
                "system": "http://snomed.info/sct",
                "display": "Hyperlipidemia (disorder)"
              }
            ]
          }
        ],
        "status": "active",
        "medicationReference": {
          "reference": "Medication/c6d7b43e-67cf-42ca-8b33-e86ae6ef092a",
          "display": "Simvastatin 10 mg oral tablet"
        },
        "subject": {
          "reference": "Patient/613a627f-1c33-4469-9941-2ba81a80cd25",
          "display": "Eliane Rijneveld"
        }
      }
    },
    {
      "fullUrl": "urn:uuid:afadf37c-6342-4c57-ab52-9af3c72c52bf",
      "resource": {
        "resourceType": "Medication",
        "id": "afadf37c-6342-4c57-ab52-9af3c72c52bf",
        "meta": {
          "profile": [
            "http://hl7.org/fhir/uv/ips/StructureDefinition/Medication-uv-ips"
          ]
        },
        "code": {
          "coding": [
            {
              "code": "309362",
              "system": "http://www.nlm.nih.gov/research/umls/rxnorm",
              "display": "clopidogrel 75 MG Oral Tablet"
            },
            {
              "code": "783586007",
              "system": "http://snomed.info/sct",
              "display": "Product containing precisely clopidogrel (as clopidogrel bisulfate) 75 milligram/1 each conventional release oral tablet (clinical drug)"
            }
          ],
          "text": "Clopidogrel (as clopidogrel bisulfate) 75 mg oral tablet"
        },
        "form": {
          "coding": [
            {
              "code": "421026006",
              "system": "http://snomed.info/sct",
              "display": "Oral tablet"
            }
          ]
        },
        "ingredient": [
          {
            "itemCodeableConcept": {
              "coding": [
                {
                  "code": "412354008",
                  "system": "http://snomed.info/sct",
                  "display": "Clopidogrel bisulfate"
                }
              ]
            },
            "isActive": true
          }
        ]
      }
    },
    {
      "fullUrl": "urn:uuid:74eb7b26-97e9-499b-a604-03a16d42d111",
      "resource": {
        "resourceType": "MedicationStatement",
        "id": "74eb7b26-97e9-499b-a604-03a16d42d111",
        "effectivePeriod": {
          "start": "2024-12-08"
        },
        "dosage": [
          {
            "doseAndRate": [
              {
                "doseQuantity": {
                  "value": 1,
                  "unit": "{tbl}",
                  "code": "{tbl}"
                }
              }
            ],
            "timing": {
              "repeat": {
                "frequency": 1,
                "period": 1,
                "periodUnit": "d"
              }
            },
            "text": "1 tablet (75 mg) by mouth once daily",
            "asNeededBoolean": false
          }
        ],
        "status": "active",
        "medicationReference": {
          "reference": "Medication/afadf37c-6342-4c57-ab52-9af3c72c52bf",
          "display": "Clopidogrel (as clopidogrel bisulfate) 75 mg oral tablet"
        },
        "subject": {
          "reference": "Patient/613a627f-1c33-4469-9941-2ba81a80cd25",
          "display": "Eliane Rijneveld"
        }
      }
    },
    {
      "fullUrl": "urn:uuid:cb75c44a-ac24-4a3c-9c86-6b9bf422c69b",
      "resource": {
        "resourceType": "Medication",
        "id": "cb75c44a-ac24-4a3c-9c86-6b9bf422c69b",
        "meta": {
          "profile": [
            "http://hl7.org/fhir/uv/ips/StructureDefinition/Medication-uv-ips"
          ]
        },
        "code": {
          "coding": [
            {
              "code": "312961",
              "system": "http://www.nlm.nih.gov/research/umls/rxnorm",
              "display": "simvastatin 20 MG Oral Tablet"
            },
            {
              "code": "319997009",
              "system": "http://snomed.info/sct",
              "display": "Product containing precisely simvastatin 20 milligram/1 each conventional release oral tablet (clinical drug)"
            }
          ],
          "text": "Simvastatin 20 mg oral tablet"
        },
        "form": {
          "coding": [
            {
              "code": "421026006",
              "system": "http://snomed.info/sct",
              "display": "Oral tablet"
            }
          ]
        },
        "ingredient": [
          {
            "itemCodeableConcept": {
              "coding": [
                {
                  "code": "387584000",
                  "system": "http://snomed.info/sct",
                  "display": "Simvastatin"
                }
              ]
            },
            "isActive": true
          }
        ]
      }
    },
    {
      "fullUrl": "urn:uuid:4e8d6bd4-4935-4ff3-ae1d-cd5bfb101bc9",
      "resource": {
        "resourceType": "MedicationStatement",
        "id": "4e8d6bd4-4935-4ff3-ae1d-cd5bfb101bc9",
        "effectivePeriod": {
          "start": "2024-12-08"
        },
        "dosage": [
          {
            "doseAndRate": [
              {
                "doseQuantity": {
                  "value": 1,
                  "unit": "{tbl}",
                  "code": "{tbl}"
                }
              }
            ],
            "timing": {
              "repeat": {
                "frequency": 1,
                "period": 1,
                "periodUnit": "d"
              }
            },
            "text": "1 tablet (20 mg) once daily",
            "asNeededBoolean": false
          }
        ],
        "status": "active",
        "medicationReference": {
          "reference": "Medication/cb75c44a-ac24-4a3c-9c86-6b9bf422c69b",
          "display": "Simvastatin 20 mg oral tablet"
        },
        "subject": {
          "reference": "Patient/613a627f-1c33-4469-9941-2ba81a80cd25",
          "display": "Eliane Rijneveld"
        }
      }
    },
    {
      "fullUrl": "urn:uuid:c5c3aacc-919f-4350-8992-8feac9123b1b",
      "resource": {
        "resourceType": "Medication",
        "id": "c5c3aacc-919f-4350-8992-8feac9123b1b",
        "meta": {
          "profile": [
            "http://hl7.org/fhir/uv/ips/StructureDefinition/Medication-uv-ips"
          ]
        },
        "code": {
          "coding": [
            {
              "code": "705129",
              "system": "http://www.nlm.nih.gov/research/umls/rxnorm",
              "display": "nitroglycerin 0.4 MG/ACTUAT Mucosal Spray"
            },
            {
              "code": "425176000",
              "system": "http://snomed.info/sct",
              "display": "Product containing precisely glyceryl trinitrate 400 microgram/1 actuation conventional release sublingual spray (clinical drug)"
            }
          ],
          "text": "Nitroglycerin 400 microgram/actuation sublingual spray"
        },
        "form": {
          "coding": [
            {
              "code": "385074009",
              "system": "http://snomed.info/sct",
              "display": "Sublingual spray"
            }
          ]
        },
        "ingredient": [
          {
            "itemCodeableConcept": {
              "coding": [
                {
                  "code": "387404004",
                  "system": "http://snomed.info/sct",
                  "display": "Glyceryl trinitrate"
                }
              ]
            },
            "isActive": true
          }
        ]
      }
    },
    {
      "fullUrl": "urn:uuid:ece60564-9be8-4032-833d-063e5d03042d",
      "resource": {
        "resourceType": "MedicationStatement",
        "id": "ece60564-9be8-4032-833d-063e5d03042d",
        "effectivePeriod": {
          "start": "2024-12-08"
        },
        "dosage": [
          {
            "doseAndRate": [
              {
                "doseQuantity": {
                  "value": 400,
                  "unit": "microgram",
                  "code": "ug"
                }
              }
            ],
            "timing": {
              "repeat": {
                "frequency": 1,
                "period": 5,
                "periodUnit": "min"
              }
            },
            "text": "400 micrograms per spray, spray one dose under the tongue as needed for chest pain, repeat every 5 minutes as needed, up to 3 doses in 15 minutes",
            "asNeededBoolean": true
          }
        ],
        "status": "active",
        "medicationReference": {
          "reference": "Medication/c5c3aacc-919f-4350-8992-8feac9123b1b",
          "display": "Nitroglycerin 400 microgram/actuation sublingual spray"
        },
        "subject": {
          "reference": "Patient/613a627f-1c33-4469-9941-2ba81a80cd25",
          "display": "Eliane Rijneveld"
        }
      }
    },
    {
      "fullUrl": "urn:uuid:9d5dfcbd-363d-42f3-a952-5be4b2054510",
      "resource": {
        "resourceType": "Medication",
        "id": "9d5dfcbd-363d-42f3-a952-5be4b2054510",
        "meta": {
          "profile": [
            "http://hl7.org/fhir/uv/ips/StructureDefinition/Medication-uv-ips"
          ]
        },
        "code": {
          "coding": [
            {
              "code": "866412",
              "system": "http://www.nlm.nih.gov/research/umls/rxnorm",
              "display": "24 HR metoprolol succinate 100 MG Extended Release Oral Tablet"
            },
            {
              "code": "879980009",
              "system": "http://snomed.info/sct",
              "display": "Product containing precisely metoprolol tartrate (as metoprolol succinate) 100 milligram/1 each prolonged-release oral tablet (clinical drug)"
            }
          ],
          "text": "Metoprolol tartrate (as metoprolol succinate) 100 mg prolonged-release oral tablet"
        },
        "form": {
          "coding": [
            {
              "code": "385060002",
              "system": "http://snomed.info/sct",
              "display": "Prolonged-release oral tablet"
            }
          ]
        },
        "ingredient": [
          {
            "itemCodeableConcept": {
              "coding": [
                {
                  "code": "412432007",
                  "system": "http://snomed.info/sct",
                  "display": "Metoprolol succinate"
                }
              ]
            },
            "isActive": true
          }
        ]
      }
    },
    {
      "fullUrl": "urn:uuid:d6cdb00b-1a4a-4ade-87d9-a521cd5ab813",
      "resource": {
        "resourceType": "MedicationStatement",
        "id": "d6cdb00b-1a4a-4ade-87d9-a521cd5ab813",
        "effectivePeriod": {
          "start": "2024-12-08"
        },
        "dosage": [
          {
            "doseAndRate": [
              {
                "doseQuantity": {
                  "value": 1,
                  "unit": "{tbl}",
                  "code": "{tbl}"
                }
              }
            ],
            "timing": {
              "repeat": {
                "frequency": 1,
                "period": 1,
                "periodUnit": "d"
              }
            },
            "text": "1 tablet (100 mg) once daily",
            "asNeededBoolean": false
          }
        ],
        "status": "active",
        "medicationReference": {
          "reference": "Medication/9d5dfcbd-363d-42f3-a952-5be4b2054510",
          "display": "Metoprolol tartrate (as metoprolol succinate) 100 mg prolonged-release oral tablet"
        },
        "subject": {
          "reference": "Patient/613a627f-1c33-4469-9941-2ba81a80cd25",
          "display": "Eliane Rijneveld"
        }
      }
    },
    {
      "fullUrl": "urn:uuid:3bdcde14-b91f-4d54-b4a9-6cf95e618e77",
      "resource": {
        "resourceType": "AllergyIntolerance",
        "id": "3bdcde14-b91f-4d54-b4a9-6cf95e618e77",
        "meta": {
          "profile": [
            "http://hl7.eu/fhir/eps/StructureDefinition/allergyIntolerance-eu-eps"
          ]
        },
        "code": {
          "coding": [
            {
              "code": "716186003",
              "system": "http://snomed.info/sct",
              "display": "No known allergy (situation)"
            }
          ]
        },
        "patient": {
          "reference": "Patient/613a627f-1c33-4469-9941-2ba81a80cd25",
          "display": "Eliane Rijneveld"
        },
        "_onsetDateTime": {
          "extension": [
            {
              "url": "http://hl7.org/fhir/StructureDefinition/data-absent-reason",
              "valueCode": "unknown"
            }
          ]
        }
      }
    },
    {
      "fullUrl": "urn:uuid:9bb62b4f-7e8d-41d5-ad92-09a8702e0c28",
      "resource": {
        "resourceType": "Procedure",
        "id": "9bb62b4f-7e8d-41d5-ad92-09a8702e0c28",
        "meta": {
          "profile": [
            "http://hl7.org/fhir/uv/ips/StructureDefinition/Procedure-uv-ips"
          ]
        },
        "code": {
          "coding": [
            {
              "code": "243063003",
              "system": "http://snomed.info/sct",
              "display": "Postoperative procedure education (procedure)"
            }
          ],
          "text": "Postoperative procedure education"
        },
        "reasonCode": [
          {
            "coding": [
              {
                "code": "399261000",
                "system": "http://snomed.info/sct",
                "display": "History of coronary artery bypass grafting (situation)"
              }
            ]
          }
        ],
        "status": "completed",
        "subject": {
          "reference": "Patient/613a627f-1c33-4469-9941-2ba81a80cd25",
          "display": "Eliane Rijneveld"
        },
        "performedDateTime": "2025-01-12"
      }
    },
    {
      "fullUrl": "urn:uuid:387faf10-8cb7-4448-9703-24014dd49f03",
      "resource": {
        "resourceType": "Procedure",
        "id": "387faf10-8cb7-4448-9703-24014dd49f03",
        "meta": {
          "profile": [
            "http://hl7.org/fhir/uv/ips/StructureDefinition/Procedure-uv-ips"
          ]
        },
        "code": {
          "coding": [
            {
              "code": "252482003",
              "system": "http://snomed.info/sct",
              "display": "Stair-climbing test (procedure)"
            }
          ],
          "text": "Stair-climbing test"
        },
        "reasonCode": [
          {
            "coding": [
              {
                "code": "399261000",
                "system": "http://snomed.info/sct",
                "display": "History of coronary artery bypass grafting (situation)"
              }
            ]
          }
        ],
        "status": "completed",
        "subject": {
          "reference": "Patient/613a627f-1c33-4469-9941-2ba81a80cd25",
          "display": "Eliane Rijneveld"
        },
        "performedDateTime": "2025-01-12"
      }
    },
    {
      "fullUrl": "urn:uuid:49281863-8610-4a38-828c-c642457fda65",
      "resource": {
        "resourceType": "Procedure",
        "id": "49281863-8610-4a38-828c-c642457fda65",
        "meta": {
          "profile": [
            "http://hl7.org/fhir/uv/ips/StructureDefinition/Procedure-uv-ips"
          ]
        },
        "code": {
          "coding": [
            {
              "code": "302761001",
              "system": "http://snomed.info/sct",
              "display": "Walking exercise test (procedure)"
            }
          ],
          "text": "Walking exercise test"
        },
        "reasonCode": [
          {
            "coding": [
              {
                "code": "399261000",
                "system": "http://snomed.info/sct",
                "display": "History of coronary artery bypass grafting (situation)"
              }
            ]
          }
        ],
        "status": "completed",
        "subject": {
          "reference": "Patient/613a627f-1c33-4469-9941-2ba81a80cd25",
          "display": "Eliane Rijneveld"
        },
        "performedDateTime": "2025-01-12"
      }
    },
    {
      "fullUrl": "urn:uuid:ef6736c5-22bc-4e9e-9bbe-84e279879623",
      "resource": {
        "resourceType": "Procedure",
        "id": "ef6736c5-22bc-4e9e-9bbe-84e279879623",
        "meta": {
          "profile": [
            "http://hl7.org/fhir/uv/ips/StructureDefinition/Procedure-uv-ips"
          ]
        },
        "code": {
          "coding": [
            {
              "code": "306706006",
              "system": "http://snomed.info/sct",
              "display": "Discharge to ward (procedure)"
            }
          ],
          "text": "Discharge to ward"
        },
        "status": "completed",
        "subject": {
          "reference": "Patient/613a627f-1c33-4469-9941-2ba81a80cd25",
          "display": "Eliane Rijneveld"
        },
        "performedDateTime": "2025-01-12"
      }
    },
    {
      "fullUrl": "urn:uuid:35a11f84-1d15-418e-b3d0-f4d110bf7499",
      "resource": {
        "resourceType": "Procedure",
        "id": "35a11f84-1d15-418e-b3d0-f4d110bf7499",
        "meta": {
          "profile": [
            "http://hl7.org/fhir/uv/ips/StructureDefinition/Procedure-uv-ips"
          ]
        },
        "code": {
          "coding": [
            {
              "code": "308283009",
              "system": "http://snomed.info/sct",
              "display": "Discharge from hospital (procedure)"
            }
          ],
          "text": "Discharge from hospital"
        },
        "reasonCode": [
          {
            "coding": [
              {
                "code": "399261000",
                "system": "http://snomed.info/sct",
                "display": "History of coronary artery bypass grafting (situation)"
              }
            ]
          }
        ],
        "status": "completed",
        "subject": {
          "reference": "Patient/613a627f-1c33-4469-9941-2ba81a80cd25",
          "display": "Eliane Rijneveld"
        },
        "performedDateTime": "2025-01-12"
      }
    },
    {
      "fullUrl": "urn:uuid:9bab230b-0358-4c4a-ab7b-77240ac6142f",
      "resource": {
        "resourceType": "Procedure",
        "id": "9bab230b-0358-4c4a-ab7b-77240ac6142f",
        "meta": {
          "profile": [
            "http://hl7.org/fhir/uv/ips/StructureDefinition/Procedure-uv-ips"
          ]
        },
        "code": {
          "coding": [
            {
              "code": "29303009",
              "system": "http://snomed.info/sct",
              "display": "Electrocardiographic procedure (procedure)"
            }
          ],
          "text": "Electrocardiographic procedure"
        },
        "status": "completed",
        "subject": {
          "reference": "Patient/613a627f-1c33-4469-9941-2ba81a80cd25",
          "display": "Eliane Rijneveld"
        },
        "performedDateTime": "2025-01-11"
      }
    },
    {
      "fullUrl": "urn:uuid:a1ddde95-0293-452c-9af9-4feb92e0fcf0",
      "resource": {
        "resourceType": "Procedure",
        "id": "a1ddde95-0293-452c-9af9-4feb92e0fcf0",
        "meta": {
          "profile": [
            "http://hl7.org/fhir/uv/ips/StructureDefinition/Procedure-uv-ips"
          ]
        },
        "code": {
          "coding": [
            {
              "code": "399208008",
              "system": "http://snomed.info/sct",
              "display": "Plain X-ray of chest (procedure)"
            }
          ],
          "text": "Plain X-ray of chest"
        },
        "status": "completed",
        "subject": {
          "reference": "Patient/613a627f-1c33-4469-9941-2ba81a80cd25",
          "display": "Eliane Rijneveld"
        },
        "performedDateTime": "2025-01-11"
      }
    },
    {
      "fullUrl": "urn:uuid:c0ce40dc-3cff-41e2-b521-d5ae08cc9910",
      "resource": {
        "resourceType": "Procedure",
        "id": "c0ce40dc-3cff-41e2-b521-d5ae08cc9910",
        "meta": {
          "profile": [
            "http://hl7.org/fhir/uv/ips/StructureDefinition/Procedure-uv-ips"
          ]
        },
        "code": {
          "coding": [
            {
              "code": "71493000",
              "system": "http://snomed.info/sct",
              "display": "Transfusion of packed red blood cells (procedure)"
            }
          ],
          "text": "Transfusion of packed red blood cells"
        },
        "status": "completed",
        "subject": {
          "reference": "Patient/613a627f-1c33-4469-9941-2ba81a80cd25",
          "display": "Eliane Rijneveld"
        },
        "performedDateTime": "2025-01-10"
      }
    },
    {
      "fullUrl": "urn:uuid:87ea684a-ac81-4ea0-a289-18ff11c47fe8",
      "resource": {
        "resourceType": "Procedure",
        "id": "87ea684a-ac81-4ea0-a289-18ff11c47fe8",
        "meta": {
          "profile": [
            "http://hl7.org/fhir/uv/ips/StructureDefinition/Procedure-uv-ips"
          ]
        },
        "code": {
          "coding": [
            {
              "code": "271280005",
              "system": "http://snomed.info/sct",
              "display": "Removal of endotracheal tube (procedure)"
            }
          ],
          "text": "Removal of endotracheal tube"
        },
        "status": "completed",
        "subject": {
          "reference": "Patient/613a627f-1c33-4469-9941-2ba81a80cd25",
          "display": "Eliane Rijneveld"
        },
        "performedDateTime": "2025-01-09"
      }
    },
    {
      "fullUrl": "urn:uuid:6e5e9c77-8350-4dc3-ba81-065b12264753",
      "resource": {
        "resourceType": "Procedure",
        "id": "6e5e9c77-8350-4dc3-ba81-065b12264753",
        "meta": {
          "profile": [
            "http://hl7.org/fhir/uv/ips/StructureDefinition/Procedure-uv-ips"
          ]
        },
        "code": {
          "coding": [
            {
              "code": "430701006",
              "system": "http://snomed.info/sct",
              "display": "Resuscitation using intravenous fluid (procedure)"
            }
          ],
          "text": "Resuscitation using intravenous fluid"
        },
        "reasonCode": [
          {
            "coding": [
              {
                "code": "91302008",
                "system": "http://snomed.info/sct",
                "display": "Sepsis (disorder)"
              }
            ]
          }
        ],
        "status": "completed",
        "subject": {
          "reference": "Patient/613a627f-1c33-4469-9941-2ba81a80cd25",
          "display": "Eliane Rijneveld"
        },
        "performedDateTime": "2016-01-28"
      }
    },
    {
      "fullUrl": "urn:uuid:d1a3c11e-5763-43af-8822-9401d038c04d",
      "resource": {
        "resourceType": "Procedure",
        "id": "d1a3c11e-5763-43af-8822-9401d038c04d",
        "meta": {
          "profile": [
            "http://hl7.org/fhir/uv/ips/StructureDefinition/Procedure-uv-ips"
          ]
        },
        "code": {
          "coding": [
            {
              "code": "449214001",
              "system": "http://snomed.info/sct",
              "display": "Transfer to stepdown unit (procedure)"
            }
          ],
          "text": "Transfer to stepdown unit"
        },
        "reasonCode": [
          {
            "coding": [
              {
                "code": "91302008",
                "system": "http://snomed.info/sct",
                "display": "Sepsis (disorder)"
              }
            ]
          }
        ],
        "status": "completed",
        "subject": {
          "reference": "Patient/613a627f-1c33-4469-9941-2ba81a80cd25",
          "display": "Eliane Rijneveld"
        },
        "performedDateTime": "2016-01-28"
      }
    },
    {
      "fullUrl": "urn:uuid:f3e700c5-cedd-480a-8028-70d251c80450",
      "resource": {
        "resourceType": "Immunization",
        "id": "f3e700c5-cedd-480a-8028-70d251c80450",
        "meta": {
          "profile": [
            "http://hl7.org/fhir/uv/ips/StructureDefinition/Immunization-uv-ips"
          ]
        },
        "vaccineCode": {
          "coding": [
            {
              "code": "1181000221105",
              "system": "http://snomed.info/sct",
              "display": "Vaccine product containing Influenza virus antigen"
            },
            {
              "code": "J07BB02",
              "system": "http://www.whocc.no/atc",
              "display": "Influenza, inactivated, split virus"
            },
            {
              "code": "140",
              "system": "http://hl7.org/fhir/sid/cvx",
              "display": "Influenza  seasonal  injectable  preservative free"
            }
          ],
          "text": "Influenza virus antigen only vaccine product"
        },
        "site": {
          "coding": [
            {
              "code": "73776007",
              "system": "http://snomed.info/sct",
              "display": "Structure of muscle of upper arm"
            }
          ],
          "text": "Structure of muscle of upper arm"
        },
        "route": {
          "coding": [
            {
              "code": "78421000",
              "system": "http://snomed.info/sct",
              "display": "Intramuscular route"
            }
          ],
          "text": "Intramuscular route"
        },
        "status": "completed",
        "patient": {
          "reference": "Patient/613a627f-1c33-4469-9941-2ba81a80cd25",
          "display": "Eliane Rijneveld"
        },
        "occurrenceDateTime": "2024-12-01",
        "lotNumber": "EX-JP65w",
        "expirationDate": "2025-08-29"
      }
    },
    {
      "fullUrl": "urn:uuid:532665d3-c449-476c-99de-9b405020fbb4",
      "resource": {
        "resourceType": "Immunization",
        "id": "532665d3-c449-476c-99de-9b405020fbb4",
        "meta": {
          "profile": [
            "http://hl7.org/fhir/uv/ips/StructureDefinition/Immunization-uv-ips"
          ]
        },
        "vaccineCode": {
          "coding": [
            {
              "code": "777725002",
              "system": "http://snomed.info/sct",
              "display": "Vaccine product containing only Clostridium tetani toxoid antigen adsorbed"
            },
            {
              "code": "J07AM51",
              "system": "http://www.whocc.no/atc",
              "display": "Diphtheria-tetanus vaccines, adult type"
            },
            {
              "code": "113",
              "system": "http://hl7.org/fhir/sid/cvx",
              "display": "Td (adult)  5 Lf tetanus toxoid  preservative free  adsorbed"
            }
          ],
          "text": "Clostridium tetani toxoid antigen adsorbed only vaccine product"
        },
        "site": {
          "coding": [
            {
              "code": "73776007",
              "system": "http://snomed.info/sct",
              "display": "Structure of muscle of upper arm"
            }
          ],
          "text": "Structure of muscle of upper arm"
        },
        "route": {
          "coding": [
            {
              "code": "78421000",
              "system": "http://snomed.info/sct",
              "display": "Intramuscular route"
            }
          ],
          "text": "Intramuscular route"
        },
        "status": "completed",
        "patient": {
          "reference": "Patient/613a627f-1c33-4469-9941-2ba81a80cd25",
          "display": "Eliane Rijneveld"
        },
        "occurrenceDateTime": "2023-11-26",
        "lotNumber": "WE-V2Atr3D",
        "expirationDate": "2024-01-19"
      }
    },
    {
      "fullUrl": "urn:uuid:274b6f3a-1960-4dc8-9360-4528844e25de",
      "resource": {
        "resourceType": "Immunization",
        "id": "274b6f3a-1960-4dc8-9360-4528844e25de",
        "meta": {
          "profile": [
            "http://hl7.org/fhir/uv/ips/StructureDefinition/Immunization-uv-ips"
          ]
        },
        "vaccineCode": {
          "coding": [
            {
              "code": "2221000221107",
              "system": "http://snomed.info/sct",
              "display": "Live attenuated Varicella-zoster vaccine"
            },
            {
              "code": "J07BK02",
              "system": "http://www.whocc.no/atc",
              "display": "Varicella-zoster vaccines"
            },
            {
              "code": "121",
              "system": "http://hl7.org/fhir/sid/cvx",
              "display": "zoster vaccine  live"
            }
          ],
          "text": "Live attenuated Human alphaherpesvirus 3 only vaccine product"
        },
        "site": {
          "coding": [
            {
              "code": "368208006",
              "system": "http://snomed.info/sct",
              "display": "Structure of skin of upper arm"
            }
          ],
          "text": "Structure of skin of upper arm"
        },
        "route": {
          "coding": [
            {
              "code": "34206005",
              "system": "http://snomed.info/sct",
              "display": "Subcutaneous route"
            }
          ],
          "text": "Subcutaneous route"
        },
        "status": "completed",
        "patient": {
          "reference": "Patient/613a627f-1c33-4469-9941-2ba81a80cd25",
          "display": "Eliane Rijneveld"
        },
        "occurrenceDateTime": "2023-11-26",
        "lotNumber": "VK-BIvFVWs",
        "expirationDate": "2024-01-16"
      }
    },
    {
      "fullUrl": "urn:uuid:efb1e94b-2d82-48af-9989-523cbf9400be",
      "resource": {
        "resourceType": "Immunization",
        "id": "efb1e94b-2d82-48af-9989-523cbf9400be",
        "meta": {
          "profile": [
            "http://hl7.org/fhir/uv/ips/StructureDefinition/Immunization-uv-ips"
          ]
        },
        "vaccineCode": {
          "coding": [
            {
              "code": "1119349007",
              "system": "http://snomed.info/sct",
              "display": "Vaccine product containing SARS-CoV-2 mRNA"
            },
            {
              "code": "J07BX03",
              "system": "http://www.whocc.no/atc",
              "display": "COVID-19 mRNA vaccines"
            },
            {
              "code": "207",
              "system": "http://hl7.org/fhir/sid/cvx",
              "display": "COVID-19  mRNA  LNP-S  PF  100 mcg/0.5mL dose or 50 mcg/0.25mL dose"
            }
          ],
          "text": "SARS-CoV-2 mRNA vaccine"
        },
        "site": {
          "coding": [
            {
              "code": "73776007",
              "system": "http://snomed.info/sct",
              "display": "Structure of muscle of upper arm"
            }
          ],
          "text": "Structure of muscle of upper arm"
        },
        "route": {
          "coding": [
            {
              "code": "78421000",
              "system": "http://snomed.info/sct",
              "display": "Intramuscular route"
            }
          ],
          "text": "Intramuscular route"
        },
        "status": "completed",
        "patient": {
          "reference": "Patient/613a627f-1c33-4469-9941-2ba81a80cd25",
          "display": "Eliane Rijneveld"
        },
        "occurrenceDateTime": "2021-08-15",
        "lotNumber": "GH-SZ738",
        "expirationDate": "2022-04-25"
      }
    }
  ],
  "type": "document",
  "timestamp": "2025-06-16T17:19:49Z"
}
