{
  "resourceType": "Bundle",
  "id": "Instance-Bundle-9705b1f8-d3ea-41ea-b52a-da074043ae95",
  "meta": {
    "profile": [
      "http://hl7.eu/fhir/eps/StructureDefinition/bundle-eu-eps"
    ]
  },
  "identifier": {
    "assigner": {
      "display": "HL7 Europe"
    },
    "system": "urn:oid:2.16.840.1.113883.2.51.999",
    "value": "8b982125-58a1-47c8-852d-9bee35fddeb1"
  },
  "entry": [
    {
      "fullUrl": "urn:uuid:1cffb94f-3441-4a9e-a304-2ffab4692f94",
      "resource": {
        "resourceType": "Composition",
        "id": "1cffb94f-3441-4a9e-a304-2ffab4692f94",
        "meta": {
          "profile": [
            "http://hl7.eu/fhir/eps/StructureDefinition/composition-eu-eps"
          ]
        },
        "identifier": {
          "assigner": {
            "display": "HL7 Europe"
          },
          "system": "urn:oid:2.16.840.1.113883.2.51.999",
          "value": "5d0d5167-4053-4467-b691-2793e3b12e99"
        },
        "type": {
          "coding": [
            {
              "system": "http://loinc.org",
              "code": "60591-5",
              "display": "European Patient Summary"
            }
          ],
          "text": "European Patient Summary"
        },
        "author": [
          {
            "reference": "urn:uuid:be63916c-f3a4-4a74-a6af-12d3025dd66d"
          }
        ],
        "section": [
          {
            "text": {
              "status": "generated",
              "div": "<div xmlns=\"http://www.w3.org/1999/xhtml\"><table class=\"hl7__ips\"><tr><td>Metabolic syndrome X</td><td>2019-03-17</td><td>active</td></tr><tr><td>Essential hypertension</td><td>2014-02-16</td><td>active</td></tr><tr><td>Anemia</td><td>2008-04-27</td><td>active</td></tr><tr><td>Viral sinusitis</td><td>2023-12-18</td><td>inactive</td></tr><tr><td>Sprain of ankle</td><td>2023-02-01</td><td>inactive</td></tr><tr><td>Gingival disease</td><td>2020-04-06</td><td>inactive</td></tr><tr><td>Gingivitis</td><td>2020-03-22</td><td>inactive</td></tr></table></div>"
            },
            "entry": [
              {
                "reference": "urn:uuid:9485c2fa-103f-4ed1-899e-9a1e16371e48"
              },
              {
                "reference": "urn:uuid:c9a83a94-cb2d-4a06-aa75-4e7d999d1c83"
              },
              {
                "reference": "urn:uuid:153ae4aa-3077-4cc6-8ec6-c7df96544493"
              },
              {
                "reference": "urn:uuid:ceeabeea-4d5a-4895-9350-c3eed1b88c00"
              },
              {
                "reference": "urn:uuid:9984251a-bb04-4abf-8d16-84a358095f4e"
              },
              {
                "reference": "urn:uuid:51c8d853-28e0-4ecd-bef4-22129b189a6e"
              },
              {
                "reference": "urn:uuid:d9078065-d074-49c9-8ffb-e416955254e4"
              }
            ],
            "code": {
              "coding": [
                {
                  "system": "http://loinc.org",
                  "code": "11450-4",
                  "display": "Problem list - Reported"
                }
              ]
            },
            "title": "Problem list"
          },
          {
            "text": {
              "status": "generated",
              "div": "<div xmlns=\"http://www.w3.org/1999/xhtml\"><table class=\"hl7__ips\"><tr><td>Amlodipine (as amlodipine besylate) 2.5 mg oral tablet</td><td>2025-04-20</td><td>Oral tablet</td><td>1 tablet (2.5 mg) by mouth once daily\"</td><td>Reason: Essential hypertension (disorder)</td></tr><tr><td>Hydrochlorothiazide 25 mg oral tablet</td><td>2025-04-20</td><td>Oral tablet</td><td>1 tablet (25 mg) by mouth once daily\"</td><td>Reason: Essential hypertension (disorder)</td></tr><tr><td>Lisinopril 10 mg oral tablet</td><td>2025-04-20</td><td>Oral tablet</td><td>1 tablet (10 mg) by mouth once daily\"</td><td>Reason: Essential hypertension (disorder)</td></tr></table></div>"
            },
            "entry": [
              {
                "reference": "urn:uuid:4b16abf2-f474-4771-a72b-8edad7dda611"
              },
              {
                "reference": "urn:uuid:038cd925-3145-48bf-9eb6-0227ffa2ab88"
              },
              {
                "reference": "urn:uuid:ed00af17-5111-4692-9554-de96ce64e9d6"
              }
            ],
            "code": {
              "coding": [
                {
                  "system": "http://loinc.org",
                  "code": "10160-0",
                  "display": "History of Medication use Narrative"
                }
              ]
            },
            "title": "Medication list"
          },
          {
            "text": {
              "status": "generated",
              "div": "<div xmlns=\"http://www.w3.org/1999/xhtml\"><table class=\"hl7__ips\"><tr><td>Inadequate digital access affecting health care</td><td>2025-06-16</td><td>active</td><td>environment</td></tr></table></div>"
            },
            "entry": [
              {
                "reference": "urn:uuid:e2870bb7-ff87-4db4-9ca7-3ee35801575f"
              }
            ],
            "code": {
              "coding": [
                {
                  "system": "http://loinc.org",
                  "code": "48765-2",
                  "display": "Allergies and adverse reactions Document"
                }
              ]
            },
            "title": "Allergies and Intolerances"
          },
          {
            "text": {
              "status": "generated",
              "div": "<div xmlns=\"http://www.w3.org/1999/xhtml\"><table class=\"hl7__ips\"><tr><td>Clostridium tetani toxoid antigen adsorbed only vaccine product</td><td>2025-04-20</td></tr><tr><td>Live attenuated Human alphaherpesvirus 3 only vaccine product</td><td>2025-04-20</td></tr><tr><td>Influenza virus antigen only vaccine product</td><td>2025-04-20</td></tr><tr><td>SARS-CoV-2 mRNA vaccine</td><td>2021-03-21</td></tr></table></div>"
            },
            "entry": [
              {
                "reference": "urn:uuid:771ce807-a004-46a3-8f4c-95f9c185c4c5"
              },
              {
                "reference": "urn:uuid:5b0d9449-07c2-4c8e-9a82-3c80646d7839"
              },
              {
                "reference": "urn:uuid:9c66c695-8a7d-4870-83a2-4043e81f7b20"
              },
              {
                "reference": "urn:uuid:363d55d2-138d-4d61-a95a-7d8fe0d10b3f"
              }
            ],
            "code": {
              "coding": [
                {
                  "system": "http://loinc.org",
                  "code": "11369-6",
                  "display": "History of Immunization Narrative"
                }
              ]
            },
            "title": "Immunizations list"
          }
        ],
        "title": "European Patient Summary",
        "status": "final",
        "subject": {
          "reference": "urn:uuid:4ba20d8a-3205-45c6-8d2e-e263d392d2a0"
        },
        "custodian": {
          "reference": "urn:uuid:3cb949a5-683e-4808-9889-301930c1867e"
        },
        "date": "2025-06-16T17:28:57Z",
        "confidentiality": "N"
      }
    },
    {
      "fullUrl": "urn:uuid:4ba20d8a-3205-45c6-8d2e-e263d392d2a0",
      "resource": {
        "resourceType": "Patient",
        "id": "4ba20d8a-3205-45c6-8d2e-e263d392d2a0",
        "meta": {
          "profile": [
            "http://hl7.eu/fhir/eps/StructureDefinition/patient-eu-eps"
          ]
        },
        "identifier": [
          {
            "type": {
              "coding": [
                {
                  "code": "NI",
                  "system": "http://terminology.hl7.org/CodeSystem/v2-0203"
                }
              ]
            },
            "system": "http://ec.europa.eu/identifier/eci",
            "value": "2005-291300-9"
          },
          {
            "type": {
              "coding": [
                {
                  "code": "MR",
                  "system": "http://terminology.hl7.org/CodeSystem/v2-0203"
                }
              ]
            },
            "system": "http://local.setting.eu/identifier",
            "value": "93a03445-fe41-caaf-52eb-b1cd8690e385"
          }
        ],
        "name": [
          {
            "given": [
              "Abbondanzio"
            ],
            "family": "Toscano",
            "text": "Abbondanzio Toscano"
          }
        ],
        "address": [
          {
            "line": [
              "Via del Viminale 11"
            ],
            "use": "home",
            "type": "physical",
            "city": "Decimomannu",
            "postalCode": "09033",
            "country": "Italy"
          }
        ],
        "telecom": [
          {
            "system": "phone",
            "value": "+39 0315 8083857"
          }
        ],
        "gender": "male",
        "birthDate": "1979-07-04"
      }
    },
    {
      "fullUrl": "urn:uuid:be63916c-f3a4-4a74-a6af-12d3025dd66d",
      "resource": {
        "resourceType": "PractitionerRole",
        "id": "be63916c-f3a4-4a74-a6af-12d3025dd66d",
        "meta": {
          "profile": [
            "http://hl7.eu/fhir/base/StructureDefinition/practitionerRole-eu"
          ]
        },
        "practitioner": {
          "reference": "urn:uuid:d4b1fc54-d6c3-4718-bc0c-45f8bb999e78"
        },
        "organization": {
          "reference": "urn:uuid:3cb949a5-683e-4808-9889-301930c1867e"
        }
      }
    },
    {
      "fullUrl": "urn:uuid:d4b1fc54-d6c3-4718-bc0c-45f8bb999e78",
      "resource": {
        "resourceType": "Practitioner",
        "id": "d4b1fc54-d6c3-4718-bc0c-45f8bb999e78",
        "meta": {
          "profile": [
            "http://hl7.eu/fhir/base/StructureDefinition/practitioner-eu"
          ]
        },
        "name": [
          {
            "prefix": [
              "Dr."
            ],
            "given": [
              "Hel"
            ],
            "family": "Ping"
          }
        ]
      }
    },
    {
      "fullUrl": "urn:uuid:9485c2fa-103f-4ed1-899e-9a1e16371e48",
      "resource": {
        "resourceType": "Condition",
        "id": "9485c2fa-103f-4ed1-899e-9a1e16371e48",
        "meta": {
          "profile": [
            "http://hl7.org/fhir/uv/ips/StructureDefinition/Condition-uv-ips"
          ]
        },
        "category": [
          {
            "coding": [
              {
                "code": "problem-list-item",
                "system": "http://terminology.hl7.org/CodeSystem/condition-category",
                "display": "Problem List Item"
              }
            ]
          }
        ],
        "code": {
          "coding": [
            {
              "code": "237602007",
              "system": "http://snomed.info/sct",
              "display": "Metabolic syndrome X (disorder)"
            }
          ],
          "text": "Metabolic syndrome X"
        },
        "onsetDateTime": "2019-03-17",
        "clinicalStatus": {
          "coding": [
            {
              "code": "active",
              "system": "http://terminology.hl7.org/CodeSystem/condition-clinical"
            }
          ]
        },
        "subject": {
          "reference": "Patient/4ba20d8a-3205-45c6-8d2e-e263d392d2a0",
          "display": "Abbondanzio Toscano"
        },
        "asserter": {
          "reference": "Practitioner/d4b1fc54-d6c3-4718-bc0c-45f8bb999e78",
          "display": "Dr. Hel Ping"
        }
      }
    },
    {
      "fullUrl": "urn:uuid:c9a83a94-cb2d-4a06-aa75-4e7d999d1c83",
      "resource": {
        "resourceType": "Condition",
        "id": "c9a83a94-cb2d-4a06-aa75-4e7d999d1c83",
        "meta": {
          "profile": [
            "http://hl7.org/fhir/uv/ips/StructureDefinition/Condition-uv-ips"
          ]
        },
        "category": [
          {
            "coding": [
              {
                "code": "problem-list-item",
                "system": "http://terminology.hl7.org/CodeSystem/condition-category",
                "display": "Problem List Item"
              }
            ]
          }
        ],
        "code": {
          "coding": [
            {
              "code": "59621000",
              "system": "http://snomed.info/sct",
              "display": "Essential hypertension (disorder)"
            }
          ],
          "text": "Essential hypertension"
        },
        "onsetDateTime": "2014-02-16",
        "clinicalStatus": {
          "coding": [
            {
              "code": "active",
              "system": "http://terminology.hl7.org/CodeSystem/condition-clinical"
            }
          ]
        },
        "subject": {
          "reference": "Patient/4ba20d8a-3205-45c6-8d2e-e263d392d2a0",
          "display": "Abbondanzio Toscano"
        },
        "asserter": {
          "reference": "Practitioner/d4b1fc54-d6c3-4718-bc0c-45f8bb999e78",
          "display": "Dr. Hel Ping"
        }
      }
    },
    {
      "fullUrl": "urn:uuid:153ae4aa-3077-4cc6-8ec6-c7df96544493",
      "resource": {
        "resourceType": "Condition",
        "id": "153ae4aa-3077-4cc6-8ec6-c7df96544493",
        "meta": {
          "profile": [
            "http://hl7.org/fhir/uv/ips/StructureDefinition/Condition-uv-ips"
          ]
        },
        "category": [
          {
            "coding": [
              {
                "code": "problem-list-item",
                "system": "http://terminology.hl7.org/CodeSystem/condition-category",
                "display": "Problem List Item"
              }
            ]
          }
        ],
        "code": {
          "coding": [
            {
              "code": "271737000",
              "system": "http://snomed.info/sct",
              "display": "Anemia (disorder)"
            }
          ],
          "text": "Anemia"
        },
        "onsetDateTime": "2008-04-27",
        "clinicalStatus": {
          "coding": [
            {
              "code": "active",
              "system": "http://terminology.hl7.org/CodeSystem/condition-clinical"
            }
          ]
        },
        "subject": {
          "reference": "Patient/4ba20d8a-3205-45c6-8d2e-e263d392d2a0",
          "display": "Abbondanzio Toscano"
        },
        "asserter": {
          "reference": "Practitioner/d4b1fc54-d6c3-4718-bc0c-45f8bb999e78",
          "display": "Dr. Hel Ping"
        }
      }
    },
    {
      "fullUrl": "urn:uuid:ceeabeea-4d5a-4895-9350-c3eed1b88c00",
      "resource": {
        "resourceType": "Condition",
        "id": "ceeabeea-4d5a-4895-9350-c3eed1b88c00",
        "meta": {
          "profile": [
            "http://hl7.org/fhir/uv/ips/StructureDefinition/Condition-uv-ips"
          ]
        },
        "category": [
          {
            "coding": [
              {
                "code": "problem-list-item",
                "system": "http://terminology.hl7.org/CodeSystem/condition-category",
                "display": "Problem List Item"
              }
            ]
          }
        ],
        "code": {
          "coding": [
            {
              "code": "444814009",
              "system": "http://snomed.info/sct",
              "display": "Viral sinusitis (disorder)"
            }
          ],
          "text": "Viral sinusitis"
        },
        "onsetDateTime": "2023-12-18",
        "clinicalStatus": {
          "coding": [
            {
              "code": "inactive",
              "system": "http://terminology.hl7.org/CodeSystem/condition-clinical"
            }
          ]
        },
        "subject": {
          "reference": "Patient/4ba20d8a-3205-45c6-8d2e-e263d392d2a0",
          "display": "Abbondanzio Toscano"
        },
        "asserter": {
          "reference": "Practitioner/d4b1fc54-d6c3-4718-bc0c-45f8bb999e78",
          "display": "Dr. Hel Ping"
        }
      }
    },
    {
      "fullUrl": "urn:uuid:9984251a-bb04-4abf-8d16-84a358095f4e",
      "resource": {
        "resourceType": "Condition",
        "id": "9984251a-bb04-4abf-8d16-84a358095f4e",
        "meta": {
          "profile": [
            "http://hl7.org/fhir/uv/ips/StructureDefinition/Condition-uv-ips"
          ]
        },
        "category": [
          {
            "coding": [
              {
                "code": "problem-list-item",
                "system": "http://terminology.hl7.org/CodeSystem/condition-category",
                "display": "Problem List Item"
              }
            ]
          }
        ],
        "code": {
          "coding": [
            {
              "code": "44465007",
              "system": "http://snomed.info/sct",
              "display": "Sprain of ankle (disorder)"
            }
          ],
          "text": "Sprain of ankle"
        },
        "onsetDateTime": "2023-02-01",
        "clinicalStatus": {
          "coding": [
            {
              "code": "inactive",
              "system": "http://terminology.hl7.org/CodeSystem/condition-clinical"
            }
          ]
        },
        "subject": {
          "reference": "Patient/4ba20d8a-3205-45c6-8d2e-e263d392d2a0",
          "display": "Abbondanzio Toscano"
        },
        "asserter": {
          "reference": "Practitioner/d4b1fc54-d6c3-4718-bc0c-45f8bb999e78",
          "display": "Dr. Hel Ping"
        }
      }
    },
    {
      "fullUrl": "urn:uuid:51c8d853-28e0-4ecd-bef4-22129b189a6e",
      "resource": {
        "resourceType": "Condition",
        "id": "51c8d853-28e0-4ecd-bef4-22129b189a6e",
        "meta": {
          "profile": [
            "http://hl7.org/fhir/uv/ips/StructureDefinition/Condition-uv-ips"
          ]
        },
        "category": [
          {
            "coding": [
              {
                "code": "problem-list-item",
                "system": "http://terminology.hl7.org/CodeSystem/condition-category",
                "display": "Problem List Item"
              }
            ]
          }
        ],
        "code": {
          "coding": [
            {
              "code": "18718003",
              "system": "http://snomed.info/sct",
              "display": "Gingival disease (disorder)"
            }
          ],
          "text": "Gingival disease"
        },
        "onsetDateTime": "2020-04-06",
        "clinicalStatus": {
          "coding": [
            {
              "code": "inactive",
              "system": "http://terminology.hl7.org/CodeSystem/condition-clinical"
            }
          ]
        },
        "subject": {
          "reference": "Patient/4ba20d8a-3205-45c6-8d2e-e263d392d2a0",
          "display": "Abbondanzio Toscano"
        },
        "asserter": {
          "reference": "Practitioner/d4b1fc54-d6c3-4718-bc0c-45f8bb999e78",
          "display": "Dr. Hel Ping"
        }
      }
    },
    {
      "fullUrl": "urn:uuid:d9078065-d074-49c9-8ffb-e416955254e4",
      "resource": {
        "resourceType": "Condition",
        "id": "d9078065-d074-49c9-8ffb-e416955254e4",
        "meta": {
          "profile": [
            "http://hl7.org/fhir/uv/ips/StructureDefinition/Condition-uv-ips"
          ]
        },
        "category": [
          {
            "coding": [
              {
                "code": "problem-list-item",
                "system": "http://terminology.hl7.org/CodeSystem/condition-category",
                "display": "Problem List Item"
              }
            ]
          }
        ],
        "code": {
          "coding": [
            {
              "code": "66383009",
              "system": "http://snomed.info/sct",
              "display": "Gingivitis (disorder)"
            }
          ],
          "text": "Gingivitis"
        },
        "onsetDateTime": "2020-03-22",
        "clinicalStatus": {
          "coding": [
            {
              "code": "inactive",
              "system": "http://terminology.hl7.org/CodeSystem/condition-clinical"
            }
          ]
        },
        "subject": {
          "reference": "Patient/4ba20d8a-3205-45c6-8d2e-e263d392d2a0",
          "display": "Abbondanzio Toscano"
        },
        "asserter": {
          "reference": "Practitioner/d4b1fc54-d6c3-4718-bc0c-45f8bb999e78",
          "display": "Dr. Hel Ping"
        }
      }
    },
    {
      "fullUrl": "urn:uuid:a854fe7b-bc5a-49f5-8ce0-8b3d62d952b5",
      "resource": {
        "resourceType": "Medication",
        "id": "a854fe7b-bc5a-49f5-8ce0-8b3d62d952b5",
        "meta": {
          "profile": [
            "http://hl7.org/fhir/uv/ips/StructureDefinition/Medication-uv-ips"
          ]
        },
        "code": {
          "coding": [
            {
              "code": "308136",
              "system": "http://www.nlm.nih.gov/research/umls/rxnorm",
              "display": "amlodipine 2.5 MG Oral Tablet"
            },
            {
              "code": "1153431000",
              "system": "http://snomed.info/sct",
              "display": "Product containing precisely amlodipine (as amlodipine besilate) 2.5 milligram/1 each conventional release oral tablet (clinical drug)"
            }
          ],
          "text": "Amlodipine (as amlodipine besylate) 2.5 mg oral tablet"
        },
        "form": {
          "coding": [
            {
              "code": "421026006",
              "system": "http://snomed.info/sct",
              "display": "Oral tablet"
            }
          ]
        },
        "ingredient": [
          {
            "itemCodeableConcept": {
              "coding": [
                {
                  "code": "384976003",
                  "system": "http://snomed.info/sct",
                  "display": "Amlodipine besylate"
                }
              ]
            },
            "isActive": true
          }
        ]
      }
    },
    {
      "fullUrl": "urn:uuid:4b16abf2-f474-4771-a72b-8edad7dda611",
      "resource": {
        "resourceType": "MedicationStatement",
        "id": "4b16abf2-f474-4771-a72b-8edad7dda611",
        "effectivePeriod": {
          "start": "2025-04-20"
        },
        "dosage": [
          {
            "doseAndRate": [
              {
                "doseQuantity": {
                  "value": 1,
                  "unit": "{tbl}",
                  "code": "{tbl}"
                }
              }
            ],
            "timing": {
              "repeat": {
                "frequency": 1,
                "period": 1,
                "periodUnit": "d"
              }
            },
            "text": "1 tablet (2.5 mg) by mouth once daily",
            "asNeededBoolean": false
          }
        ],
        "reasonCode": [
          {
            "coding": [
              {
                "code": "59621000",
                "system": "http://snomed.info/sct",
                "display": "Essential hypertension (disorder)"
              }
            ]
          }
        ],
        "status": "active",
        "medicationReference": {
          "reference": "Medication/a854fe7b-bc5a-49f5-8ce0-8b3d62d952b5",
          "display": "Amlodipine (as amlodipine besylate) 2.5 mg oral tablet"
        },
        "subject": {
          "reference": "Patient/4ba20d8a-3205-45c6-8d2e-e263d392d2a0",
          "display": "Abbondanzio Toscano"
        }
      }
    },
    {
      "fullUrl": "urn:uuid:071dab4a-fb9a-425a-b09a-9277f8feb52e",
      "resource": {
        "resourceType": "Medication",
        "id": "071dab4a-fb9a-425a-b09a-9277f8feb52e",
        "meta": {
          "profile": [
            "http://hl7.org/fhir/uv/ips/StructureDefinition/Medication-uv-ips"
          ]
        },
        "code": {
          "coding": [
            {
              "code": "310798",
              "system": "http://www.nlm.nih.gov/research/umls/rxnorm",
              "display": "hydrochlorothiazide 25 MG Oral Tablet"
            },
            {
              "code": "376209006",
              "system": "http://snomed.info/sct",
              "display": "Product containing precisely hydrochlorothiazide 25 milligram/1 each conventional release oral tablet (clinical drug)"
            }
          ],
          "text": "Hydrochlorothiazide 25 mg oral tablet"
        },
        "form": {
          "coding": [
            {
              "code": "421026006",
              "system": "http://snomed.info/sct",
              "display": "Oral tablet"
            }
          ]
        },
        "ingredient": [
          {
            "itemCodeableConcept": {
              "coding": [
                {
                  "code": "387525002",
                  "system": "http://snomed.info/sct",
                  "display": "Hydrochlorothiazide"
                }
              ]
            },
            "isActive": true
          }
        ]
      }
    },
    {
      "fullUrl": "urn:uuid:038cd925-3145-48bf-9eb6-0227ffa2ab88",
      "resource": {
        "resourceType": "MedicationStatement",
        "id": "038cd925-3145-48bf-9eb6-0227ffa2ab88",
        "effectivePeriod": {
          "start": "2025-04-20"
        },
        "dosage": [
          {
            "doseAndRate": [
              {
                "doseQuantity": {
                  "value": 1,
                  "unit": "{tbl}",
                  "code": "{tbl}"
                }
              }
            ],
            "timing": {
              "repeat": {
                "frequency": 1,
                "period": 1,
                "periodUnit": "d"
              }
            },
            "text": "1 tablet (25 mg) by mouth once daily",
            "asNeededBoolean": false
          }
        ],
        "reasonCode": [
          {
            "coding": [
              {
                "code": "59621000",
                "system": "http://snomed.info/sct",
                "display": "Essential hypertension (disorder)"
              }
            ]
          }
        ],
        "status": "active",
        "medicationReference": {
          "reference": "Medication/071dab4a-fb9a-425a-b09a-9277f8feb52e",
          "display": "Hydrochlorothiazide 25 mg oral tablet"
        },
        "subject": {
          "reference": "Patient/4ba20d8a-3205-45c6-8d2e-e263d392d2a0",
          "display": "Abbondanzio Toscano"
        }
      }
    },
    {
      "fullUrl": "urn:uuid:7b73d0c4-a06b-4a26-abba-dad5315ca2bb",
      "resource": {
        "resourceType": "Medication",
        "id": "7b73d0c4-a06b-4a26-abba-dad5315ca2bb",
        "meta": {
          "profile": [
            "http://hl7.org/fhir/uv/ips/StructureDefinition/Medication-uv-ips"
          ]
        },
        "code": {
          "coding": [
            {
              "code": "314076",
              "system": "http://www.nlm.nih.gov/research/umls/rxnorm",
              "display": "lisinopril 10 MG Oral Tablet"
            },
            {
              "code": "318859000",
              "system": "http://snomed.info/sct",
              "display": "Product containing precisely lisinopril 10 milligram/1 each conventional release oral tablet (clinical drug)"
            }
          ],
          "text": "Lisinopril 10 mg oral tablet"
        },
        "form": {
          "coding": [
            {
              "code": "421026006",
              "system": "http://snomed.info/sct",
              "display": "Oral tablet"
            }
          ]
        },
        "ingredient": [
          {
            "itemCodeableConcept": {
              "coding": [
                {
                  "code": "386873009",
                  "system": "http://snomed.info/sct",
                  "display": "Lisinopril"
                }
              ]
            },
            "isActive": true
          }
        ]
      }
    },
    {
      "fullUrl": "urn:uuid:ed00af17-5111-4692-9554-de96ce64e9d6",
      "resource": {
        "resourceType": "MedicationStatement",
        "id": "ed00af17-5111-4692-9554-de96ce64e9d6",
        "effectivePeriod": {
          "start": "2025-04-20"
        },
        "dosage": [
          {
            "doseAndRate": [
              {
                "doseQuantity": {
                  "value": 1,
                  "unit": "{tbl}",
                  "code": "{tbl}"
                }
              }
            ],
            "timing": {
              "repeat": {
                "frequency": 1,
                "period": 1,
                "periodUnit": "d"
              }
            },
            "text": "1 tablet (10 mg) by mouth once daily",
            "asNeededBoolean": false
          }
        ],
        "reasonCode": [
          {
            "coding": [
              {
                "code": "59621000",
                "system": "http://snomed.info/sct",
                "display": "Essential hypertension (disorder)"
              }
            ]
          }
        ],
        "status": "active",
        "medicationReference": {
          "reference": "Medication/7b73d0c4-a06b-4a26-abba-dad5315ca2bb",
          "display": "Lisinopril 10 mg oral tablet"
        },
        "subject": {
          "reference": "Patient/4ba20d8a-3205-45c6-8d2e-e263d392d2a0",
          "display": "Abbondanzio Toscano"
        }
      }
    },
    {
      "fullUrl": "urn:uuid:e2870bb7-ff87-4db4-9ca7-3ee35801575f",
      "resource": {
        "resourceType": "AllergyIntolerance",
        "id": "e2870bb7-ff87-4db4-9ca7-3ee35801575f",
        "meta": {
          "profile": [
            "http://hl7.eu/fhir/eps/StructureDefinition/allergyIntolerance-eu-eps"
          ]
        },
        "code": {
          "coding": [
            {
              "code": "1343356001",
              "system": "http://snomed.info/sct",
              "display": "Inadequate digital access affecting health care (finding)"
            }
          ],
          "text": "Inadequate digital access affecting health care"
        },
        "category": [
          "environment"
        ],
        "verificationStatus": {
          "coding": [
            {
              "code": "confirmed"
            }
          ]
        },
        "type": "intolerance",
        "onsetDateTime": "2025-06-16",
        "clinicalStatus": {
          "coding": [
            {
              "code": "active"
            }
          ]
        },
        "patient": {
          "reference": "Patient/4ba20d8a-3205-45c6-8d2e-e263d392d2a0",
          "display": "Abbondanzio Toscano"
        }
      }
    },
    {
      "fullUrl": "urn:uuid:771ce807-a004-46a3-8f4c-95f9c185c4c5",
      "resource": {
        "resourceType": "Immunization",
        "id": "771ce807-a004-46a3-8f4c-95f9c185c4c5",
        "meta": {
          "profile": [
            "http://hl7.org/fhir/uv/ips/StructureDefinition/Immunization-uv-ips"
          ]
        },
        "vaccineCode": {
          "coding": [
            {
              "code": "777725002",
              "system": "http://snomed.info/sct",
              "display": "Vaccine product containing only Clostridium tetani toxoid antigen adsorbed"
            },
            {
              "code": "J07AM51",
              "system": "http://www.whocc.no/atc",
              "display": "Diphtheria-tetanus vaccines, adult type"
            },
            {
              "code": "113",
              "system": "http://hl7.org/fhir/sid/cvx",
              "display": "Td (adult)  5 Lf tetanus toxoid  preservative free  adsorbed"
            }
          ],
          "text": "Clostridium tetani toxoid antigen adsorbed only vaccine product"
        },
        "site": {
          "coding": [
            {
              "code": "73776007",
              "system": "http://snomed.info/sct",
              "display": "Structure of muscle of upper arm"
            }
          ],
          "text": "Structure of muscle of upper arm"
        },
        "route": {
          "coding": [
            {
              "code": "78421000",
              "system": "http://snomed.info/sct",
              "display": "Intramuscular route"
            }
          ],
          "text": "Intramuscular route"
        },
        "status": "completed",
        "patient": {
          "reference": "Patient/4ba20d8a-3205-45c6-8d2e-e263d392d2a0",
          "display": "Abbondanzio Toscano"
        },
        "occurrenceDateTime": "2025-04-20",
        "lotNumber": "UC-tAXDqhp",
        "expirationDate": "2025-11-16"
      }
    },
    {
      "fullUrl": "urn:uuid:5b0d9449-07c2-4c8e-9a82-3c80646d7839",
      "resource": {
        "resourceType": "Immunization",
        "id": "5b0d9449-07c2-4c8e-9a82-3c80646d7839",
        "meta": {
          "profile": [
            "http://hl7.org/fhir/uv/ips/StructureDefinition/Immunization-uv-ips"
          ]
        },
        "vaccineCode": {
          "coding": [
            {
              "code": "2221000221107",
              "system": "http://snomed.info/sct",
              "display": "Live attenuated Varicella-zoster vaccine"
            },
            {
              "code": "J07BK02",
              "system": "http://www.whocc.no/atc",
              "display": "Varicella-zoster vaccines"
            },
            {
              "code": "121",
              "system": "http://hl7.org/fhir/sid/cvx",
              "display": "zoster vaccine  live"
            }
          ],
          "text": "Live attenuated Human alphaherpesvirus 3 only vaccine product"
        },
        "site": {
          "coding": [
            {
              "code": "368208006",
              "system": "http://snomed.info/sct",
              "display": "Structure of skin of upper arm"
            }
          ],
          "text": "Structure of skin of upper arm"
        },
        "route": {
          "coding": [
            {
              "code": "34206005",
              "system": "http://snomed.info/sct",
              "display": "Subcutaneous route"
            }
          ],
          "text": "Subcutaneous route"
        },
        "status": "completed",
        "patient": {
          "reference": "Patient/4ba20d8a-3205-45c6-8d2e-e263d392d2a0",
          "display": "Abbondanzio Toscano"
        },
        "occurrenceDateTime": "2025-04-20",
        "lotNumber": "TT-ygyfS",
        "expirationDate": "2025-09-14"
      }
    },
    {
      "fullUrl": "urn:uuid:9c66c695-8a7d-4870-83a2-4043e81f7b20",
      "resource": {
        "resourceType": "Immunization",
        "id": "9c66c695-8a7d-4870-83a2-4043e81f7b20",
        "meta": {
          "profile": [
            "http://hl7.org/fhir/uv/ips/StructureDefinition/Immunization-uv-ips"
          ]
        },
        "vaccineCode": {
          "coding": [
            {
              "code": "1181000221105",
              "system": "http://snomed.info/sct",
              "display": "Vaccine product containing Influenza virus antigen"
            },
            {
              "code": "J07BB02",
              "system": "http://www.whocc.no/atc",
              "display": "Influenza, inactivated, split virus"
            },
            {
              "code": "140",
              "system": "http://hl7.org/fhir/sid/cvx",
              "display": "Influenza  seasonal  injectable  preservative free"
            }
          ],
          "text": "Influenza virus antigen only vaccine product"
        },
        "site": {
          "coding": [
            {
              "code": "73776007",
              "system": "http://snomed.info/sct",
              "display": "Structure of muscle of upper arm"
            }
          ],
          "text": "Structure of muscle of upper arm"
        },
        "route": {
          "coding": [
            {
              "code": "78421000",
              "system": "http://snomed.info/sct",
              "display": "Intramuscular route"
            }
          ],
          "text": "Intramuscular route"
        },
        "status": "completed",
        "patient": {
          "reference": "Patient/4ba20d8a-3205-45c6-8d2e-e263d392d2a0",
          "display": "Abbondanzio Toscano"
        },
        "occurrenceDateTime": "2025-04-20",
        "lotNumber": "QO-y8mlh",
        "expirationDate": "2026-03-16"
      }
    },
    {
      "fullUrl": "urn:uuid:363d55d2-138d-4d61-a95a-7d8fe0d10b3f",
      "resource": {
        "resourceType": "Immunization",
        "id": "363d55d2-138d-4d61-a95a-7d8fe0d10b3f",
        "meta": {
          "profile": [
            "http://hl7.org/fhir/uv/ips/StructureDefinition/Immunization-uv-ips"
          ]
        },
        "vaccineCode": {
          "coding": [
            {
              "code": "1119349007",
              "system": "http://snomed.info/sct",
              "display": "Vaccine product containing SARS-CoV-2 mRNA"
            },
            {
              "code": "J07BX03",
              "system": "http://www.whocc.no/atc",
              "display": "COVID-19 mRNA vaccines"
            },
            {
              "code": "207",
              "system": "http://hl7.org/fhir/sid/cvx",
              "display": "COVID-19  mRNA  LNP-S  PF  100 mcg/0.5mL dose or 50 mcg/0.25mL dose"
            }
          ],
          "text": "SARS-CoV-2 mRNA vaccine"
        },
        "site": {
          "coding": [
            {
              "code": "73776007",
              "system": "http://snomed.info/sct",
              "display": "Structure of muscle of upper arm"
            }
          ],
          "text": "Structure of muscle of upper arm"
        },
        "route": {
          "coding": [
            {
              "code": "78421000",
              "system": "http://snomed.info/sct",
              "display": "Intramuscular route"
            }
          ],
          "text": "Intramuscular route"
        },
        "status": "completed",
        "patient": {
          "reference": "Patient/4ba20d8a-3205-45c6-8d2e-e263d392d2a0",
          "display": "Abbondanzio Toscano"
        },
        "occurrenceDateTime": "2021-03-21",
        "lotNumber": "RO-t5nUXguuy",
        "expirationDate": "2022-01-03"
      }
    }
  ],
  "type": "document",
  "timestamp": "2025-06-16T17:28:57Z"
}
