{
  "resourceType": "Bundle",
  "id": "Instance-Bundle-4074d95f-5051-4863-a686-f191cc2f74d8",
  "meta": {
    "profile": [
      "http://hl7.eu/fhir/eps/StructureDefinition/bundle-eu-eps"
    ]
  },
  "identifier": {
    "assigner": {
      "display": "HL7 Europe"
    },
    "system": "urn:oid:2.16.840.1.113883.2.51.999",
    "value": "767b9e3a-ea3d-487b-b7c2-6bfb98ef70b3"
  },
  "entry": [
    {
      "fullUrl": "urn:uuid:7fe85814-868a-473b-98b4-804700fce3a9",
      "resource": {
        "resourceType": "Composition",
        "id": "7fe85814-868a-473b-98b4-804700fce3a9",
        "meta": {
          "profile": [
            "http://hl7.eu/fhir/eps/StructureDefinition/composition-eu-eps"
          ]
        },
        "identifier": {
          "assigner": {
            "display": "HL7 Europe"
          },
          "system": "urn:oid:2.16.840.1.113883.2.51.999",
          "value": "34614f85-ad45-4088-9f93-46e3a74dca85"
        },
        "type": {
          "coding": [
            {
              "system": "http://loinc.org",
              "code": "60591-5",
              "display": "European Patient Summary"
            }
          ],
          "text": "European Patient Summary"
        },
        "author": [
          {
            "reference": "urn:uuid:96c8edab-08f8-4ff0-9c7d-16852b430c4d"
          }
        ],
        "section": [
          {
            "text": {
              "status": "generated",
              "div": "<div xmlns=\"http://www.w3.org/1999/xhtml\"><table class=\"hl7__ips\"><tr><th>Condition</th><th>Onset Date</th><th>Status</th></tr><tr><td>Metabolic syndrome X</td><td><span class=\"nb\">2019-03-17</span></td><td>active</td></tr><tr><td>Essential hypertension</td><td><span class=\"nb\">2014-02-16</span></td><td>active</td></tr><tr><td>Anemia</td><td><span class=\"nb\">2008-04-27</span></td><td>active</td></tr><tr><td><span class=\"grayedout\">Viral sinusitis</span></td><td><span class=\"nb\">2023-12-18</span></td><td><span class=\"grayedout\">inactive</span></td></tr><tr><td><span class=\"grayedout\">Sprain of ankle</span></td><td><span class=\"nb\">2023-02-01</span></td><td><span class=\"grayedout\">inactive</span></td></tr><tr><td><span class=\"grayedout\">Gingival disease</span></td><td><span class=\"nb\">2020-04-06</span></td><td><span class=\"grayedout\">inactive</span></td></tr><tr><td><span class=\"grayedout\">Gingivitis</span></td><td><span class=\"nb\">2020-03-22</span></td><td><span class=\"grayedout\">inactive</span></td></tr></table></div>"
            },
            "entry": [
              {
                "reference": "urn:uuid:430b4928-f07a-49c7-8669-fa3473824573"
              },
              {
                "reference": "urn:uuid:ae71966a-72a2-44c4-a174-d3de8fc9d213"
              },
              {
                "reference": "urn:uuid:bd4a9353-3f6b-4e38-a6ce-42d16e2e4a5b"
              },
              {
                "reference": "urn:uuid:1b727c19-b614-4d0c-ab5f-8bcbdff1789d"
              },
              {
                "reference": "urn:uuid:fa9260ae-82ea-4b9e-8f28-25f3e5915d4d"
              },
              {
                "reference": "urn:uuid:7b42e57a-6c56-4a05-8bde-4921675f6358"
              },
              {
                "reference": "urn:uuid:76aa1581-5122-4d34-bae1-d95df8e714d9"
              }
            ],
            "code": {
              "coding": [
                {
                  "system": "http://loinc.org",
                  "code": "11450-4",
                  "display": "Problem list - Reported"
                }
              ]
            },
            "title": "Problem list"
          },
          {
            "text": {
              "status": "generated",
              "div": "<div xmlns=\"http://www.w3.org/1999/xhtml\"><table class=\"hl7__ips\"><tr><th>Medication</th><th>Since</th><th>Form</th><th>Dosage</th><th>Reason</th></tr><tr><td>Amlodipine (as amlodipine besylate) 2.5 mg oral tablet</td><td><span class=\"nb\">2025-04-20</span></td><td>Oral tablet</td><td>1 tablet (2.5 mg) by mouth once daily</td><td>Essential hypertension (disorder)</td></tr><tr><td>Hydrochlorothiazide 25 mg oral tablet</td><td><span class=\"nb\">2025-04-20</span></td><td>Oral tablet</td><td>1 tablet (25 mg) by mouth once daily</td><td>Essential hypertension (disorder)</td></tr><tr><td>Lisinopril 10 mg oral tablet</td><td><span class=\"nb\">2025-04-20</span></td><td>Oral tablet</td><td>1 tablet (10 mg) by mouth once daily</td><td>Essential hypertension (disorder)</td></tr></table></div>"
            },
            "entry": [
              {
                "reference": "urn:uuid:08ee65de-259a-4110-9a8c-231f8d322d6a"
              },
              {
                "reference": "urn:uuid:04d91ec9-c411-4182-abb3-d07192d4446a"
              },
              {
                "reference": "urn:uuid:862fe75e-38b9-43af-b2b1-781918c399b5"
              }
            ],
            "code": {
              "coding": [
                {
                  "system": "http://loinc.org",
                  "code": "10160-0",
                  "display": "History of Medication use Narrative"
                }
              ]
            },
            "title": "Medication list"
          },
          {
            "text": {
              "status": "generated",
              "div": "<div xmlns=\"http://www.w3.org/1999/xhtml\"><table class=\"hl7__ips\"><tr><td>No known allergies or intolerances</td></tr></table></div>"
            },
            "entry": [
              {
                "reference": "urn:uuid:2f47aee6-36f3-4f7c-9a2d-deb0f2372028"
              }
            ],
            "code": {
              "coding": [
                {
                  "system": "http://loinc.org",
                  "code": "48765-2",
                  "display": "Allergies and adverse reactions Document"
                }
              ]
            },
            "title": "Allergies and Intolerances"
          },
          {
            "text": {
              "status": "generated",
              "div": "<div xmlns=\"http://www.w3.org/1999/xhtml\"><table class=\"hl7__ips\"><tr><th>Vaccine</th><th>Date</th></tr><tr><td>Clostridium tetani toxoid antigen adsorbed only vaccine product</td><td><span class=\"nb\">2025-04-20</span></td></tr><tr><td>Live attenuated Human alphaherpesvirus 3 only vaccine product</td><td><span class=\"nb\">2025-04-20</span></td></tr><tr><td>Influenza virus antigen only vaccine product</td><td><span class=\"nb\">2025-04-20</span></td></tr><tr><td>SARS-CoV-2 mRNA vaccine</td><td><span class=\"nb\">2021-03-21</span></td></tr></table></div>"
            },
            "entry": [
              {
                "reference": "urn:uuid:43313f17-201d-4d50-8756-61c8c7750f76"
              },
              {
                "reference": "urn:uuid:ee693585-2d48-47af-95fa-4c17cc3a376d"
              },
              {
                "reference": "urn:uuid:3d00efae-bc19-48b1-82e3-cd778c477a66"
              },
              {
                "reference": "urn:uuid:ffd3edc8-f94d-488a-a42c-9702706ad784"
              }
            ],
            "code": {
              "coding": [
                {
                  "system": "http://loinc.org",
                  "code": "11369-6",
                  "display": "History of Immunization Narrative"
                }
              ]
            },
            "title": "Immunizations list"
          }
        ],
        "title": "European Patient Summary",
        "status": "final",
        "subject": {
          "reference": "urn:uuid:2677a296-dc77-43ca-8224-1e7c7607cd86"
        },
        "custodian": {
          "reference": "urn:uuid:9c012146-3657-4cc3-92eb-61c7abd52420"
        },
        "date": "2025-06-17T11:26:49Z",
        "confidentiality": "N"
      }
    },
    {
      "fullUrl": "urn:uuid:2677a296-dc77-43ca-8224-1e7c7607cd86",
      "resource": {
        "resourceType": "Patient",
        "id": "2677a296-dc77-43ca-8224-1e7c7607cd86",
        "meta": {
          "profile": [
            "http://hl7.eu/fhir/eps/StructureDefinition/patient-eu-eps"
          ]
        },
        "identifier": [
          {
            "type": {
              "coding": [
                {
                  "code": "NI",
                  "system": "http://terminology.hl7.org/CodeSystem/v2-0203"
                }
              ]
            },
            "system": "http://ec.europa.eu/identifier/eci",
            "value": "2005-291300-9"
          },
          {
            "type": {
              "coding": [
                {
                  "code": "MR",
                  "system": "http://terminology.hl7.org/CodeSystem/v2-0203"
                }
              ]
            },
            "system": "http://local.setting.eu/identifier",
            "value": "93a03445-fe41-caaf-52eb-b1cd8690e385"
          }
        ],
        "name": [
          {
            "given": [
              "Abbondanzio"
            ],
            "family": "Toscano",
            "text": "Abbondanzio Toscano"
          }
        ],
        "address": [
          {
            "line": [
              "Via del Viminale 11"
            ],
            "use": "home",
            "type": "physical",
            "city": "Decimomannu",
            "postalCode": "09033",
            "country": "Italy"
          }
        ],
        "telecom": [
          {
            "system": "phone",
            "value": "+39 0315 8083857"
          }
        ],
        "gender": "male",
        "birthDate": "1979-07-04"
      }
    },
    {
      "fullUrl": "urn:uuid:96c8edab-08f8-4ff0-9c7d-16852b430c4d",
      "resource": {
        "resourceType": "PractitionerRole",
        "id": "96c8edab-08f8-4ff0-9c7d-16852b430c4d",
        "meta": {
          "profile": [
            "http://hl7.eu/fhir/base/StructureDefinition/practitionerRole-eu"
          ]
        },
        "practitioner": {
          "reference": "urn:uuid:e2389273-63fb-4cfe-810d-ef64e3e9004d"
        },
        "organization": {
          "reference": "urn:uuid:9c012146-3657-4cc3-92eb-61c7abd52420"
        }
      }
    },
    {
      "fullUrl": "urn:uuid:e2389273-63fb-4cfe-810d-ef64e3e9004d",
      "resource": {
        "resourceType": "Practitioner",
        "id": "e2389273-63fb-4cfe-810d-ef64e3e9004d",
        "meta": {
          "profile": [
            "http://hl7.eu/fhir/base/StructureDefinition/practitioner-eu"
          ]
        },
        "name": [
          {
            "prefix": [
              "Dr."
            ],
            "given": [
              "Hel"
            ],
            "family": "Ping"
          }
        ]
      }
    },
    {
      "fullUrl": "urn:uuid:430b4928-f07a-49c7-8669-fa3473824573",
      "resource": {
        "resourceType": "Condition",
        "id": "430b4928-f07a-49c7-8669-fa3473824573",
        "meta": {
          "profile": [
            "http://hl7.org/fhir/uv/ips/StructureDefinition/Condition-uv-ips"
          ]
        },
        "category": [
          {
            "coding": [
              {
                "code": "problem-list-item",
                "system": "http://terminology.hl7.org/CodeSystem/condition-category",
                "display": "Problem List Item"
              }
            ]
          }
        ],
        "code": {
          "coding": [
            {
              "code": "237602007",
              "system": "http://snomed.info/sct",
              "display": "Metabolic syndrome X (disorder)"
            }
          ],
          "text": "Metabolic syndrome X"
        },
        "onsetDateTime": "2019-03-17",
        "clinicalStatus": {
          "coding": [
            {
              "code": "active",
              "system": "http://terminology.hl7.org/CodeSystem/condition-clinical"
            }
          ]
        },
        "subject": {
          "reference": "Patient/2677a296-dc77-43ca-8224-1e7c7607cd86",
          "display": "Abbondanzio Toscano"
        },
        "asserter": {
          "reference": "Practitioner/e2389273-63fb-4cfe-810d-ef64e3e9004d",
          "display": "Dr. Hel Ping"
        }
      }
    },
    {
      "fullUrl": "urn:uuid:ae71966a-72a2-44c4-a174-d3de8fc9d213",
      "resource": {
        "resourceType": "Condition",
        "id": "ae71966a-72a2-44c4-a174-d3de8fc9d213",
        "meta": {
          "profile": [
            "http://hl7.org/fhir/uv/ips/StructureDefinition/Condition-uv-ips"
          ]
        },
        "category": [
          {
            "coding": [
              {
                "code": "problem-list-item",
                "system": "http://terminology.hl7.org/CodeSystem/condition-category",
                "display": "Problem List Item"
              }
            ]
          }
        ],
        "code": {
          "coding": [
            {
              "code": "59621000",
              "system": "http://snomed.info/sct",
              "display": "Essential hypertension (disorder)"
            }
          ],
          "text": "Essential hypertension"
        },
        "onsetDateTime": "2014-02-16",
        "clinicalStatus": {
          "coding": [
            {
              "code": "active",
              "system": "http://terminology.hl7.org/CodeSystem/condition-clinical"
            }
          ]
        },
        "subject": {
          "reference": "Patient/2677a296-dc77-43ca-8224-1e7c7607cd86",
          "display": "Abbondanzio Toscano"
        },
        "asserter": {
          "reference": "Practitioner/e2389273-63fb-4cfe-810d-ef64e3e9004d",
          "display": "Dr. Hel Ping"
        }
      }
    },
    {
      "fullUrl": "urn:uuid:bd4a9353-3f6b-4e38-a6ce-42d16e2e4a5b",
      "resource": {
        "resourceType": "Condition",
        "id": "bd4a9353-3f6b-4e38-a6ce-42d16e2e4a5b",
        "meta": {
          "profile": [
            "http://hl7.org/fhir/uv/ips/StructureDefinition/Condition-uv-ips"
          ]
        },
        "category": [
          {
            "coding": [
              {
                "code": "problem-list-item",
                "system": "http://terminology.hl7.org/CodeSystem/condition-category",
                "display": "Problem List Item"
              }
            ]
          }
        ],
        "code": {
          "coding": [
            {
              "code": "271737000",
              "system": "http://snomed.info/sct",
              "display": "Anemia (disorder)"
            }
          ],
          "text": "Anemia"
        },
        "onsetDateTime": "2008-04-27",
        "clinicalStatus": {
          "coding": [
            {
              "code": "active",
              "system": "http://terminology.hl7.org/CodeSystem/condition-clinical"
            }
          ]
        },
        "subject": {
          "reference": "Patient/2677a296-dc77-43ca-8224-1e7c7607cd86",
          "display": "Abbondanzio Toscano"
        },
        "asserter": {
          "reference": "Practitioner/e2389273-63fb-4cfe-810d-ef64e3e9004d",
          "display": "Dr. Hel Ping"
        }
      }
    },
    {
      "fullUrl": "urn:uuid:1b727c19-b614-4d0c-ab5f-8bcbdff1789d",
      "resource": {
        "resourceType": "Condition",
        "id": "1b727c19-b614-4d0c-ab5f-8bcbdff1789d",
        "meta": {
          "profile": [
            "http://hl7.org/fhir/uv/ips/StructureDefinition/Condition-uv-ips"
          ]
        },
        "category": [
          {
            "coding": [
              {
                "code": "problem-list-item",
                "system": "http://terminology.hl7.org/CodeSystem/condition-category",
                "display": "Problem List Item"
              }
            ]
          }
        ],
        "code": {
          "coding": [
            {
              "code": "444814009",
              "system": "http://snomed.info/sct",
              "display": "Viral sinusitis (disorder)"
            }
          ],
          "text": "Viral sinusitis"
        },
        "onsetDateTime": "2023-12-18",
        "clinicalStatus": {
          "coding": [
            {
              "code": "inactive",
              "system": "http://terminology.hl7.org/CodeSystem/condition-clinical"
            }
          ]
        },
        "subject": {
          "reference": "Patient/2677a296-dc77-43ca-8224-1e7c7607cd86",
          "display": "Abbondanzio Toscano"
        },
        "asserter": {
          "reference": "Practitioner/e2389273-63fb-4cfe-810d-ef64e3e9004d",
          "display": "Dr. Hel Ping"
        }
      }
    },
    {
      "fullUrl": "urn:uuid:fa9260ae-82ea-4b9e-8f28-25f3e5915d4d",
      "resource": {
        "resourceType": "Condition",
        "id": "fa9260ae-82ea-4b9e-8f28-25f3e5915d4d",
        "meta": {
          "profile": [
            "http://hl7.org/fhir/uv/ips/StructureDefinition/Condition-uv-ips"
          ]
        },
        "category": [
          {
            "coding": [
              {
                "code": "problem-list-item",
                "system": "http://terminology.hl7.org/CodeSystem/condition-category",
                "display": "Problem List Item"
              }
            ]
          }
        ],
        "code": {
          "coding": [
            {
              "code": "44465007",
              "system": "http://snomed.info/sct",
              "display": "Sprain of ankle (disorder)"
            }
          ],
          "text": "Sprain of ankle"
        },
        "onsetDateTime": "2023-02-01",
        "clinicalStatus": {
          "coding": [
            {
              "code": "inactive",
              "system": "http://terminology.hl7.org/CodeSystem/condition-clinical"
            }
          ]
        },
        "subject": {
          "reference": "Patient/2677a296-dc77-43ca-8224-1e7c7607cd86",
          "display": "Abbondanzio Toscano"
        },
        "asserter": {
          "reference": "Practitioner/e2389273-63fb-4cfe-810d-ef64e3e9004d",
          "display": "Dr. Hel Ping"
        }
      }
    },
    {
      "fullUrl": "urn:uuid:7b42e57a-6c56-4a05-8bde-4921675f6358",
      "resource": {
        "resourceType": "Condition",
        "id": "7b42e57a-6c56-4a05-8bde-4921675f6358",
        "meta": {
          "profile": [
            "http://hl7.org/fhir/uv/ips/StructureDefinition/Condition-uv-ips"
          ]
        },
        "category": [
          {
            "coding": [
              {
                "code": "problem-list-item",
                "system": "http://terminology.hl7.org/CodeSystem/condition-category",
                "display": "Problem List Item"
              }
            ]
          }
        ],
        "code": {
          "coding": [
            {
              "code": "18718003",
              "system": "http://snomed.info/sct",
              "display": "Gingival disease (disorder)"
            }
          ],
          "text": "Gingival disease"
        },
        "onsetDateTime": "2020-04-06",
        "clinicalStatus": {
          "coding": [
            {
              "code": "inactive",
              "system": "http://terminology.hl7.org/CodeSystem/condition-clinical"
            }
          ]
        },
        "subject": {
          "reference": "Patient/2677a296-dc77-43ca-8224-1e7c7607cd86",
          "display": "Abbondanzio Toscano"
        },
        "asserter": {
          "reference": "Practitioner/e2389273-63fb-4cfe-810d-ef64e3e9004d",
          "display": "Dr. Hel Ping"
        }
      }
    },
    {
      "fullUrl": "urn:uuid:76aa1581-5122-4d34-bae1-d95df8e714d9",
      "resource": {
        "resourceType": "Condition",
        "id": "76aa1581-5122-4d34-bae1-d95df8e714d9",
        "meta": {
          "profile": [
            "http://hl7.org/fhir/uv/ips/StructureDefinition/Condition-uv-ips"
          ]
        },
        "category": [
          {
            "coding": [
              {
                "code": "problem-list-item",
                "system": "http://terminology.hl7.org/CodeSystem/condition-category",
                "display": "Problem List Item"
              }
            ]
          }
        ],
        "code": {
          "coding": [
            {
              "code": "66383009",
              "system": "http://snomed.info/sct",
              "display": "Gingivitis (disorder)"
            }
          ],
          "text": "Gingivitis"
        },
        "onsetDateTime": "2020-03-22",
        "clinicalStatus": {
          "coding": [
            {
              "code": "inactive",
              "system": "http://terminology.hl7.org/CodeSystem/condition-clinical"
            }
          ]
        },
        "subject": {
          "reference": "Patient/2677a296-dc77-43ca-8224-1e7c7607cd86",
          "display": "Abbondanzio Toscano"
        },
        "asserter": {
          "reference": "Practitioner/e2389273-63fb-4cfe-810d-ef64e3e9004d",
          "display": "Dr. Hel Ping"
        }
      }
    },
    {
      "fullUrl": "urn:uuid:e3897228-140c-4585-8c2d-9f0b52585aeb",
      "resource": {
        "resourceType": "Medication",
        "id": "e3897228-140c-4585-8c2d-9f0b52585aeb",
        "meta": {
          "profile": [
            "http://hl7.org/fhir/uv/ips/StructureDefinition/Medication-uv-ips"
          ]
        },
        "code": {
          "coding": [
            {
              "code": "308136",
              "system": "http://www.nlm.nih.gov/research/umls/rxnorm",
              "display": "amlodipine 2.5 MG Oral Tablet"
            },
            {
              "code": "1153431000",
              "system": "http://snomed.info/sct",
              "display": "Product containing precisely amlodipine (as amlodipine besilate) 2.5 milligram/1 each conventional release oral tablet (clinical drug)"
            }
          ],
          "text": "Amlodipine (as amlodipine besylate) 2.5 mg oral tablet"
        },
        "form": {
          "coding": [
            {
              "code": "421026006",
              "system": "http://snomed.info/sct",
              "display": "Oral tablet"
            }
          ]
        },
        "ingredient": [
          {
            "itemCodeableConcept": {
              "coding": [
                {
                  "code": "384976003",
                  "system": "http://snomed.info/sct",
                  "display": "Amlodipine besylate"
                }
              ]
            },
            "isActive": true
          }
        ]
      }
    },
    {
      "fullUrl": "urn:uuid:08ee65de-259a-4110-9a8c-231f8d322d6a",
      "resource": {
        "resourceType": "MedicationStatement",
        "id": "08ee65de-259a-4110-9a8c-231f8d322d6a",
        "meta": {
          "profile": [
            "http://hl7.org/fhir/uv/ips/StructureDefinition/MedicationStatement-uv-ips"
          ]
        },
        "effectivePeriod": {
          "start": "2025-04-20"
        },
        "dosage": [
          {
            "doseAndRate": [
              {
                "doseQuantity": {
                  "value": 1,
                  "unit": "{tbl}",
                  "code": "{tbl}"
                }
              }
            ],
            "timing": {
              "repeat": {
                "frequency": 1,
                "period": 1,
                "periodUnit": "d"
              }
            },
            "text": "1 tablet (2.5 mg) by mouth once daily",
            "asNeededBoolean": false
          }
        ],
        "reasonCode": [
          {
            "coding": [
              {
                "code": "59621000",
                "system": "http://snomed.info/sct",
                "display": "Essential hypertension (disorder)"
              }
            ]
          }
        ],
        "status": "active",
        "medicationReference": {
          "reference": "Medication/e3897228-140c-4585-8c2d-9f0b52585aeb",
          "display": "Amlodipine (as amlodipine besylate) 2.5 mg oral tablet"
        },
        "subject": {
          "reference": "Patient/2677a296-dc77-43ca-8224-1e7c7607cd86",
          "display": "Abbondanzio Toscano"
        }
      }
    },
    {
      "fullUrl": "urn:uuid:c7440608-2eb8-497d-83a1-3724397b780f",
      "resource": {
        "resourceType": "Medication",
        "id": "c7440608-2eb8-497d-83a1-3724397b780f",
        "meta": {
          "profile": [
            "http://hl7.org/fhir/uv/ips/StructureDefinition/Medication-uv-ips"
          ]
        },
        "code": {
          "coding": [
            {
              "code": "310798",
              "system": "http://www.nlm.nih.gov/research/umls/rxnorm",
              "display": "hydrochlorothiazide 25 MG Oral Tablet"
            },
            {
              "code": "376209006",
              "system": "http://snomed.info/sct",
              "display": "Product containing precisely hydrochlorothiazide 25 milligram/1 each conventional release oral tablet (clinical drug)"
            }
          ],
          "text": "Hydrochlorothiazide 25 mg oral tablet"
        },
        "form": {
          "coding": [
            {
              "code": "421026006",
              "system": "http://snomed.info/sct",
              "display": "Oral tablet"
            }
          ]
        },
        "ingredient": [
          {
            "itemCodeableConcept": {
              "coding": [
                {
                  "code": "387525002",
                  "system": "http://snomed.info/sct",
                  "display": "Hydrochlorothiazide"
                }
              ]
            },
            "isActive": true
          }
        ]
      }
    },
    {
      "fullUrl": "urn:uuid:04d91ec9-c411-4182-abb3-d07192d4446a",
      "resource": {
        "resourceType": "MedicationStatement",
        "id": "04d91ec9-c411-4182-abb3-d07192d4446a",
        "meta": {
          "profile": [
            "http://hl7.org/fhir/uv/ips/StructureDefinition/MedicationStatement-uv-ips"
          ]
        },
        "effectivePeriod": {
          "start": "2025-04-20"
        },
        "dosage": [
          {
            "doseAndRate": [
              {
                "doseQuantity": {
                  "value": 1,
                  "unit": "{tbl}",
                  "code": "{tbl}"
                }
              }
            ],
            "timing": {
              "repeat": {
                "frequency": 1,
                "period": 1,
                "periodUnit": "d"
              }
            },
            "text": "1 tablet (25 mg) by mouth once daily",
            "asNeededBoolean": false
          }
        ],
        "reasonCode": [
          {
            "coding": [
              {
                "code": "59621000",
                "system": "http://snomed.info/sct",
                "display": "Essential hypertension (disorder)"
              }
            ]
          }
        ],
        "status": "active",
        "medicationReference": {
          "reference": "Medication/c7440608-2eb8-497d-83a1-3724397b780f",
          "display": "Hydrochlorothiazide 25 mg oral tablet"
        },
        "subject": {
          "reference": "Patient/2677a296-dc77-43ca-8224-1e7c7607cd86",
          "display": "Abbondanzio Toscano"
        }
      }
    },
    {
      "fullUrl": "urn:uuid:f476e9db-c27e-4265-878e-21e41bca1861",
      "resource": {
        "resourceType": "Medication",
        "id": "f476e9db-c27e-4265-878e-21e41bca1861",
        "meta": {
          "profile": [
            "http://hl7.org/fhir/uv/ips/StructureDefinition/Medication-uv-ips"
          ]
        },
        "code": {
          "coding": [
            {
              "code": "314076",
              "system": "http://www.nlm.nih.gov/research/umls/rxnorm",
              "display": "lisinopril 10 MG Oral Tablet"
            },
            {
              "code": "318859000",
              "system": "http://snomed.info/sct",
              "display": "Product containing precisely lisinopril 10 milligram/1 each conventional release oral tablet (clinical drug)"
            }
          ],
          "text": "Lisinopril 10 mg oral tablet"
        },
        "form": {
          "coding": [
            {
              "code": "421026006",
              "system": "http://snomed.info/sct",
              "display": "Oral tablet"
            }
          ]
        },
        "ingredient": [
          {
            "itemCodeableConcept": {
              "coding": [
                {
                  "code": "386873009",
                  "system": "http://snomed.info/sct",
                  "display": "Lisinopril"
                }
              ]
            },
            "isActive": true
          }
        ]
      }
    },
    {
      "fullUrl": "urn:uuid:862fe75e-38b9-43af-b2b1-781918c399b5",
      "resource": {
        "resourceType": "MedicationStatement",
        "id": "862fe75e-38b9-43af-b2b1-781918c399b5",
        "meta": {
          "profile": [
            "http://hl7.org/fhir/uv/ips/StructureDefinition/MedicationStatement-uv-ips"
          ]
        },
        "effectivePeriod": {
          "start": "2025-04-20"
        },
        "dosage": [
          {
            "doseAndRate": [
              {
                "doseQuantity": {
                  "value": 1,
                  "unit": "{tbl}",
                  "code": "{tbl}"
                }
              }
            ],
            "timing": {
              "repeat": {
                "frequency": 1,
                "period": 1,
                "periodUnit": "d"
              }
            },
            "text": "1 tablet (10 mg) by mouth once daily",
            "asNeededBoolean": false
          }
        ],
        "reasonCode": [
          {
            "coding": [
              {
                "code": "59621000",
                "system": "http://snomed.info/sct",
                "display": "Essential hypertension (disorder)"
              }
            ]
          }
        ],
        "status": "active",
        "medicationReference": {
          "reference": "Medication/f476e9db-c27e-4265-878e-21e41bca1861",
          "display": "Lisinopril 10 mg oral tablet"
        },
        "subject": {
          "reference": "Patient/2677a296-dc77-43ca-8224-1e7c7607cd86",
          "display": "Abbondanzio Toscano"
        }
      }
    },
    {
      "fullUrl": "urn:uuid:2f47aee6-36f3-4f7c-9a2d-deb0f2372028",
      "resource": {
        "resourceType": "AllergyIntolerance",
        "id": "2f47aee6-36f3-4f7c-9a2d-deb0f2372028",
        "meta": {
          "profile": [
            "http://hl7.eu/fhir/eps/StructureDefinition/allergyIntolerance-eu-eps"
          ]
        },
        "code": {
          "coding": [
            {
              "code": "716186003",
              "system": "http://snomed.info/sct",
              "display": "No known allergy (situation)"
            }
          ]
        },
        "patient": {
          "reference": "Patient/2677a296-dc77-43ca-8224-1e7c7607cd86",
          "display": "Abbondanzio Toscano"
        },
        "_onsetDateTime": {
          "extension": [
            {
              "url": "http://hl7.org/fhir/StructureDefinition/data-absent-reason",
              "valueCode": "unknown"
            }
          ]
        }
      }
    },
    {
      "fullUrl": "urn:uuid:43313f17-201d-4d50-8756-61c8c7750f76",
      "resource": {
        "resourceType": "Immunization",
        "id": "43313f17-201d-4d50-8756-61c8c7750f76",
        "meta": {
          "profile": [
            "http://hl7.org/fhir/uv/ips/StructureDefinition/Immunization-uv-ips"
          ]
        },
        "vaccineCode": {
          "coding": [
            {
              "code": "777725002",
              "system": "http://snomed.info/sct",
              "display": "Vaccine product containing only Clostridium tetani toxoid antigen adsorbed"
            },
            {
              "code": "J07AM51",
              "system": "http://www.whocc.no/atc",
              "display": "Diphtheria-tetanus vaccines, adult type"
            },
            {
              "code": "113",
              "system": "http://hl7.org/fhir/sid/cvx",
              "display": "Td (adult)  5 Lf tetanus toxoid  preservative free  adsorbed"
            }
          ],
          "text": "Clostridium tetani toxoid antigen adsorbed only vaccine product"
        },
        "site": {
          "coding": [
            {
              "code": "73776007",
              "system": "http://snomed.info/sct",
              "display": "Structure of muscle of upper arm"
            }
          ],
          "text": "Structure of muscle of upper arm"
        },
        "route": {
          "coding": [
            {
              "code": "78421000",
              "system": "http://snomed.info/sct",
              "display": "Intramuscular route"
            }
          ],
          "text": "Intramuscular route"
        },
        "status": "completed",
        "patient": {
          "reference": "Patient/2677a296-dc77-43ca-8224-1e7c7607cd86",
          "display": "Abbondanzio Toscano"
        },
        "occurrenceDateTime": "2025-04-20",
        "lotNumber": "NV-zg0YunZ8",
        "expirationDate": "2026-02-09"
      }
    },
    {
      "fullUrl": "urn:uuid:ee693585-2d48-47af-95fa-4c17cc3a376d",
      "resource": {
        "resourceType": "Immunization",
        "id": "ee693585-2d48-47af-95fa-4c17cc3a376d",
        "meta": {
          "profile": [
            "http://hl7.org/fhir/uv/ips/StructureDefinition/Immunization-uv-ips"
          ]
        },
        "vaccineCode": {
          "coding": [
            {
              "code": "2221000221107",
              "system": "http://snomed.info/sct",
              "display": "Live attenuated Varicella-zoster vaccine"
            },
            {
              "code": "J07BK02",
              "system": "http://www.whocc.no/atc",
              "display": "Varicella-zoster vaccines"
            },
            {
              "code": "121",
              "system": "http://hl7.org/fhir/sid/cvx",
              "display": "zoster vaccine  live"
            }
          ],
          "text": "Live attenuated Human alphaherpesvirus 3 only vaccine product"
        },
        "site": {
          "coding": [
            {
              "code": "368208006",
              "system": "http://snomed.info/sct",
              "display": "Structure of skin of upper arm"
            }
          ],
          "text": "Structure of skin of upper arm"
        },
        "route": {
          "coding": [
            {
              "code": "34206005",
              "system": "http://snomed.info/sct",
              "display": "Subcutaneous route"
            }
          ],
          "text": "Subcutaneous route"
        },
        "status": "completed",
        "patient": {
          "reference": "Patient/2677a296-dc77-43ca-8224-1e7c7607cd86",
          "display": "Abbondanzio Toscano"
        },
        "occurrenceDateTime": "2025-04-20",
        "lotNumber": "TS-idJK",
        "expirationDate": "2025-07-17"
      }
    },
    {
      "fullUrl": "urn:uuid:3d00efae-bc19-48b1-82e3-cd778c477a66",
      "resource": {
        "resourceType": "Immunization",
        "id": "3d00efae-bc19-48b1-82e3-cd778c477a66",
        "meta": {
          "profile": [
            "http://hl7.org/fhir/uv/ips/StructureDefinition/Immunization-uv-ips"
          ]
        },
        "vaccineCode": {
          "coding": [
            {
              "code": "1181000221105",
              "system": "http://snomed.info/sct",
              "display": "Vaccine product containing Influenza virus antigen"
            },
            {
              "code": "J07BB02",
              "system": "http://www.whocc.no/atc",
              "display": "Influenza, inactivated, split virus"
            },
            {
              "code": "140",
              "system": "http://hl7.org/fhir/sid/cvx",
              "display": "Influenza  seasonal  injectable  preservative free"
            }
          ],
          "text": "Influenza virus antigen only vaccine product"
        },
        "site": {
          "coding": [
            {
              "code": "73776007",
              "system": "http://snomed.info/sct",
              "display": "Structure of muscle of upper arm"
            }
          ],
          "text": "Structure of muscle of upper arm"
        },
        "route": {
          "coding": [
            {
              "code": "78421000",
              "system": "http://snomed.info/sct",
              "display": "Intramuscular route"
            }
          ],
          "text": "Intramuscular route"
        },
        "status": "completed",
        "patient": {
          "reference": "Patient/2677a296-dc77-43ca-8224-1e7c7607cd86",
          "display": "Abbondanzio Toscano"
        },
        "occurrenceDateTime": "2025-04-20",
        "lotNumber": "GH-jyDjQ",
        "expirationDate": "2025-07-14"
      }
    },
    {
      "fullUrl": "urn:uuid:ffd3edc8-f94d-488a-a42c-9702706ad784",
      "resource": {
        "resourceType": "Immunization",
        "id": "ffd3edc8-f94d-488a-a42c-9702706ad784",
        "meta": {
          "profile": [
            "http://hl7.org/fhir/uv/ips/StructureDefinition/Immunization-uv-ips"
          ]
        },
        "vaccineCode": {
          "coding": [
            {
              "code": "1119349007",
              "system": "http://snomed.info/sct",
              "display": "Vaccine product containing SARS-CoV-2 mRNA"
            },
            {
              "code": "J07BX03",
              "system": "http://www.whocc.no/atc",
              "display": "COVID-19 mRNA vaccines"
            },
            {
              "code": "207",
              "system": "http://hl7.org/fhir/sid/cvx",
              "display": "COVID-19  mRNA  LNP-S  PF  100 mcg/0.5mL dose or 50 mcg/0.25mL dose"
            }
          ],
          "text": "SARS-CoV-2 mRNA vaccine"
        },
        "site": {
          "coding": [
            {
              "code": "73776007",
              "system": "http://snomed.info/sct",
              "display": "Structure of muscle of upper arm"
            }
          ],
          "text": "Structure of muscle of upper arm"
        },
        "route": {
          "coding": [
            {
              "code": "78421000",
              "system": "http://snomed.info/sct",
              "display": "Intramuscular route"
            }
          ],
          "text": "Intramuscular route"
        },
        "status": "completed",
        "patient": {
          "reference": "Patient/2677a296-dc77-43ca-8224-1e7c7607cd86",
          "display": "Abbondanzio Toscano"
        },
        "occurrenceDateTime": "2021-03-21",
        "lotNumber": "MU-pBfaKvm",
        "expirationDate": "2021-09-30"
      }
    }
  ],
  "type": "document",
  "timestamp": "2025-06-17T11:26:49Z"
}
