{
  "resourceType": "Bundle",
  "id": "Instance-Bundle-d66573a3-8df8-4bb8-9484-ac355e310d39",
  "meta": {
    "profile": [
      "http://hl7.eu/fhir/eps/StructureDefinition/bundle-eu-eps"
    ]
  },
  "identifier": {
    "assigner": {
      "display": "HL7 Europe"
    },
    "system": "urn:oid:2.16.840.1.113883.2.51.999",
    "value": "1493f062-4657-4e78-9272-4722b5634e41"
  },
  "entry": [
    {
      "fullUrl": "urn:uuid:cb96cb26-846f-4a99-ab90-1dd462c3900d",
      "resource": {
        "resourceType": "Composition",
        "id": "cb96cb26-846f-4a99-ab90-1dd462c3900d",
        "meta": {
          "profile": [
            "http://hl7.eu/fhir/eps/StructureDefinition/composition-eu-eps"
          ]
        },
        "identifier": {
          "assigner": {
            "display": "HL7 Europe"
          },
          "system": "urn:oid:2.16.840.1.113883.2.51.999",
          "value": "50d2f22e-bf27-41fe-9c54-7094418fb828"
        },
        "type": {
          "coding": [
            {
              "system": "http://loinc.org",
              "code": "60591-5",
              "display": "European Patient Summary"
            }
          ],
          "text": "European Patient Summary"
        },
        "author": [
          {
            "reference": "urn:uuid:db30f748-50ca-49c0-84e0-4d82662eba21"
          }
        ],
        "section": [
          {
            "text": {
              "status": "generated",
              "div": "<div xmlns=\"http://www.w3.org/1999/xhtml\"><table class=\"hl7__ips\"><tr><td>Alzheimer's disease</td><td>2024-04-13</td><td>active</td></tr><tr><td>Ischemic heart disease</td><td>2010-05-22</td><td>active</td></tr><tr><td>Metabolic syndrome X</td><td>2006-04-29</td><td>active</td></tr><tr><td>Essential hypertension</td><td>2005-04-23</td><td>active</td></tr><tr><td>Sepsis</td><td>2003-03-22</td><td>active</td></tr><tr><td>Anemia</td><td>1982-05-15</td><td>active</td></tr><tr><td>Loss of teeth</td><td>1970-05-23</td><td>active</td></tr><tr><td>Viral sinusitis</td><td>2024-05-11</td><td>inactive</td></tr><tr><td>Gingival disease</td><td>2024-05-05</td><td>inactive</td></tr><tr><td>Gingivitis</td><td>2024-04-28</td><td>inactive</td></tr><tr><td>Gingivitis</td><td>2021-07-24</td><td>inactive</td></tr><tr><td>Acute viral pharyngitis</td><td>2020-10-16</td><td>inactive</td></tr><tr><td>Polyp of colon</td><td>2020-09-12</td><td>inactive</td></tr><tr><td>Primary dental caries</td><td>2020-08-02</td><td>inactive</td></tr><tr><td>Gingivitis</td><td>2020-07-19</td><td>inactive</td></tr><tr><td>Acute bronchitis</td><td>2018-06-23</td><td>inactive</td></tr><tr><td>Viral sinusitis</td><td>2017-08-01</td><td>inactive</td></tr><tr><td>Polyp of colon</td><td>2014-05-05</td><td>inactive</td></tr></table></div>"
            },
            "entry": [
              {
                "reference": "urn:uuid:07f14758-f512-4c30-acc3-d19c24ad6231"
              },
              {
                "reference": "urn:uuid:c051d7a0-bcbd-4108-a907-acc167318147"
              },
              {
                "reference": "urn:uuid:afd465ec-d112-4266-9873-a0d03890e050"
              },
              {
                "reference": "urn:uuid:b560dbf6-e075-4445-b34d-7e5a3ff24c8c"
              },
              {
                "reference": "urn:uuid:f39d4c6e-4fba-4e4f-8f35-2909fed67883"
              },
              {
                "reference": "urn:uuid:5b574908-8885-4fb5-9eeb-7de8a3f496e0"
              },
              {
                "reference": "urn:uuid:9f0971b6-9015-4e31-b27a-1bb96f18c44b"
              },
              {
                "reference": "urn:uuid:d5acdcd0-9fed-4578-9899-d69010a1fcf8"
              },
              {
                "reference": "urn:uuid:179c2313-783e-4488-8481-350dc01a1f02"
              },
              {
                "reference": "urn:uuid:9672c20c-606b-4fd8-bcf3-3f46e8ee7ea4"
              },
              {
                "reference": "urn:uuid:ab12cb08-2c2d-43ef-a805-e7ce655dfa96"
              },
              {
                "reference": "urn:uuid:62232703-70ae-4724-a7c3-f703dd8dcecf"
              },
              {
                "reference": "urn:uuid:ff426af1-9b94-420c-8778-89c277569cbe"
              },
              {
                "reference": "urn:uuid:3083e84d-2d99-44b1-83bc-0c9479a2df7e"
              },
              {
                "reference": "urn:uuid:22ed83f6-ad23-4d2d-adb6-4325feec5baf"
              },
              {
                "reference": "urn:uuid:3dee84ca-bf47-4701-bdda-176d28872cbf"
              },
              {
                "reference": "urn:uuid:731fd6da-459f-4a9a-9032-fdd7a60eabaa"
              },
              {
                "reference": "urn:uuid:60d2571a-eb85-4e18-9ce7-07ca1a00fa6f"
              }
            ],
            "code": {
              "coding": [
                {
                  "system": "http://loinc.org",
                  "code": "11450-4",
                  "display": "Problem list - Reported"
                }
              ]
            },
            "title": "Problem list"
          },
          {
            "text": {
              "status": "generated",
              "div": "<div xmlns=\"http://www.w3.org/1999/xhtml\"><table class=\"hl7__ips\"><tr><td>24 HR Donepezil hydrochloride 10 MG / Memantine hydrochloride 28 MG Extended Release Oral Capsule</td><td>2025-04-14</td><td></td><td>28 mg / 10 mg once daily\"</td><td>Reason: Alzheimer's disease (disorder)</td></tr><tr><td>Hydrochlorothiazide 25 mg oral tablet</td><td>2024-08-10</td><td>Oral tablet</td><td>1 tablet (25 mg) by mouth once daily\"</td><td>Reason: Essential hypertension (disorder)</td></tr><tr><td>Lisinopril 10 mg oral tablet</td><td>2024-08-10</td><td>Oral tablet</td><td>1 tablet (10 mg) by mouth once daily\"</td><td>Reason: Essential hypertension (disorder)</td></tr><tr><td>Acetaminophen 300 mg and hydrocodone bitartrate 5 mg oral tablet</td><td>2024-08-10</td><td>Oral tablet</td><td>1 tablet (300 mg/5 mg) by mouth every 4 to 6 hours as needed\"</td><td></td></tr><tr><td>Clopidogrel (as clopidogrel bisulfate) 75 mg oral tablet</td><td>2010-05-29</td><td>Oral tablet</td><td>1 tablet (75 mg) once daily\"</td><td></td></tr><tr><td>Simvastatin 20 mg oral tablet</td><td>2010-05-29</td><td>Oral tablet</td><td>1 tablet (20 mg) by mouth once daily\"</td><td></td></tr><tr><td>Nitroglycerin 400 microgram/actuation sublingual spray</td><td>2010-05-29</td><td>Sublingual spray</td><td>400 micrograms per spray, use 1 spray under the tongue as needed for chest pain, may repeat every 5 minutes as needed, up to 3 sprays in 15 minutes\"</td><td></td></tr><tr><td>Metoprolol tartrate (as metoprolol succinate) 100 mg prolonged-release oral tablet</td><td>2010-05-29</td><td>Prolonged-release oral tablet</td><td>1 tablet (100 mg) once daily\"</td><td></td></tr><tr><td>ferrous sulfate 325 MG Oral Tablet</td><td>1982-05-22</td><td></td><td>1 tablet (325 mg) by mouth once daily\"</td><td></td></tr></table></div>"
            },
            "entry": [
              {
                "reference": "urn:uuid:d0a1e914-9cbf-43e5-8642-3606a42f51c8"
              },
              {
                "reference": "urn:uuid:492687e5-184e-4bba-a35b-4d3f35edfd0b"
              },
              {
                "reference": "urn:uuid:2d021c12-7bf1-4e29-8d8a-5a605887a3f4"
              },
              {
                "reference": "urn:uuid:070ffed9-7fbc-4766-86c2-b03658b2b382"
              },
              {
                "reference": "urn:uuid:67c711a2-68b7-4daa-8c2b-172d0b1560ab"
              },
              {
                "reference": "urn:uuid:cef39019-4d70-45f3-95b1-342090ded0aa"
              },
              {
                "reference": "urn:uuid:0b7a31b4-1e9e-4738-b1b9-ccec28bb5871"
              },
              {
                "reference": "urn:uuid:ebd67b5c-9b74-4aca-82ab-9a1213297a0c"
              },
              {
                "reference": "urn:uuid:075fc7aa-9af4-4df9-9f71-6c2bebaad1f5"
              }
            ],
            "code": {
              "coding": [
                {
                  "system": "http://loinc.org",
                  "code": "10160-0",
                  "display": "History of Medication use Narrative"
                }
              ]
            },
            "title": "Medication list"
          },
          {
            "text": {
              "status": "generated",
              "div": "<div xmlns=\"http://www.w3.org/1999/xhtml\"><table class=\"hl7__ips\"><tr><td>No known allergies or intolerances</td></tr></table></div>"
            },
            "entry": [
              {
                "reference": "urn:uuid:ae2bfbd9-e232-4a8d-93d2-db57faea63e8"
              }
            ],
            "code": {
              "coding": [
                {
                  "system": "http://loinc.org",
                  "code": "48765-2",
                  "display": "Allergies and adverse reactions Document"
                }
              ]
            },
            "title": "Allergies and Intolerances"
          },
          {
            "text": {
              "status": "generated",
              "div": "<div xmlns=\"http://www.w3.org/1999/xhtml\"><table class=\"hl7__ips\"><tr><td>Medication reconciliation</td><td>2024-04-20</td><td>-</td></tr><tr><td>Patient referral for dental care</td><td>2024-04-14</td><td>-</td></tr><tr><td>Assessment using AUDIT-C (Alcohol Use Disorders Identification Test - Consumption)</td><td>2024-04-14</td><td>-</td></tr><tr><td>Assessment of health and social care needs</td><td>2024-04-13</td><td>-</td></tr><tr><td>Assessment of anxiety</td><td>2024-04-13</td><td>-</td></tr><tr><td>Assessment using Morse Fall Scale</td><td>2024-04-13</td><td>-</td></tr><tr><td>Assessment of substance use</td><td>2024-04-13</td><td>-</td></tr><tr><td>Patient discharge</td><td>2023-04-08</td><td>-</td></tr><tr><td>Hospice care</td><td>2023-04-07</td><td>-</td></tr><tr><td>Notifications</td><td>2023-03-04</td><td>-</td></tr><tr><td>Certification procedure</td><td>2023-03-04</td><td>-</td></tr><tr><td>Initial patient assessment</td><td>2023-03-04</td><td>-</td></tr><tr><td>Development of individualized plan of care</td><td>2023-03-04</td><td>-</td></tr><tr><td>Screening for drug abuse</td><td>2018-06-17</td><td>-</td></tr><tr><td>Depression screening</td><td>2018-06-16</td><td>-</td></tr><tr><td>Screening for domestic abuse</td><td>2018-06-16</td><td>-</td></tr><tr><td>Referral to home health care service</td><td>2017-09-16</td><td>-</td></tr></table></div>"
            },
            "entry": [
              {
                "reference": "urn:uuid:90bba199-e52e-4fba-af3d-b1e17a68fcd6"
              },
              {
                "reference": "urn:uuid:50ea81c3-6729-40fa-82d4-4ea60d2ab04b"
              },
              {
                "reference": "urn:uuid:69ef300e-51ab-4a3f-a57a-d004380be6b3"
              },
              {
                "reference": "urn:uuid:0e4b0a58-72ac-4da3-8c3a-c9620487c69e"
              },
              {
                "reference": "urn:uuid:3446534b-ecbe-4ae2-91b4-9bf344982e69"
              },
              {
                "reference": "urn:uuid:90fab667-9748-4ef0-ab01-3f8e724b84f6"
              },
              {
                "reference": "urn:uuid:7d534aef-6af0-4ba2-b811-75a403db452a"
              },
              {
                "reference": "urn:uuid:d98d9173-349b-4947-807b-9ca0e8c50c61"
              },
              {
                "reference": "urn:uuid:c2105d27-2047-4488-ac8f-9575a45b3062"
              },
              {
                "reference": "urn:uuid:8bd7d618-3e51-4385-84a7-1ce7726c96bb"
              },
              {
                "reference": "urn:uuid:b485f2c2-fc29-410a-a18c-5c33ed208048"
              },
              {
                "reference": "urn:uuid:5bcdbe86-0d8c-4cba-8252-1e98594bdbbf"
              },
              {
                "reference": "urn:uuid:449b5b50-d0e9-4acc-8698-21944ee72a52"
              },
              {
                "reference": "urn:uuid:23b5df4a-030e-4d96-ad09-dceeb6e69ec4"
              },
              {
                "reference": "urn:uuid:2e9d22e0-5792-486d-a599-bdc2a13c1f94"
              },
              {
                "reference": "urn:uuid:a95d42ee-271d-4ca5-b859-06b721340cc4"
              },
              {
                "reference": "urn:uuid:f634818e-9cc6-418a-a7de-248e38a5ab8e"
              }
            ],
            "code": {
              "coding": [
                {
                  "system": "http://loinc.org",
                  "code": "47519-4",
                  "display": "History of Procedures Document"
                }
              ]
            },
            "title": "Procedure History list"
          },
          {
            "text": {
              "status": "generated",
              "div": "<div xmlns=\"http://www.w3.org/1999/xhtml\"><table class=\"hl7__ips\"><tr><td>Influenza virus antigen only vaccine product</td><td>2024-04-13</td></tr><tr><td>SARS-CoV-2 mRNA vaccine</td><td>2021-02-27</td></tr><tr><td>Clostridium tetani toxoid antigen adsorbed only vaccine product</td><td>2019-07-13</td></tr></table></div>"
            },
            "entry": [
              {
                "reference": "urn:uuid:0b2e74ca-ba43-4311-bab5-c631eb6ae93a"
              },
              {
                "reference": "urn:uuid:973fbdc2-c9c2-4e02-9380-3ddd5b06c489"
              },
              {
                "reference": "urn:uuid:eded4a8f-1646-4bfc-9fc9-377a23ffa7de"
              }
            ],
            "code": {
              "coding": [
                {
                  "system": "http://loinc.org",
                  "code": "11369-6",
                  "display": "History of Immunization Narrative"
                }
              ]
            },
            "title": "Immunizations list"
          }
        ],
        "title": "European Patient Summary",
        "status": "final",
        "subject": {
          "reference": "urn:uuid:b7237921-a1d5-4fd4-aace-c4f1e118bd1c"
        },
        "custodian": {
          "reference": "urn:uuid:b3ada94e-0527-48b0-bb5a-f92b6885d0a3"
        },
        "date": "2025-06-16T17:19:49Z",
        "confidentiality": "N"
      }
    },
    {
      "fullUrl": "urn:uuid:b7237921-a1d5-4fd4-aace-c4f1e118bd1c",
      "resource": {
        "resourceType": "Patient",
        "id": "b7237921-a1d5-4fd4-aace-c4f1e118bd1c",
        "meta": {
          "profile": [
            "http://hl7.eu/fhir/eps/StructureDefinition/patient-eu-eps"
          ]
        },
        "identifier": [
          {
            "type": {
              "coding": [
                {
                  "code": "NI",
                  "system": "http://terminology.hl7.org/CodeSystem/v2-0203"
                }
              ]
            },
            "system": "http://ec.europa.eu/identifier/eci",
            "value": "8212-076428-5"
          },
          {
            "type": {
              "coding": [
                {
                  "code": "MR",
                  "system": "http://terminology.hl7.org/CodeSystem/v2-0203"
                }
              ]
            },
            "system": "http://local.setting.eu/identifier",
            "value": "54de34e5-80be-93aa-5986-924329699aad"
          }
        ],
        "name": [
          {
            "given": [
              "Ida"
            ],
            "family": "Brommer",
            "text": "Ida Brommer"
          }
        ],
        "address": [
          {
            "line": [
              "Jacob van Ruysdaelstraat 100"
            ],
            "use": "home",
            "type": "physical",
            "city": "Waalwijk",
            "postalCode": "5143 GM",
            "country": "Netherlands"
          }
        ],
        "telecom": [
          {
            "system": "phone",
            "value": "+31 06-39307468"
          }
        ],
        "gender": "female",
        "birthDate": "1944-04-22"
      }
    },
    {
      "fullUrl": "urn:uuid:db30f748-50ca-49c0-84e0-4d82662eba21",
      "resource": {
        "resourceType": "PractitionerRole",
        "id": "db30f748-50ca-49c0-84e0-4d82662eba21",
        "meta": {
          "profile": [
            "http://hl7.eu/fhir/base/StructureDefinition/practitionerRole-eu"
          ]
        },
        "practitioner": {
          "reference": "urn:uuid:2264ebb0-e537-40a2-9260-d4eefda02e91"
        },
        "organization": {
          "reference": "urn:uuid:b3ada94e-0527-48b0-bb5a-f92b6885d0a3"
        }
      }
    },
    {
      "fullUrl": "urn:uuid:2264ebb0-e537-40a2-9260-d4eefda02e91",
      "resource": {
        "resourceType": "Practitioner",
        "id": "2264ebb0-e537-40a2-9260-d4eefda02e91",
        "meta": {
          "profile": [
            "http://hl7.eu/fhir/base/StructureDefinition/practitioner-eu"
          ]
        },
        "name": [
          {
            "prefix": [
              "Dr."
            ],
            "given": [
              "Hel"
            ],
            "family": "Ping"
          }
        ]
      }
    },
    {
      "fullUrl": "urn:uuid:07f14758-f512-4c30-acc3-d19c24ad6231",
      "resource": {
        "resourceType": "Condition",
        "id": "07f14758-f512-4c30-acc3-d19c24ad6231",
        "meta": {
          "profile": [
            "http://hl7.org/fhir/uv/ips/StructureDefinition/Condition-uv-ips"
          ]
        },
        "category": [
          {
            "coding": [
              {
                "code": "problem-list-item",
                "system": "http://terminology.hl7.org/CodeSystem/condition-category",
                "display": "Problem List Item"
              }
            ]
          }
        ],
        "code": {
          "coding": [
            {
              "code": "26929004",
              "system": "http://snomed.info/sct",
              "display": "Alzheimer's disease (disorder)"
            }
          ],
          "text": "Alzheimer's disease"
        },
        "onsetDateTime": "2024-04-13",
        "clinicalStatus": {
          "coding": [
            {
              "code": "active",
              "system": "http://terminology.hl7.org/CodeSystem/condition-clinical"
            }
          ]
        },
        "subject": {
          "reference": "Patient/b7237921-a1d5-4fd4-aace-c4f1e118bd1c",
          "display": "Ida Brommer"
        },
        "asserter": {
          "reference": "Practitioner/2264ebb0-e537-40a2-9260-d4eefda02e91",
          "display": "Dr. Hel Ping"
        }
      }
    },
    {
      "fullUrl": "urn:uuid:c051d7a0-bcbd-4108-a907-acc167318147",
      "resource": {
        "resourceType": "Condition",
        "id": "c051d7a0-bcbd-4108-a907-acc167318147",
        "meta": {
          "profile": [
            "http://hl7.org/fhir/uv/ips/StructureDefinition/Condition-uv-ips"
          ]
        },
        "category": [
          {
            "coding": [
              {
                "code": "problem-list-item",
                "system": "http://terminology.hl7.org/CodeSystem/condition-category",
                "display": "Problem List Item"
              }
            ]
          }
        ],
        "code": {
          "coding": [
            {
              "code": "414545008",
              "system": "http://snomed.info/sct",
              "display": "Ischemic heart disease (disorder)"
            }
          ],
          "text": "Ischemic heart disease"
        },
        "onsetDateTime": "2010-05-22",
        "clinicalStatus": {
          "coding": [
            {
              "code": "active",
              "system": "http://terminology.hl7.org/CodeSystem/condition-clinical"
            }
          ]
        },
        "subject": {
          "reference": "Patient/b7237921-a1d5-4fd4-aace-c4f1e118bd1c",
          "display": "Ida Brommer"
        },
        "asserter": {
          "reference": "Practitioner/2264ebb0-e537-40a2-9260-d4eefda02e91",
          "display": "Dr. Hel Ping"
        }
      }
    },
    {
      "fullUrl": "urn:uuid:afd465ec-d112-4266-9873-a0d03890e050",
      "resource": {
        "resourceType": "Condition",
        "id": "afd465ec-d112-4266-9873-a0d03890e050",
        "meta": {
          "profile": [
            "http://hl7.org/fhir/uv/ips/StructureDefinition/Condition-uv-ips"
          ]
        },
        "category": [
          {
            "coding": [
              {
                "code": "problem-list-item",
                "system": "http://terminology.hl7.org/CodeSystem/condition-category",
                "display": "Problem List Item"
              }
            ]
          }
        ],
        "code": {
          "coding": [
            {
              "code": "237602007",
              "system": "http://snomed.info/sct",
              "display": "Metabolic syndrome X (disorder)"
            }
          ],
          "text": "Metabolic syndrome X"
        },
        "onsetDateTime": "2006-04-29",
        "clinicalStatus": {
          "coding": [
            {
              "code": "active",
              "system": "http://terminology.hl7.org/CodeSystem/condition-clinical"
            }
          ]
        },
        "subject": {
          "reference": "Patient/b7237921-a1d5-4fd4-aace-c4f1e118bd1c",
          "display": "Ida Brommer"
        },
        "asserter": {
          "reference": "Practitioner/2264ebb0-e537-40a2-9260-d4eefda02e91",
          "display": "Dr. Hel Ping"
        }
      }
    },
    {
      "fullUrl": "urn:uuid:b560dbf6-e075-4445-b34d-7e5a3ff24c8c",
      "resource": {
        "resourceType": "Condition",
        "id": "b560dbf6-e075-4445-b34d-7e5a3ff24c8c",
        "meta": {
          "profile": [
            "http://hl7.org/fhir/uv/ips/StructureDefinition/Condition-uv-ips"
          ]
        },
        "category": [
          {
            "coding": [
              {
                "code": "problem-list-item",
                "system": "http://terminology.hl7.org/CodeSystem/condition-category",
                "display": "Problem List Item"
              }
            ]
          }
        ],
        "code": {
          "coding": [
            {
              "code": "59621000",
              "system": "http://snomed.info/sct",
              "display": "Essential hypertension (disorder)"
            }
          ],
          "text": "Essential hypertension"
        },
        "onsetDateTime": "2005-04-23",
        "clinicalStatus": {
          "coding": [
            {
              "code": "active",
              "system": "http://terminology.hl7.org/CodeSystem/condition-clinical"
            }
          ]
        },
        "subject": {
          "reference": "Patient/b7237921-a1d5-4fd4-aace-c4f1e118bd1c",
          "display": "Ida Brommer"
        },
        "asserter": {
          "reference": "Practitioner/2264ebb0-e537-40a2-9260-d4eefda02e91",
          "display": "Dr. Hel Ping"
        }
      }
    },
    {
      "fullUrl": "urn:uuid:f39d4c6e-4fba-4e4f-8f35-2909fed67883",
      "resource": {
        "resourceType": "Condition",
        "id": "f39d4c6e-4fba-4e4f-8f35-2909fed67883",
        "meta": {
          "profile": [
            "http://hl7.org/fhir/uv/ips/StructureDefinition/Condition-uv-ips"
          ]
        },
        "category": [
          {
            "coding": [
              {
                "code": "problem-list-item",
                "system": "http://terminology.hl7.org/CodeSystem/condition-category",
                "display": "Problem List Item"
              }
            ]
          }
        ],
        "code": {
          "coding": [
            {
              "code": "91302008",
              "system": "http://snomed.info/sct",
              "display": "Sepsis (disorder)"
            }
          ],
          "text": "Sepsis"
        },
        "onsetDateTime": "2003-03-22",
        "clinicalStatus": {
          "coding": [
            {
              "code": "active",
              "system": "http://terminology.hl7.org/CodeSystem/condition-clinical"
            }
          ]
        },
        "subject": {
          "reference": "Patient/b7237921-a1d5-4fd4-aace-c4f1e118bd1c",
          "display": "Ida Brommer"
        },
        "asserter": {
          "reference": "Practitioner/2264ebb0-e537-40a2-9260-d4eefda02e91",
          "display": "Dr. Hel Ping"
        }
      }
    },
    {
      "fullUrl": "urn:uuid:5b574908-8885-4fb5-9eeb-7de8a3f496e0",
      "resource": {
        "resourceType": "Condition",
        "id": "5b574908-8885-4fb5-9eeb-7de8a3f496e0",
        "meta": {
          "profile": [
            "http://hl7.org/fhir/uv/ips/StructureDefinition/Condition-uv-ips"
          ]
        },
        "category": [
          {
            "coding": [
              {
                "code": "problem-list-item",
                "system": "http://terminology.hl7.org/CodeSystem/condition-category",
                "display": "Problem List Item"
              }
            ]
          }
        ],
        "code": {
          "coding": [
            {
              "code": "271737000",
              "system": "http://snomed.info/sct",
              "display": "Anemia (disorder)"
            }
          ],
          "text": "Anemia"
        },
        "onsetDateTime": "1982-05-15",
        "clinicalStatus": {
          "coding": [
            {
              "code": "active",
              "system": "http://terminology.hl7.org/CodeSystem/condition-clinical"
            }
          ]
        },
        "subject": {
          "reference": "Patient/b7237921-a1d5-4fd4-aace-c4f1e118bd1c",
          "display": "Ida Brommer"
        },
        "asserter": {
          "reference": "Practitioner/2264ebb0-e537-40a2-9260-d4eefda02e91",
          "display": "Dr. Hel Ping"
        }
      }
    },
    {
      "fullUrl": "urn:uuid:9f0971b6-9015-4e31-b27a-1bb96f18c44b",
      "resource": {
        "resourceType": "Condition",
        "id": "9f0971b6-9015-4e31-b27a-1bb96f18c44b",
        "meta": {
          "profile": [
            "http://hl7.org/fhir/uv/ips/StructureDefinition/Condition-uv-ips"
          ]
        },
        "category": [
          {
            "coding": [
              {
                "code": "problem-list-item",
                "system": "http://terminology.hl7.org/CodeSystem/condition-category",
                "display": "Problem List Item"
              }
            ]
          }
        ],
        "code": {
          "coding": [
            {
              "code": "37320007",
              "system": "http://snomed.info/sct",
              "display": "Loss of teeth (disorder)"
            }
          ],
          "text": "Loss of teeth"
        },
        "onsetDateTime": "1970-05-23",
        "clinicalStatus": {
          "coding": [
            {
              "code": "active",
              "system": "http://terminology.hl7.org/CodeSystem/condition-clinical"
            }
          ]
        },
        "subject": {
          "reference": "Patient/b7237921-a1d5-4fd4-aace-c4f1e118bd1c",
          "display": "Ida Brommer"
        },
        "asserter": {
          "reference": "Practitioner/2264ebb0-e537-40a2-9260-d4eefda02e91",
          "display": "Dr. Hel Ping"
        }
      }
    },
    {
      "fullUrl": "urn:uuid:d5acdcd0-9fed-4578-9899-d69010a1fcf8",
      "resource": {
        "resourceType": "Condition",
        "id": "d5acdcd0-9fed-4578-9899-d69010a1fcf8",
        "meta": {
          "profile": [
            "http://hl7.org/fhir/uv/ips/StructureDefinition/Condition-uv-ips"
          ]
        },
        "category": [
          {
            "coding": [
              {
                "code": "problem-list-item",
                "system": "http://terminology.hl7.org/CodeSystem/condition-category",
                "display": "Problem List Item"
              }
            ]
          }
        ],
        "code": {
          "coding": [
            {
              "code": "444814009",
              "system": "http://snomed.info/sct",
              "display": "Viral sinusitis (disorder)"
            }
          ],
          "text": "Viral sinusitis"
        },
        "onsetDateTime": "2024-05-11",
        "clinicalStatus": {
          "coding": [
            {
              "code": "inactive",
              "system": "http://terminology.hl7.org/CodeSystem/condition-clinical"
            }
          ]
        },
        "subject": {
          "reference": "Patient/b7237921-a1d5-4fd4-aace-c4f1e118bd1c",
          "display": "Ida Brommer"
        },
        "asserter": {
          "reference": "Practitioner/2264ebb0-e537-40a2-9260-d4eefda02e91",
          "display": "Dr. Hel Ping"
        }
      }
    },
    {
      "fullUrl": "urn:uuid:179c2313-783e-4488-8481-350dc01a1f02",
      "resource": {
        "resourceType": "Condition",
        "id": "179c2313-783e-4488-8481-350dc01a1f02",
        "meta": {
          "profile": [
            "http://hl7.org/fhir/uv/ips/StructureDefinition/Condition-uv-ips"
          ]
        },
        "category": [
          {
            "coding": [
              {
                "code": "problem-list-item",
                "system": "http://terminology.hl7.org/CodeSystem/condition-category",
                "display": "Problem List Item"
              }
            ]
          }
        ],
        "code": {
          "coding": [
            {
              "code": "18718003",
              "system": "http://snomed.info/sct",
              "display": "Gingival disease (disorder)"
            }
          ],
          "text": "Gingival disease"
        },
        "onsetDateTime": "2024-05-05",
        "clinicalStatus": {
          "coding": [
            {
              "code": "inactive",
              "system": "http://terminology.hl7.org/CodeSystem/condition-clinical"
            }
          ]
        },
        "subject": {
          "reference": "Patient/b7237921-a1d5-4fd4-aace-c4f1e118bd1c",
          "display": "Ida Brommer"
        },
        "asserter": {
          "reference": "Practitioner/2264ebb0-e537-40a2-9260-d4eefda02e91",
          "display": "Dr. Hel Ping"
        }
      }
    },
    {
      "fullUrl": "urn:uuid:9672c20c-606b-4fd8-bcf3-3f46e8ee7ea4",
      "resource": {
        "resourceType": "Condition",
        "id": "9672c20c-606b-4fd8-bcf3-3f46e8ee7ea4",
        "meta": {
          "profile": [
            "http://hl7.org/fhir/uv/ips/StructureDefinition/Condition-uv-ips"
          ]
        },
        "category": [
          {
            "coding": [
              {
                "code": "problem-list-item",
                "system": "http://terminology.hl7.org/CodeSystem/condition-category",
                "display": "Problem List Item"
              }
            ]
          }
        ],
        "code": {
          "coding": [
            {
              "code": "66383009",
              "system": "http://snomed.info/sct",
              "display": "Gingivitis (disorder)"
            }
          ],
          "text": "Gingivitis"
        },
        "onsetDateTime": "2024-04-28",
        "clinicalStatus": {
          "coding": [
            {
              "code": "inactive",
              "system": "http://terminology.hl7.org/CodeSystem/condition-clinical"
            }
          ]
        },
        "subject": {
          "reference": "Patient/b7237921-a1d5-4fd4-aace-c4f1e118bd1c",
          "display": "Ida Brommer"
        },
        "asserter": {
          "reference": "Practitioner/2264ebb0-e537-40a2-9260-d4eefda02e91",
          "display": "Dr. Hel Ping"
        }
      }
    },
    {
      "fullUrl": "urn:uuid:ab12cb08-2c2d-43ef-a805-e7ce655dfa96",
      "resource": {
        "resourceType": "Condition",
        "id": "ab12cb08-2c2d-43ef-a805-e7ce655dfa96",
        "meta": {
          "profile": [
            "http://hl7.org/fhir/uv/ips/StructureDefinition/Condition-uv-ips"
          ]
        },
        "category": [
          {
            "coding": [
              {
                "code": "problem-list-item",
                "system": "http://terminology.hl7.org/CodeSystem/condition-category",
                "display": "Problem List Item"
              }
            ]
          }
        ],
        "code": {
          "coding": [
            {
              "code": "66383009",
              "system": "http://snomed.info/sct",
              "display": "Gingivitis (disorder)"
            }
          ],
          "text": "Gingivitis"
        },
        "onsetDateTime": "2021-07-24",
        "clinicalStatus": {
          "coding": [
            {
              "code": "inactive",
              "system": "http://terminology.hl7.org/CodeSystem/condition-clinical"
            }
          ]
        },
        "subject": {
          "reference": "Patient/b7237921-a1d5-4fd4-aace-c4f1e118bd1c",
          "display": "Ida Brommer"
        },
        "asserter": {
          "reference": "Practitioner/2264ebb0-e537-40a2-9260-d4eefda02e91",
          "display": "Dr. Hel Ping"
        }
      }
    },
    {
      "fullUrl": "urn:uuid:62232703-70ae-4724-a7c3-f703dd8dcecf",
      "resource": {
        "resourceType": "Condition",
        "id": "62232703-70ae-4724-a7c3-f703dd8dcecf",
        "meta": {
          "profile": [
            "http://hl7.org/fhir/uv/ips/StructureDefinition/Condition-uv-ips"
          ]
        },
        "category": [
          {
            "coding": [
              {
                "code": "problem-list-item",
                "system": "http://terminology.hl7.org/CodeSystem/condition-category",
                "display": "Problem List Item"
              }
            ]
          }
        ],
        "code": {
          "coding": [
            {
              "code": "195662009",
              "system": "http://snomed.info/sct",
              "display": "Acute viral pharyngitis (disorder)"
            }
          ],
          "text": "Acute viral pharyngitis"
        },
        "onsetDateTime": "2020-10-16",
        "clinicalStatus": {
          "coding": [
            {
              "code": "inactive",
              "system": "http://terminology.hl7.org/CodeSystem/condition-clinical"
            }
          ]
        },
        "subject": {
          "reference": "Patient/b7237921-a1d5-4fd4-aace-c4f1e118bd1c",
          "display": "Ida Brommer"
        },
        "asserter": {
          "reference": "Practitioner/2264ebb0-e537-40a2-9260-d4eefda02e91",
          "display": "Dr. Hel Ping"
        }
      }
    },
    {
      "fullUrl": "urn:uuid:ff426af1-9b94-420c-8778-89c277569cbe",
      "resource": {
        "resourceType": "Condition",
        "id": "ff426af1-9b94-420c-8778-89c277569cbe",
        "meta": {
          "profile": [
            "http://hl7.org/fhir/uv/ips/StructureDefinition/Condition-uv-ips"
          ]
        },
        "category": [
          {
            "coding": [
              {
                "code": "problem-list-item",
                "system": "http://terminology.hl7.org/CodeSystem/condition-category",
                "display": "Problem List Item"
              }
            ]
          }
        ],
        "code": {
          "coding": [
            {
              "code": "68496003",
              "system": "http://snomed.info/sct",
              "display": "Polyp of colon (disorder)"
            }
          ],
          "text": "Polyp of colon"
        },
        "onsetDateTime": "2020-09-12",
        "clinicalStatus": {
          "coding": [
            {
              "code": "inactive",
              "system": "http://terminology.hl7.org/CodeSystem/condition-clinical"
            }
          ]
        },
        "subject": {
          "reference": "Patient/b7237921-a1d5-4fd4-aace-c4f1e118bd1c",
          "display": "Ida Brommer"
        },
        "asserter": {
          "reference": "Practitioner/2264ebb0-e537-40a2-9260-d4eefda02e91",
          "display": "Dr. Hel Ping"
        }
      }
    },
    {
      "fullUrl": "urn:uuid:3083e84d-2d99-44b1-83bc-0c9479a2df7e",
      "resource": {
        "resourceType": "Condition",
        "id": "3083e84d-2d99-44b1-83bc-0c9479a2df7e",
        "meta": {
          "profile": [
            "http://hl7.org/fhir/uv/ips/StructureDefinition/Condition-uv-ips"
          ]
        },
        "category": [
          {
            "coding": [
              {
                "code": "problem-list-item",
                "system": "http://terminology.hl7.org/CodeSystem/condition-category",
                "display": "Problem List Item"
              }
            ]
          }
        ],
        "code": {
          "coding": [
            {
              "code": "109570002",
              "system": "http://snomed.info/sct",
              "display": "Primary dental caries (disorder)"
            }
          ],
          "text": "Primary dental caries"
        },
        "onsetDateTime": "2020-08-02",
        "clinicalStatus": {
          "coding": [
            {
              "code": "inactive",
              "system": "http://terminology.hl7.org/CodeSystem/condition-clinical"
            }
          ]
        },
        "subject": {
          "reference": "Patient/b7237921-a1d5-4fd4-aace-c4f1e118bd1c",
          "display": "Ida Brommer"
        },
        "asserter": {
          "reference": "Practitioner/2264ebb0-e537-40a2-9260-d4eefda02e91",
          "display": "Dr. Hel Ping"
        }
      }
    },
    {
      "fullUrl": "urn:uuid:22ed83f6-ad23-4d2d-adb6-4325feec5baf",
      "resource": {
        "resourceType": "Condition",
        "id": "22ed83f6-ad23-4d2d-adb6-4325feec5baf",
        "meta": {
          "profile": [
            "http://hl7.org/fhir/uv/ips/StructureDefinition/Condition-uv-ips"
          ]
        },
        "category": [
          {
            "coding": [
              {
                "code": "problem-list-item",
                "system": "http://terminology.hl7.org/CodeSystem/condition-category",
                "display": "Problem List Item"
              }
            ]
          }
        ],
        "code": {
          "coding": [
            {
              "code": "66383009",
              "system": "http://snomed.info/sct",
              "display": "Gingivitis (disorder)"
            }
          ],
          "text": "Gingivitis"
        },
        "onsetDateTime": "2020-07-19",
        "clinicalStatus": {
          "coding": [
            {
              "code": "inactive",
              "system": "http://terminology.hl7.org/CodeSystem/condition-clinical"
            }
          ]
        },
        "subject": {
          "reference": "Patient/b7237921-a1d5-4fd4-aace-c4f1e118bd1c",
          "display": "Ida Brommer"
        },
        "asserter": {
          "reference": "Practitioner/2264ebb0-e537-40a2-9260-d4eefda02e91",
          "display": "Dr. Hel Ping"
        }
      }
    },
    {
      "fullUrl": "urn:uuid:3dee84ca-bf47-4701-bdda-176d28872cbf",
      "resource": {
        "resourceType": "Condition",
        "id": "3dee84ca-bf47-4701-bdda-176d28872cbf",
        "meta": {
          "profile": [
            "http://hl7.org/fhir/uv/ips/StructureDefinition/Condition-uv-ips"
          ]
        },
        "category": [
          {
            "coding": [
              {
                "code": "problem-list-item",
                "system": "http://terminology.hl7.org/CodeSystem/condition-category",
                "display": "Problem List Item"
              }
            ]
          }
        ],
        "code": {
          "coding": [
            {
              "code": "10509002",
              "system": "http://snomed.info/sct",
              "display": "Acute bronchitis (disorder)"
            }
          ],
          "text": "Acute bronchitis"
        },
        "onsetDateTime": "2018-06-23",
        "clinicalStatus": {
          "coding": [
            {
              "code": "inactive",
              "system": "http://terminology.hl7.org/CodeSystem/condition-clinical"
            }
          ]
        },
        "subject": {
          "reference": "Patient/b7237921-a1d5-4fd4-aace-c4f1e118bd1c",
          "display": "Ida Brommer"
        },
        "asserter": {
          "reference": "Practitioner/2264ebb0-e537-40a2-9260-d4eefda02e91",
          "display": "Dr. Hel Ping"
        }
      }
    },
    {
      "fullUrl": "urn:uuid:731fd6da-459f-4a9a-9032-fdd7a60eabaa",
      "resource": {
        "resourceType": "Condition",
        "id": "731fd6da-459f-4a9a-9032-fdd7a60eabaa",
        "meta": {
          "profile": [
            "http://hl7.org/fhir/uv/ips/StructureDefinition/Condition-uv-ips"
          ]
        },
        "category": [
          {
            "coding": [
              {
                "code": "problem-list-item",
                "system": "http://terminology.hl7.org/CodeSystem/condition-category",
                "display": "Problem List Item"
              }
            ]
          }
        ],
        "code": {
          "coding": [
            {
              "code": "444814009",
              "system": "http://snomed.info/sct",
              "display": "Viral sinusitis (disorder)"
            }
          ],
          "text": "Viral sinusitis"
        },
        "onsetDateTime": "2017-08-01",
        "clinicalStatus": {
          "coding": [
            {
              "code": "inactive",
              "system": "http://terminology.hl7.org/CodeSystem/condition-clinical"
            }
          ]
        },
        "subject": {
          "reference": "Patient/b7237921-a1d5-4fd4-aace-c4f1e118bd1c",
          "display": "Ida Brommer"
        },
        "asserter": {
          "reference": "Practitioner/2264ebb0-e537-40a2-9260-d4eefda02e91",
          "display": "Dr. Hel Ping"
        }
      }
    },
    {
      "fullUrl": "urn:uuid:60d2571a-eb85-4e18-9ce7-07ca1a00fa6f",
      "resource": {
        "resourceType": "Condition",
        "id": "60d2571a-eb85-4e18-9ce7-07ca1a00fa6f",
        "meta": {
          "profile": [
            "http://hl7.org/fhir/uv/ips/StructureDefinition/Condition-uv-ips"
          ]
        },
        "category": [
          {
            "coding": [
              {
                "code": "problem-list-item",
                "system": "http://terminology.hl7.org/CodeSystem/condition-category",
                "display": "Problem List Item"
              }
            ]
          }
        ],
        "code": {
          "coding": [
            {
              "code": "68496003",
              "system": "http://snomed.info/sct",
              "display": "Polyp of colon (disorder)"
            }
          ],
          "text": "Polyp of colon"
        },
        "onsetDateTime": "2014-05-05",
        "clinicalStatus": {
          "coding": [
            {
              "code": "inactive",
              "system": "http://terminology.hl7.org/CodeSystem/condition-clinical"
            }
          ]
        },
        "subject": {
          "reference": "Patient/b7237921-a1d5-4fd4-aace-c4f1e118bd1c",
          "display": "Ida Brommer"
        },
        "asserter": {
          "reference": "Practitioner/2264ebb0-e537-40a2-9260-d4eefda02e91",
          "display": "Dr. Hel Ping"
        }
      }
    },
    {
      "fullUrl": "urn:uuid:bb98c399-048d-4cac-9b57-bf7f8604732e",
      "resource": {
        "resourceType": "Medication",
        "id": "bb98c399-048d-4cac-9b57-bf7f8604732e",
        "meta": {
          "profile": [
            "http://hl7.org/fhir/uv/ips/StructureDefinition/Medication-uv-ips"
          ]
        },
        "code": {
          "coding": [
            {
              "code": "1599803",
              "system": "http://www.nlm.nih.gov/research/umls/rxnorm",
              "display": "24 HR Donepezil hydrochloride 10 MG / Memantine hydrochloride 28 MG Extended Release Oral Capsule"
            }
          ],
          "text": "24 HR Donepezil hydrochloride 10 MG / Memantine hydrochloride 28 MG Extended Release Oral Capsule"
        }
      }
    },
    {
      "fullUrl": "urn:uuid:d0a1e914-9cbf-43e5-8642-3606a42f51c8",
      "resource": {
        "resourceType": "MedicationStatement",
        "id": "d0a1e914-9cbf-43e5-8642-3606a42f51c8",
        "effectivePeriod": {
          "start": "2025-04-14"
        },
        "dosage": [
          {
            "doseAndRate": [
              {
                "doseQuantity": {
                  "value": 1,
                  "unit": "{tbl} (28 mg / 10 mg)",
                  "code": "{tbl}"
                }
              }
            ],
            "timing": {
              "repeat": {
                "frequency": 1,
                "period": 1,
                "periodUnit": "d"
              }
            },
            "text": "28 mg / 10 mg once daily",
            "asNeededBoolean": false
          }
        ],
        "reasonCode": [
          {
            "coding": [
              {
                "code": "26929004",
                "system": "http://snomed.info/sct",
                "display": "Alzheimer's disease (disorder)"
              }
            ]
          }
        ],
        "status": "active",
        "medicationReference": {
          "reference": "Medication/bb98c399-048d-4cac-9b57-bf7f8604732e",
          "display": "24 HR Donepezil hydrochloride 10 MG / Memantine hydrochloride 28 MG Extended Release Oral Capsule"
        },
        "subject": {
          "reference": "Patient/b7237921-a1d5-4fd4-aace-c4f1e118bd1c",
          "display": "Ida Brommer"
        }
      }
    },
    {
      "fullUrl": "urn:uuid:e75c9dc5-6fd5-4468-9b78-cd52f4721d09",
      "resource": {
        "resourceType": "Medication",
        "id": "e75c9dc5-6fd5-4468-9b78-cd52f4721d09",
        "meta": {
          "profile": [
            "http://hl7.org/fhir/uv/ips/StructureDefinition/Medication-uv-ips"
          ]
        },
        "code": {
          "coding": [
            {
              "code": "310798",
              "system": "http://www.nlm.nih.gov/research/umls/rxnorm",
              "display": "hydrochlorothiazide 25 MG Oral Tablet"
            },
            {
              "code": "376209006",
              "system": "http://snomed.info/sct",
              "display": "Product containing precisely hydrochlorothiazide 25 milligram/1 each conventional release oral tablet (clinical drug)"
            }
          ],
          "text": "Hydrochlorothiazide 25 mg oral tablet"
        },
        "form": {
          "coding": [
            {
              "code": "421026006",
              "system": "http://snomed.info/sct",
              "display": "Oral tablet"
            }
          ]
        },
        "ingredient": [
          {
            "itemCodeableConcept": {
              "coding": [
                {
                  "code": "387525002",
                  "system": "http://snomed.info/sct",
                  "display": "Hydrochlorothiazide"
                }
              ]
            },
            "isActive": true
          }
        ]
      }
    },
    {
      "fullUrl": "urn:uuid:492687e5-184e-4bba-a35b-4d3f35edfd0b",
      "resource": {
        "resourceType": "MedicationStatement",
        "id": "492687e5-184e-4bba-a35b-4d3f35edfd0b",
        "effectivePeriod": {
          "start": "2024-08-10"
        },
        "dosage": [
          {
            "doseAndRate": [
              {
                "doseQuantity": {
                  "value": 1,
                  "unit": "{tbl}",
                  "code": "{tbl}"
                }
              }
            ],
            "timing": {
              "repeat": {
                "frequency": 1,
                "period": 1,
                "periodUnit": "d"
              }
            },
            "text": "1 tablet (25 mg) by mouth once daily",
            "asNeededBoolean": false
          }
        ],
        "reasonCode": [
          {
            "coding": [
              {
                "code": "59621000",
                "system": "http://snomed.info/sct",
                "display": "Essential hypertension (disorder)"
              }
            ]
          }
        ],
        "status": "active",
        "medicationReference": {
          "reference": "Medication/e75c9dc5-6fd5-4468-9b78-cd52f4721d09",
          "display": "Hydrochlorothiazide 25 mg oral tablet"
        },
        "subject": {
          "reference": "Patient/b7237921-a1d5-4fd4-aace-c4f1e118bd1c",
          "display": "Ida Brommer"
        }
      }
    },
    {
      "fullUrl": "urn:uuid:6f20ee26-1fea-49de-b516-9d2ba3006f58",
      "resource": {
        "resourceType": "Medication",
        "id": "6f20ee26-1fea-49de-b516-9d2ba3006f58",
        "meta": {
          "profile": [
            "http://hl7.org/fhir/uv/ips/StructureDefinition/Medication-uv-ips"
          ]
        },
        "code": {
          "coding": [
            {
              "code": "314076",
              "system": "http://www.nlm.nih.gov/research/umls/rxnorm",
              "display": "lisinopril 10 MG Oral Tablet"
            },
            {
              "code": "318859000",
              "system": "http://snomed.info/sct",
              "display": "Product containing precisely lisinopril 10 milligram/1 each conventional release oral tablet (clinical drug)"
            }
          ],
          "text": "Lisinopril 10 mg oral tablet"
        },
        "form": {
          "coding": [
            {
              "code": "421026006",
              "system": "http://snomed.info/sct",
              "display": "Oral tablet"
            }
          ]
        },
        "ingredient": [
          {
            "itemCodeableConcept": {
              "coding": [
                {
                  "code": "386873009",
                  "system": "http://snomed.info/sct",
                  "display": "Lisinopril"
                }
              ]
            },
            "isActive": true
          }
        ]
      }
    },
    {
      "fullUrl": "urn:uuid:2d021c12-7bf1-4e29-8d8a-5a605887a3f4",
      "resource": {
        "resourceType": "MedicationStatement",
        "id": "2d021c12-7bf1-4e29-8d8a-5a605887a3f4",
        "effectivePeriod": {
          "start": "2024-08-10"
        },
        "dosage": [
          {
            "doseAndRate": [
              {
                "doseQuantity": {
                  "value": 1,
                  "unit": "{tbl}",
                  "code": "{tbl}"
                }
              }
            ],
            "timing": {
              "repeat": {
                "frequency": 1,
                "period": 1,
                "periodUnit": "d"
              }
            },
            "text": "1 tablet (10 mg) by mouth once daily",
            "asNeededBoolean": false
          }
        ],
        "reasonCode": [
          {
            "coding": [
              {
                "code": "59621000",
                "system": "http://snomed.info/sct",
                "display": "Essential hypertension (disorder)"
              }
            ]
          }
        ],
        "status": "active",
        "medicationReference": {
          "reference": "Medication/6f20ee26-1fea-49de-b516-9d2ba3006f58",
          "display": "Lisinopril 10 mg oral tablet"
        },
        "subject": {
          "reference": "Patient/b7237921-a1d5-4fd4-aace-c4f1e118bd1c",
          "display": "Ida Brommer"
        }
      }
    },
    {
      "fullUrl": "urn:uuid:4653ddcd-f2e3-439d-93ce-63ed95f57287",
      "resource": {
        "resourceType": "Medication",
        "id": "4653ddcd-f2e3-439d-93ce-63ed95f57287",
        "meta": {
          "profile": [
            "http://hl7.org/fhir/uv/ips/StructureDefinition/Medication-uv-ips"
          ]
        },
        "code": {
          "coding": [
            {
              "code": "856987",
              "system": "http://www.nlm.nih.gov/research/umls/rxnorm",
              "display": "acetaminophen 300 MG / hydrocodone bitartrate 5 MG Oral Tablet"
            },
            {
              "code": "420397007",
              "system": "http://snomed.info/sct",
              "display": "Product containing precisely hydrocodone bitartrate 5 milligram and paracetamol 300 milligram/1 each conventional release oral tablet (clinical drug)"
            }
          ],
          "text": "Acetaminophen 300 mg and hydrocodone bitartrate 5 mg oral tablet"
        },
        "form": {
          "coding": [
            {
              "code": "421026006",
              "system": "http://snomed.info/sct",
              "display": "Oral tablet"
            }
          ]
        },
        "ingredient": [
          {
            "itemCodeableConcept": {
              "coding": [
                {
                  "code": "3874004",
                  "system": "http://snomed.info/sct",
                  "display": "Hydrocodone bitartrate"
                }
              ]
            },
            "isActive": true
          }
        ]
      }
    },
    {
      "fullUrl": "urn:uuid:070ffed9-7fbc-4766-86c2-b03658b2b382",
      "resource": {
        "resourceType": "MedicationStatement",
        "id": "070ffed9-7fbc-4766-86c2-b03658b2b382",
        "effectivePeriod": {
          "start": "2024-08-10"
        },
        "dosage": [
          {
            "doseAndRate": [
              {
                "doseQuantity": {
                  "value": 1,
                  "unit": "{tbl}",
                  "code": "{tbl}"
                }
              }
            ],
            "timing": {
              "repeat": {
                "frequency": 6,
                "period": 1,
                "periodUnit": "d"
              }
            },
            "text": "1 tablet (300 mg/5 mg) by mouth every 4 to 6 hours as needed",
            "asNeededBoolean": true
          }
        ],
        "status": "active",
        "medicationReference": {
          "reference": "Medication/4653ddcd-f2e3-439d-93ce-63ed95f57287",
          "display": "Acetaminophen 300 mg and hydrocodone bitartrate 5 mg oral tablet"
        },
        "subject": {
          "reference": "Patient/b7237921-a1d5-4fd4-aace-c4f1e118bd1c",
          "display": "Ida Brommer"
        }
      }
    },
    {
      "fullUrl": "urn:uuid:d64b014a-3c32-4c15-9a2e-5edb2cfa8d66",
      "resource": {
        "resourceType": "Medication",
        "id": "d64b014a-3c32-4c15-9a2e-5edb2cfa8d66",
        "meta": {
          "profile": [
            "http://hl7.org/fhir/uv/ips/StructureDefinition/Medication-uv-ips"
          ]
        },
        "code": {
          "coding": [
            {
              "code": "309362",
              "system": "http://www.nlm.nih.gov/research/umls/rxnorm",
              "display": "clopidogrel 75 MG Oral Tablet"
            },
            {
              "code": "783586007",
              "system": "http://snomed.info/sct",
              "display": "Product containing precisely clopidogrel (as clopidogrel bisulfate) 75 milligram/1 each conventional release oral tablet (clinical drug)"
            }
          ],
          "text": "Clopidogrel (as clopidogrel bisulfate) 75 mg oral tablet"
        },
        "form": {
          "coding": [
            {
              "code": "421026006",
              "system": "http://snomed.info/sct",
              "display": "Oral tablet"
            }
          ]
        },
        "ingredient": [
          {
            "itemCodeableConcept": {
              "coding": [
                {
                  "code": "412354008",
                  "system": "http://snomed.info/sct",
                  "display": "Clopidogrel bisulfate"
                }
              ]
            },
            "isActive": true
          }
        ]
      }
    },
    {
      "fullUrl": "urn:uuid:67c711a2-68b7-4daa-8c2b-172d0b1560ab",
      "resource": {
        "resourceType": "MedicationStatement",
        "id": "67c711a2-68b7-4daa-8c2b-172d0b1560ab",
        "effectivePeriod": {
          "start": "2010-05-29"
        },
        "dosage": [
          {
            "doseAndRate": [
              {
                "doseQuantity": {
                  "value": 1,
                  "unit": "{tbl}",
                  "code": "{tbl}"
                }
              }
            ],
            "timing": {
              "repeat": {
                "frequency": 1,
                "period": 1,
                "periodUnit": "d"
              }
            },
            "text": "1 tablet (75 mg) once daily",
            "asNeededBoolean": false
          }
        ],
        "status": "active",
        "medicationReference": {
          "reference": "Medication/d64b014a-3c32-4c15-9a2e-5edb2cfa8d66",
          "display": "Clopidogrel (as clopidogrel bisulfate) 75 mg oral tablet"
        },
        "subject": {
          "reference": "Patient/b7237921-a1d5-4fd4-aace-c4f1e118bd1c",
          "display": "Ida Brommer"
        }
      }
    },
    {
      "fullUrl": "urn:uuid:d419e393-d0ea-4dfa-bfb6-fa95ad82e97d",
      "resource": {
        "resourceType": "Medication",
        "id": "d419e393-d0ea-4dfa-bfb6-fa95ad82e97d",
        "meta": {
          "profile": [
            "http://hl7.org/fhir/uv/ips/StructureDefinition/Medication-uv-ips"
          ]
        },
        "code": {
          "coding": [
            {
              "code": "312961",
              "system": "http://www.nlm.nih.gov/research/umls/rxnorm",
              "display": "simvastatin 20 MG Oral Tablet"
            },
            {
              "code": "319997009",
              "system": "http://snomed.info/sct",
              "display": "Product containing precisely simvastatin 20 milligram/1 each conventional release oral tablet (clinical drug)"
            }
          ],
          "text": "Simvastatin 20 mg oral tablet"
        },
        "form": {
          "coding": [
            {
              "code": "421026006",
              "system": "http://snomed.info/sct",
              "display": "Oral tablet"
            }
          ]
        },
        "ingredient": [
          {
            "itemCodeableConcept": {
              "coding": [
                {
                  "code": "387584000",
                  "system": "http://snomed.info/sct",
                  "display": "Simvastatin"
                }
              ]
            },
            "isActive": true
          }
        ]
      }
    },
    {
      "fullUrl": "urn:uuid:cef39019-4d70-45f3-95b1-342090ded0aa",
      "resource": {
        "resourceType": "MedicationStatement",
        "id": "cef39019-4d70-45f3-95b1-342090ded0aa",
        "effectivePeriod": {
          "start": "2010-05-29"
        },
        "dosage": [
          {
            "doseAndRate": [
              {
                "doseQuantity": {
                  "value": 1,
                  "unit": "{tbl}",
                  "code": "{tbl}"
                }
              }
            ],
            "timing": {
              "repeat": {
                "frequency": 1,
                "period": 1,
                "periodUnit": "d"
              }
            },
            "text": "1 tablet (20 mg) by mouth once daily",
            "asNeededBoolean": false
          }
        ],
        "status": "active",
        "medicationReference": {
          "reference": "Medication/d419e393-d0ea-4dfa-bfb6-fa95ad82e97d",
          "display": "Simvastatin 20 mg oral tablet"
        },
        "subject": {
          "reference": "Patient/b7237921-a1d5-4fd4-aace-c4f1e118bd1c",
          "display": "Ida Brommer"
        }
      }
    },
    {
      "fullUrl": "urn:uuid:5805facc-2628-4336-a1b5-ca53d8dab200",
      "resource": {
        "resourceType": "Medication",
        "id": "5805facc-2628-4336-a1b5-ca53d8dab200",
        "meta": {
          "profile": [
            "http://hl7.org/fhir/uv/ips/StructureDefinition/Medication-uv-ips"
          ]
        },
        "code": {
          "coding": [
            {
              "code": "705129",
              "system": "http://www.nlm.nih.gov/research/umls/rxnorm",
              "display": "nitroglycerin 0.4 MG/ACTUAT Mucosal Spray"
            },
            {
              "code": "425176000",
              "system": "http://snomed.info/sct",
              "display": "Product containing precisely glyceryl trinitrate 400 microgram/1 actuation conventional release sublingual spray (clinical drug)"
            }
          ],
          "text": "Nitroglycerin 400 microgram/actuation sublingual spray"
        },
        "form": {
          "coding": [
            {
              "code": "385074009",
              "system": "http://snomed.info/sct",
              "display": "Sublingual spray"
            }
          ]
        },
        "ingredient": [
          {
            "itemCodeableConcept": {
              "coding": [
                {
                  "code": "387404004",
                  "system": "http://snomed.info/sct",
                  "display": "Glyceryl trinitrate"
                }
              ]
            },
            "isActive": true
          }
        ]
      }
    },
    {
      "fullUrl": "urn:uuid:0b7a31b4-1e9e-4738-b1b9-ccec28bb5871",
      "resource": {
        "resourceType": "MedicationStatement",
        "id": "0b7a31b4-1e9e-4738-b1b9-ccec28bb5871",
        "effectivePeriod": {
          "start": "2010-05-29"
        },
        "dosage": [
          {
            "doseAndRate": [
              {
                "doseQuantity": {
                  "value": 400,
                  "unit": "microgram",
                  "code": "ug"
                }
              }
            ],
            "timing": {
              "repeat": {
                "frequency": 3,
                "period": 15,
                "periodUnit": "min"
              }
            },
            "text": "400 micrograms per spray, use 1 spray under the tongue as needed for chest pain, may repeat every 5 minutes as needed, up to 3 sprays in 15 minutes",
            "asNeededBoolean": true
          }
        ],
        "status": "active",
        "medicationReference": {
          "reference": "Medication/5805facc-2628-4336-a1b5-ca53d8dab200",
          "display": "Nitroglycerin 400 microgram/actuation sublingual spray"
        },
        "subject": {
          "reference": "Patient/b7237921-a1d5-4fd4-aace-c4f1e118bd1c",
          "display": "Ida Brommer"
        }
      }
    },
    {
      "fullUrl": "urn:uuid:871c7b7a-de62-4a54-bf79-9f896bf5db9a",
      "resource": {
        "resourceType": "Medication",
        "id": "871c7b7a-de62-4a54-bf79-9f896bf5db9a",
        "meta": {
          "profile": [
            "http://hl7.org/fhir/uv/ips/StructureDefinition/Medication-uv-ips"
          ]
        },
        "code": {
          "coding": [
            {
              "code": "866412",
              "system": "http://www.nlm.nih.gov/research/umls/rxnorm",
              "display": "24 HR metoprolol succinate 100 MG Extended Release Oral Tablet"
            },
            {
              "code": "879980009",
              "system": "http://snomed.info/sct",
              "display": "Product containing precisely metoprolol tartrate (as metoprolol succinate) 100 milligram/1 each prolonged-release oral tablet (clinical drug)"
            }
          ],
          "text": "Metoprolol tartrate (as metoprolol succinate) 100 mg prolonged-release oral tablet"
        },
        "form": {
          "coding": [
            {
              "code": "385060002",
              "system": "http://snomed.info/sct",
              "display": "Prolonged-release oral tablet"
            }
          ]
        },
        "ingredient": [
          {
            "itemCodeableConcept": {
              "coding": [
                {
                  "code": "412432007",
                  "system": "http://snomed.info/sct",
                  "display": "Metoprolol succinate"
                }
              ]
            },
            "isActive": true
          }
        ]
      }
    },
    {
      "fullUrl": "urn:uuid:ebd67b5c-9b74-4aca-82ab-9a1213297a0c",
      "resource": {
        "resourceType": "MedicationStatement",
        "id": "ebd67b5c-9b74-4aca-82ab-9a1213297a0c",
        "effectivePeriod": {
          "start": "2010-05-29"
        },
        "dosage": [
          {
            "doseAndRate": [
              {
                "doseQuantity": {
                  "value": 1,
                  "unit": "{tbl}",
                  "code": "{tbl}"
                }
              }
            ],
            "timing": {
              "repeat": {
                "frequency": 1,
                "period": 1,
                "periodUnit": "d"
              }
            },
            "text": "1 tablet (100 mg) once daily",
            "asNeededBoolean": false
          }
        ],
        "status": "active",
        "medicationReference": {
          "reference": "Medication/871c7b7a-de62-4a54-bf79-9f896bf5db9a",
          "display": "Metoprolol tartrate (as metoprolol succinate) 100 mg prolonged-release oral tablet"
        },
        "subject": {
          "reference": "Patient/b7237921-a1d5-4fd4-aace-c4f1e118bd1c",
          "display": "Ida Brommer"
        }
      }
    },
    {
      "fullUrl": "urn:uuid:082ad9c2-3151-4394-9fc9-7ee5c7e05650",
      "resource": {
        "resourceType": "Medication",
        "id": "082ad9c2-3151-4394-9fc9-7ee5c7e05650",
        "meta": {
          "profile": [
            "http://hl7.org/fhir/uv/ips/StructureDefinition/Medication-uv-ips"
          ]
        },
        "code": {
          "coding": [
            {
              "code": "310325",
              "system": "http://www.nlm.nih.gov/research/umls/rxnorm",
              "display": "ferrous sulfate 325 MG Oral Tablet"
            }
          ],
          "text": "ferrous sulfate 325 MG Oral Tablet"
        }
      }
    },
    {
      "fullUrl": "urn:uuid:075fc7aa-9af4-4df9-9f71-6c2bebaad1f5",
      "resource": {
        "resourceType": "MedicationStatement",
        "id": "075fc7aa-9af4-4df9-9f71-6c2bebaad1f5",
        "effectivePeriod": {
          "start": "1982-05-22"
        },
        "dosage": [
          {
            "doseAndRate": [
              {
                "doseQuantity": {
                  "value": 1,
                  "unit": "{tbl}",
                  "code": "{tbl}"
                }
              }
            ],
            "timing": {
              "repeat": {
                "frequency": 1,
                "period": 1,
                "periodUnit": "d"
              }
            },
            "text": "1 tablet (325 mg) by mouth once daily",
            "asNeededBoolean": false
          }
        ],
        "status": "active",
        "medicationReference": {
          "reference": "Medication/082ad9c2-3151-4394-9fc9-7ee5c7e05650",
          "display": "ferrous sulfate 325 MG Oral Tablet"
        },
        "subject": {
          "reference": "Patient/b7237921-a1d5-4fd4-aace-c4f1e118bd1c",
          "display": "Ida Brommer"
        }
      }
    },
    {
      "fullUrl": "urn:uuid:ae2bfbd9-e232-4a8d-93d2-db57faea63e8",
      "resource": {
        "resourceType": "AllergyIntolerance",
        "id": "ae2bfbd9-e232-4a8d-93d2-db57faea63e8",
        "meta": {
          "profile": [
            "http://hl7.eu/fhir/eps/StructureDefinition/allergyIntolerance-eu-eps"
          ]
        },
        "code": {
          "coding": [
            {
              "code": "716186003",
              "system": "http://snomed.info/sct",
              "display": "No known allergy (situation)"
            }
          ]
        },
        "patient": {
          "reference": "Patient/b7237921-a1d5-4fd4-aace-c4f1e118bd1c",
          "display": "Ida Brommer"
        },
        "_onsetDateTime": {
          "extension": [
            {
              "url": "http://hl7.org/fhir/StructureDefinition/data-absent-reason",
              "valueCode": "unknown"
            }
          ]
        }
      }
    },
    {
      "fullUrl": "urn:uuid:90bba199-e52e-4fba-af3d-b1e17a68fcd6",
      "resource": {
        "resourceType": "Procedure",
        "id": "90bba199-e52e-4fba-af3d-b1e17a68fcd6",
        "meta": {
          "profile": [
            "http://hl7.org/fhir/uv/ips/StructureDefinition/Procedure-uv-ips"
          ]
        },
        "code": {
          "coding": [
            {
              "code": "430193006",
              "system": "http://snomed.info/sct",
              "display": "Medication reconciliation (procedure)"
            }
          ],
          "text": "Medication reconciliation"
        },
        "status": "completed",
        "subject": {
          "reference": "Patient/b7237921-a1d5-4fd4-aace-c4f1e118bd1c",
          "display": "Ida Brommer"
        },
        "performedDateTime": "2024-04-20"
      }
    },
    {
      "fullUrl": "urn:uuid:50ea81c3-6729-40fa-82d4-4ea60d2ab04b",
      "resource": {
        "resourceType": "Procedure",
        "id": "50ea81c3-6729-40fa-82d4-4ea60d2ab04b",
        "meta": {
          "profile": [
            "http://hl7.org/fhir/uv/ips/StructureDefinition/Procedure-uv-ips"
          ]
        },
        "code": {
          "coding": [
            {
              "code": "103697008",
              "system": "http://snomed.info/sct",
              "display": "Patient referral for dental care (procedure)"
            }
          ],
          "text": "Patient referral for dental care"
        },
        "status": "completed",
        "subject": {
          "reference": "Patient/b7237921-a1d5-4fd4-aace-c4f1e118bd1c",
          "display": "Ida Brommer"
        },
        "performedDateTime": "2024-04-14"
      }
    },
    {
      "fullUrl": "urn:uuid:69ef300e-51ab-4a3f-a57a-d004380be6b3",
      "resource": {
        "resourceType": "Procedure",
        "id": "69ef300e-51ab-4a3f-a57a-d004380be6b3",
        "meta": {
          "profile": [
            "http://hl7.org/fhir/uv/ips/StructureDefinition/Procedure-uv-ips"
          ]
        },
        "code": {
          "coding": [
            {
              "code": "763302001",
              "system": "http://snomed.info/sct",
              "display": "Assessment using Alcohol Use Disorders Identification Test - Consumption (procedure)"
            }
          ],
          "text": "Assessment using AUDIT-C (Alcohol Use Disorders Identification Test - Consumption)"
        },
        "status": "completed",
        "subject": {
          "reference": "Patient/b7237921-a1d5-4fd4-aace-c4f1e118bd1c",
          "display": "Ida Brommer"
        },
        "performedDateTime": "2024-04-14"
      }
    },
    {
      "fullUrl": "urn:uuid:0e4b0a58-72ac-4da3-8c3a-c9620487c69e",
      "resource": {
        "resourceType": "Procedure",
        "id": "0e4b0a58-72ac-4da3-8c3a-c9620487c69e",
        "meta": {
          "profile": [
            "http://hl7.org/fhir/uv/ips/StructureDefinition/Procedure-uv-ips"
          ]
        },
        "code": {
          "coding": [
            {
              "code": "710824005",
              "system": "http://snomed.info/sct",
              "display": "Assessment of health and social care needs (procedure)"
            }
          ],
          "text": "Assessment of health and social care needs"
        },
        "status": "completed",
        "subject": {
          "reference": "Patient/b7237921-a1d5-4fd4-aace-c4f1e118bd1c",
          "display": "Ida Brommer"
        },
        "performedDateTime": "2024-04-13"
      }
    },
    {
      "fullUrl": "urn:uuid:3446534b-ecbe-4ae2-91b4-9bf344982e69",
      "resource": {
        "resourceType": "Procedure",
        "id": "3446534b-ecbe-4ae2-91b4-9bf344982e69",
        "meta": {
          "profile": [
            "http://hl7.org/fhir/uv/ips/StructureDefinition/Procedure-uv-ips"
          ]
        },
        "code": {
          "coding": [
            {
              "code": "710841007",
              "system": "http://snomed.info/sct",
              "display": "Assessment of anxiety (procedure)"
            }
          ],
          "text": "Assessment of anxiety"
        },
        "status": "completed",
        "subject": {
          "reference": "Patient/b7237921-a1d5-4fd4-aace-c4f1e118bd1c",
          "display": "Ida Brommer"
        },
        "performedDateTime": "2024-04-13"
      }
    },
    {
      "fullUrl": "urn:uuid:90fab667-9748-4ef0-ab01-3f8e724b84f6",
      "resource": {
        "resourceType": "Procedure",
        "id": "90fab667-9748-4ef0-ab01-3f8e724b84f6",
        "meta": {
          "profile": [
            "http://hl7.org/fhir/uv/ips/StructureDefinition/Procedure-uv-ips"
          ]
        },
        "code": {
          "coding": [
            {
              "code": "762993000",
              "system": "http://snomed.info/sct",
              "display": "Assessment using Morse Fall Scale (procedure)"
            }
          ],
          "text": "Assessment using Morse Fall Scale"
        },
        "status": "completed",
        "subject": {
          "reference": "Patient/b7237921-a1d5-4fd4-aace-c4f1e118bd1c",
          "display": "Ida Brommer"
        },
        "performedDateTime": "2024-04-13"
      }
    },
    {
      "fullUrl": "urn:uuid:7d534aef-6af0-4ba2-b811-75a403db452a",
      "resource": {
        "resourceType": "Procedure",
        "id": "7d534aef-6af0-4ba2-b811-75a403db452a",
        "meta": {
          "profile": [
            "http://hl7.org/fhir/uv/ips/StructureDefinition/Procedure-uv-ips"
          ]
        },
        "code": {
          "coding": [
            {
              "code": "428211000124100",
              "system": "http://snomed.info/sct",
              "display": "Assessment of substance use (procedure)"
            }
          ],
          "text": "Assessment of substance use"
        },
        "status": "completed",
        "subject": {
          "reference": "Patient/b7237921-a1d5-4fd4-aace-c4f1e118bd1c",
          "display": "Ida Brommer"
        },
        "performedDateTime": "2024-04-13"
      }
    },
    {
      "fullUrl": "urn:uuid:d98d9173-349b-4947-807b-9ca0e8c50c61",
      "resource": {
        "resourceType": "Procedure",
        "id": "d98d9173-349b-4947-807b-9ca0e8c50c61",
        "meta": {
          "profile": [
            "http://hl7.org/fhir/uv/ips/StructureDefinition/Procedure-uv-ips"
          ]
        },
        "code": {
          "coding": [
            {
              "code": "58000006",
              "system": "http://snomed.info/sct",
              "display": "Patient discharge (procedure)"
            }
          ],
          "text": "Patient discharge"
        },
        "status": "completed",
        "subject": {
          "reference": "Patient/b7237921-a1d5-4fd4-aace-c4f1e118bd1c",
          "display": "Ida Brommer"
        },
        "performedDateTime": "2023-04-08"
      }
    },
    {
      "fullUrl": "urn:uuid:c2105d27-2047-4488-ac8f-9575a45b3062",
      "resource": {
        "resourceType": "Procedure",
        "id": "c2105d27-2047-4488-ac8f-9575a45b3062",
        "meta": {
          "profile": [
            "http://hl7.org/fhir/uv/ips/StructureDefinition/Procedure-uv-ips"
          ]
        },
        "code": {
          "coding": [
            {
              "code": "385763009",
              "system": "http://snomed.info/sct",
              "display": "Hospice care (regime/therapy)"
            }
          ],
          "text": "Hospice care"
        },
        "status": "completed",
        "subject": {
          "reference": "Patient/b7237921-a1d5-4fd4-aace-c4f1e118bd1c",
          "display": "Ida Brommer"
        },
        "performedDateTime": "2023-04-07"
      }
    },
    {
      "fullUrl": "urn:uuid:8bd7d618-3e51-4385-84a7-1ce7726c96bb",
      "resource": {
        "resourceType": "Procedure",
        "id": "8bd7d618-3e51-4385-84a7-1ce7726c96bb",
        "meta": {
          "profile": [
            "http://hl7.org/fhir/uv/ips/StructureDefinition/Procedure-uv-ips"
          ]
        },
        "code": {
          "coding": [
            {
              "code": "185087000",
              "system": "http://snomed.info/sct",
              "display": "Notifications (procedure)"
            }
          ],
          "text": "Notifications"
        },
        "status": "completed",
        "subject": {
          "reference": "Patient/b7237921-a1d5-4fd4-aace-c4f1e118bd1c",
          "display": "Ida Brommer"
        },
        "performedDateTime": "2023-03-04"
      }
    },
    {
      "fullUrl": "urn:uuid:b485f2c2-fc29-410a-a18c-5c33ed208048",
      "resource": {
        "resourceType": "Procedure",
        "id": "b485f2c2-fc29-410a-a18c-5c33ed208048",
        "meta": {
          "profile": [
            "http://hl7.org/fhir/uv/ips/StructureDefinition/Procedure-uv-ips"
          ]
        },
        "code": {
          "coding": [
            {
              "code": "310417005",
              "system": "http://snomed.info/sct",
              "display": "Certification procedure (procedure)"
            }
          ],
          "text": "Certification procedure"
        },
        "status": "completed",
        "subject": {
          "reference": "Patient/b7237921-a1d5-4fd4-aace-c4f1e118bd1c",
          "display": "Ida Brommer"
        },
        "performedDateTime": "2023-03-04"
      }
    },
    {
      "fullUrl": "urn:uuid:5bcdbe86-0d8c-4cba-8252-1e98594bdbbf",
      "resource": {
        "resourceType": "Procedure",
        "id": "5bcdbe86-0d8c-4cba-8252-1e98594bdbbf",
        "meta": {
          "profile": [
            "http://hl7.org/fhir/uv/ips/StructureDefinition/Procedure-uv-ips"
          ]
        },
        "code": {
          "coding": [
            {
              "code": "315639002",
              "system": "http://snomed.info/sct",
              "display": "Initial patient assessment (procedure)"
            }
          ],
          "text": "Initial patient assessment"
        },
        "status": "completed",
        "subject": {
          "reference": "Patient/b7237921-a1d5-4fd4-aace-c4f1e118bd1c",
          "display": "Ida Brommer"
        },
        "performedDateTime": "2023-03-04"
      }
    },
    {
      "fullUrl": "urn:uuid:449b5b50-d0e9-4acc-8698-21944ee72a52",
      "resource": {
        "resourceType": "Procedure",
        "id": "449b5b50-d0e9-4acc-8698-21944ee72a52",
        "meta": {
          "profile": [
            "http://hl7.org/fhir/uv/ips/StructureDefinition/Procedure-uv-ips"
          ]
        },
        "code": {
          "coding": [
            {
              "code": "370789001",
              "system": "http://snomed.info/sct",
              "display": "Development of individualized plan of care (procedure)"
            }
          ],
          "text": "Development of individualized plan of care"
        },
        "status": "completed",
        "subject": {
          "reference": "Patient/b7237921-a1d5-4fd4-aace-c4f1e118bd1c",
          "display": "Ida Brommer"
        },
        "performedDateTime": "2023-03-04"
      }
    },
    {
      "fullUrl": "urn:uuid:23b5df4a-030e-4d96-ad09-dceeb6e69ec4",
      "resource": {
        "resourceType": "Procedure",
        "id": "23b5df4a-030e-4d96-ad09-dceeb6e69ec4",
        "meta": {
          "profile": [
            "http://hl7.org/fhir/uv/ips/StructureDefinition/Procedure-uv-ips"
          ]
        },
        "code": {
          "coding": [
            {
              "code": "713106006",
              "system": "http://snomed.info/sct",
              "display": "Screening for drug abuse (procedure)"
            }
          ],
          "text": "Screening for drug abuse"
        },
        "status": "completed",
        "subject": {
          "reference": "Patient/b7237921-a1d5-4fd4-aace-c4f1e118bd1c",
          "display": "Ida Brommer"
        },
        "performedDateTime": "2018-06-17"
      }
    },
    {
      "fullUrl": "urn:uuid:2e9d22e0-5792-486d-a599-bdc2a13c1f94",
      "resource": {
        "resourceType": "Procedure",
        "id": "2e9d22e0-5792-486d-a599-bdc2a13c1f94",
        "meta": {
          "profile": [
            "http://hl7.org/fhir/uv/ips/StructureDefinition/Procedure-uv-ips"
          ]
        },
        "code": {
          "coding": [
            {
              "code": "171207006",
              "system": "http://snomed.info/sct",
              "display": "Depression screening (procedure)"
            }
          ],
          "text": "Depression screening"
        },
        "status": "completed",
        "subject": {
          "reference": "Patient/b7237921-a1d5-4fd4-aace-c4f1e118bd1c",
          "display": "Ida Brommer"
        },
        "performedDateTime": "2018-06-16"
      }
    },
    {
      "fullUrl": "urn:uuid:a95d42ee-271d-4ca5-b859-06b721340cc4",
      "resource": {
        "resourceType": "Procedure",
        "id": "a95d42ee-271d-4ca5-b859-06b721340cc4",
        "meta": {
          "profile": [
            "http://hl7.org/fhir/uv/ips/StructureDefinition/Procedure-uv-ips"
          ]
        },
        "code": {
          "coding": [
            {
              "code": "866148006",
              "system": "http://snomed.info/sct",
              "display": "Screening for domestic abuse (procedure)"
            }
          ],
          "text": "Screening for domestic abuse"
        },
        "status": "completed",
        "subject": {
          "reference": "Patient/b7237921-a1d5-4fd4-aace-c4f1e118bd1c",
          "display": "Ida Brommer"
        },
        "performedDateTime": "2018-06-16"
      }
    },
    {
      "fullUrl": "urn:uuid:f634818e-9cc6-418a-a7de-248e38a5ab8e",
      "resource": {
        "resourceType": "Procedure",
        "id": "f634818e-9cc6-418a-a7de-248e38a5ab8e",
        "meta": {
          "profile": [
            "http://hl7.org/fhir/uv/ips/StructureDefinition/Procedure-uv-ips"
          ]
        },
        "code": {
          "coding": [
            {
              "code": "417511005",
              "system": "http://snomed.info/sct",
              "display": "Referral to home health care service (procedure)"
            }
          ],
          "text": "Referral to home health care service"
        },
        "status": "completed",
        "subject": {
          "reference": "Patient/b7237921-a1d5-4fd4-aace-c4f1e118bd1c",
          "display": "Ida Brommer"
        },
        "performedDateTime": "2017-09-16"
      }
    },
    {
      "fullUrl": "urn:uuid:0b2e74ca-ba43-4311-bab5-c631eb6ae93a",
      "resource": {
        "resourceType": "Immunization",
        "id": "0b2e74ca-ba43-4311-bab5-c631eb6ae93a",
        "meta": {
          "profile": [
            "http://hl7.org/fhir/uv/ips/StructureDefinition/Immunization-uv-ips"
          ]
        },
        "vaccineCode": {
          "coding": [
            {
              "code": "1181000221105",
              "system": "http://snomed.info/sct",
              "display": "Vaccine product containing Influenza virus antigen"
            },
            {
              "code": "J07BB02",
              "system": "http://www.whocc.no/atc",
              "display": "Influenza, inactivated, split virus"
            },
            {
              "code": "140",
              "system": "http://hl7.org/fhir/sid/cvx",
              "display": "Influenza  seasonal  injectable  preservative free"
            }
          ],
          "text": "Influenza virus antigen only vaccine product"
        },
        "site": {
          "coding": [
            {
              "code": "73776007",
              "system": "http://snomed.info/sct",
              "display": "Structure of muscle of upper arm"
            }
          ],
          "text": "Structure of muscle of upper arm"
        },
        "route": {
          "coding": [
            {
              "code": "78421000",
              "system": "http://snomed.info/sct",
              "display": "Intramuscular route"
            }
          ],
          "text": "Intramuscular route"
        },
        "status": "completed",
        "patient": {
          "reference": "Patient/b7237921-a1d5-4fd4-aace-c4f1e118bd1c",
          "display": "Ida Brommer"
        },
        "occurrenceDateTime": "2024-04-13",
        "lotNumber": "BZ-5Ncaa9W",
        "expirationDate": "2024-07-16"
      }
    },
    {
      "fullUrl": "urn:uuid:973fbdc2-c9c2-4e02-9380-3ddd5b06c489",
      "resource": {
        "resourceType": "Immunization",
        "id": "973fbdc2-c9c2-4e02-9380-3ddd5b06c489",
        "meta": {
          "profile": [
            "http://hl7.org/fhir/uv/ips/StructureDefinition/Immunization-uv-ips"
          ]
        },
        "vaccineCode": {
          "coding": [
            {
              "code": "1119349007",
              "system": "http://snomed.info/sct",
              "display": "Vaccine product containing SARS-CoV-2 mRNA"
            },
            {
              "code": "J07BX03",
              "system": "http://www.whocc.no/atc",
              "display": "COVID-19 mRNA vaccines"
            },
            {
              "code": "207",
              "system": "http://hl7.org/fhir/sid/cvx",
              "display": "COVID-19  mRNA  LNP-S  PF  100 mcg/0.5mL dose or 50 mcg/0.25mL dose"
            }
          ],
          "text": "SARS-CoV-2 mRNA vaccine"
        },
        "site": {
          "coding": [
            {
              "code": "73776007",
              "system": "http://snomed.info/sct",
              "display": "Structure of muscle of upper arm"
            }
          ],
          "text": "Structure of muscle of upper arm"
        },
        "route": {
          "coding": [
            {
              "code": "78421000",
              "system": "http://snomed.info/sct",
              "display": "Intramuscular route"
            }
          ],
          "text": "Intramuscular route"
        },
        "status": "completed",
        "patient": {
          "reference": "Patient/b7237921-a1d5-4fd4-aace-c4f1e118bd1c",
          "display": "Ida Brommer"
        },
        "occurrenceDateTime": "2021-02-27",
        "lotNumber": "HK-Px7SShpy3",
        "expirationDate": "2022-02-19"
      }
    },
    {
      "fullUrl": "urn:uuid:eded4a8f-1646-4bfc-9fc9-377a23ffa7de",
      "resource": {
        "resourceType": "Immunization",
        "id": "eded4a8f-1646-4bfc-9fc9-377a23ffa7de",
        "meta": {
          "profile": [
            "http://hl7.org/fhir/uv/ips/StructureDefinition/Immunization-uv-ips"
          ]
        },
        "vaccineCode": {
          "coding": [
            {
              "code": "777725002",
              "system": "http://snomed.info/sct",
              "display": "Vaccine product containing only Clostridium tetani toxoid antigen adsorbed"
            },
            {
              "code": "J07AM51",
              "system": "http://www.whocc.no/atc",
              "display": "Diphtheria-tetanus vaccines, adult type"
            },
            {
              "code": "113",
              "system": "http://hl7.org/fhir/sid/cvx",
              "display": "Td (adult)  5 Lf tetanus toxoid  preservative free  adsorbed"
            }
          ],
          "text": "Clostridium tetani toxoid antigen adsorbed only vaccine product"
        },
        "site": {
          "coding": [
            {
              "code": "73776007",
              "system": "http://snomed.info/sct",
              "display": "Structure of muscle of upper arm"
            }
          ],
          "text": "Structure of muscle of upper arm"
        },
        "route": {
          "coding": [
            {
              "code": "78421000",
              "system": "http://snomed.info/sct",
              "display": "Intramuscular route"
            }
          ],
          "text": "Intramuscular route"
        },
        "status": "completed",
        "patient": {
          "reference": "Patient/b7237921-a1d5-4fd4-aace-c4f1e118bd1c",
          "display": "Ida Brommer"
        },
        "occurrenceDateTime": "2019-07-13",
        "lotNumber": "RL-svbBdm",
        "expirationDate": "2019-08-20"
      }
    }
  ],
  "type": "document",
  "timestamp": "2025-06-16T17:19:49Z"
}
