{
  "resourceType": "Bundle",
  "id": "Instance-Bundle-ebb541ef-ca46-41b4-ac1e-b6214c25e985",
  "meta": {
    "profile": [
      "http://hl7.eu/fhir/eps/StructureDefinition/bundle-eu-eps"
    ]
  },
  "identifier": {
    "assigner": {
      "display": "HL7 Europe"
    },
    "system": "urn:oid:2.16.840.1.113883.2.51.999",
    "value": "e179c89c-5313-498a-a602-75018a727f8c"
  },
  "entry": [
    {
      "fullUrl": "urn:uuid:ab6461fd-f548-4b6f-a45a-54641887b26b",
      "resource": {
        "resourceType": "Composition",
        "id": "ab6461fd-f548-4b6f-a45a-54641887b26b",
        "meta": {
          "profile": [
            "http://hl7.eu/fhir/eps/StructureDefinition/composition-eu-eps"
          ]
        },
        "identifier": {
          "assigner": {
            "display": "HL7 Europe"
          },
          "system": "urn:oid:2.16.840.1.113883.2.51.999",
          "value": "761278f7-e149-4997-80f0-bfeeb615abf8"
        },
        "type": {
          "coding": [
            {
              "system": "http://loinc.org",
              "code": "60591-5",
              "display": "European Patient Summary"
            }
          ],
          "text": "European Patient Summary"
        },
        "author": [
          {
            "reference": "urn:uuid:10536aa4-3617-4f5b-9d34-7bd829fecfdf"
          }
        ],
        "section": [
          {
            "text": {
              "status": "generated",
              "div": "<div xmlns=\"http://www.w3.org/1999/xhtml\"><table class=\"hl7__ips\"><tr><th>Condition</th><th>Onset Date</th><th>Status</th></tr><tr><td>Viral sinusitis</td><td><span class=\"nb\">2025-04-08</span></td><td>active</td></tr><tr><td>Anemia</td><td><span class=\"nb\">2022-03-08</span></td><td>active</td></tr><tr><td><span class=\"grayedout\">Viral sinusitis</span></td><td><span class=\"nb\">2022-08-10</span></td><td><span class=\"grayedout\">inactive</span></td></tr><tr><td><span class=\"grayedout\">Viral sinusitis</span></td><td><span class=\"nb\">2022-05-24</span></td><td><span class=\"grayedout\">inactive</span></td></tr><tr><td><span class=\"grayedout\">Viral sinusitis</span></td><td><span class=\"nb\">2017-11-30</span></td><td><span class=\"grayedout\">inactive</span></td></tr><tr><td><span class=\"grayedout\">Viral sinusitis</span></td><td><span class=\"nb\">2017-05-05</span></td><td><span class=\"grayedout\">inactive</span></td></tr><tr><td><span class=\"grayedout\">Viral sinusitis</span></td><td><span class=\"nb\">2016-03-08</span></td><td><span class=\"grayedout\">inactive</span></td></tr></table></div>"
            },
            "entry": [
              {
                "reference": "urn:uuid:5122b144-a21a-4878-8af8-db60501daf0e"
              },
              {
                "reference": "urn:uuid:875fa421-beab-48e8-98ab-a4d60136c49e"
              },
              {
                "reference": "urn:uuid:2e937085-b155-4a2e-9dde-b1eb424a8ff5"
              },
              {
                "reference": "urn:uuid:39ad9e95-8a2e-42ea-bf22-8b2ca1483f33"
              },
              {
                "reference": "urn:uuid:344a9ce6-6979-45a9-a456-eb960ae1e771"
              },
              {
                "reference": "urn:uuid:ae62aabc-af68-4125-b986-202eaee74143"
              },
              {
                "reference": "urn:uuid:b8e6a593-4903-451d-8100-9954d61a07a0"
              }
            ],
            "code": {
              "coding": [
                {
                  "system": "http://loinc.org",
                  "code": "11450-4",
                  "display": "Problem list - Reported"
                }
              ]
            },
            "title": "Problem list"
          },
          {
            "text": {
              "status": "generated",
              "div": "<div xmlns=\"http://www.w3.org/1999/xhtml\"><table class=\"hl7__ips\"><tr><td>No known medications</td><td></td><td></td><td></td><td></td></tr></table></div>"
            },
            "entry": [
              {
                "reference": "urn:uuid:942e5b05-9042-4a66-b6a3-aab0aa6bc091"
              },
              {
                "reference": "urn:uuid:942e5b05-9042-4a66-b6a3-aab0aa6bc091"
              }
            ],
            "code": {
              "coding": [
                {
                  "system": "http://loinc.org",
                  "code": "10160-0",
                  "display": "History of Medication use Narrative"
                }
              ]
            },
            "title": "Medication list"
          },
          {
            "text": {
              "status": "generated",
              "div": "<div xmlns=\"http://www.w3.org/1999/xhtml\"><table class=\"hl7__ips\"><tr><td>No known allergies or intolerances</td></tr></table></div>"
            },
            "entry": [
              {
                "reference": "urn:uuid:221216c5-bceb-422c-af6f-65eefdb8e496"
              }
            ],
            "code": {
              "coding": [
                {
                  "system": "http://loinc.org",
                  "code": "48765-2",
                  "display": "Allergies and adverse reactions Document"
                }
              ]
            },
            "title": "Allergies and Intolerances"
          },
          {
            "text": {
              "status": "generated",
              "div": "<div xmlns=\"http://www.w3.org/1999/xhtml\"><table class=\"hl7__ips\"><tr><th>Procedure</th><th>Date</th><th>Reason</th></tr><tr><td>Human parturition</td><td><span class=\"nb\">2015-09-08</span></td><td>Normal pregnancy (finding)</td></tr></table></div>"
            },
            "entry": [
              {
                "reference": "urn:uuid:76fb88f6-87e0-4227-8141-da21c150e917"
              }
            ],
            "code": {
              "coding": [
                {
                  "system": "http://loinc.org",
                  "code": "47519-4",
                  "display": "History of Procedures Document"
                }
              ]
            },
            "title": "Procedure History list"
          },
          {
            "text": {
              "status": "generated",
              "div": "<div xmlns=\"http://www.w3.org/1999/xhtml\"><table class=\"hl7__ips\"><tr><th>Vaccine</th><th>Date</th></tr><tr><td>Clostridium tetani toxoid antigen adsorbed only vaccine product</td><td><span class=\"nb\">2025-03-11</span></td></tr><tr><td>Influenza virus antigen only vaccine product</td><td><span class=\"nb\">2025-03-11</span></td></tr><tr><td>SARS-CoV-2 mRNA vaccine</td><td><span class=\"nb\">2021-06-08</span></td></tr><tr><td>Hepatitis B virus antigen only vaccine product</td><td><span class=\"nb\">2016-03-01</span></td></tr><tr><td>Neisseria meningitidis antigen-containing vaccine product</td><td><span class=\"nb\">2016-03-01</span></td></tr></table></div>"
            },
            "entry": [
              {
                "reference": "urn:uuid:07485183-b3d8-4846-af35-e342dc76e3c8"
              },
              {
                "reference": "urn:uuid:14497a76-570c-4028-895e-5bdd7338cf9f"
              },
              {
                "reference": "urn:uuid:2442f244-91a3-4a9f-a224-61893d4696c1"
              },
              {
                "reference": "urn:uuid:3179f830-0e5f-4fd6-a9dd-9e4e9881621c"
              },
              {
                "reference": "urn:uuid:2d4a09a4-c933-40f9-8345-b390507c0e3b"
              }
            ],
            "code": {
              "coding": [
                {
                  "system": "http://loinc.org",
                  "code": "11369-6",
                  "display": "History of Immunization Narrative"
                }
              ]
            },
            "title": "Immunizations list"
          }
        ],
        "title": "European Patient Summary",
        "status": "final",
        "subject": {
          "reference": "urn:uuid:7cafdc26-485c-4854-ac93-3fcd4dc3034f"
        },
        "custodian": {
          "reference": "urn:uuid:901b9c3a-bdc5-4871-85ee-8e6c2140b4dd"
        },
        "date": "2025-06-17T11:26:49Z",
        "confidentiality": "N"
      }
    },
    {
      "fullUrl": "urn:uuid:7cafdc26-485c-4854-ac93-3fcd4dc3034f",
      "resource": {
        "resourceType": "Patient",
        "id": "7cafdc26-485c-4854-ac93-3fcd4dc3034f",
        "meta": {
          "profile": [
            "http://hl7.eu/fhir/eps/StructureDefinition/patient-eu-eps"
          ]
        },
        "identifier": [
          {
            "type": {
              "coding": [
                {
                  "code": "NI",
                  "system": "http://terminology.hl7.org/CodeSystem/v2-0203"
                }
              ]
            },
            "system": "http://ec.europa.eu/identifier/eci",
            "value": "4849-340331-4"
          },
          {
            "type": {
              "coding": [
                {
                  "code": "MR",
                  "system": "http://terminology.hl7.org/CodeSystem/v2-0203"
                }
              ]
            },
            "system": "http://local.setting.eu/identifier",
            "value": "f1e88ef6-fc0a-632b-9e3c-7c5adf628bf3"
          }
        ],
        "name": [
          {
            "given": [
              "Rame"
            ],
            "family": "Asković",
            "text": "Rame Asković"
          }
        ],
        "address": [
          {
            "line": [
              "Litzelhofenstrasse 35"
            ],
            "use": "home",
            "type": "physical",
            "city": "Zeillern",
            "postalCode": "3312",
            "country": "Austria"
          }
        ],
        "telecom": [
          {
            "system": "phone",
            "value": "+43 0676 218 63 16"
          }
        ],
        "gender": "male",
        "birthDate": "1989-03-28"
      }
    },
    {
      "fullUrl": "urn:uuid:10536aa4-3617-4f5b-9d34-7bd829fecfdf",
      "resource": {
        "resourceType": "PractitionerRole",
        "id": "10536aa4-3617-4f5b-9d34-7bd829fecfdf",
        "meta": {
          "profile": [
            "http://hl7.eu/fhir/base/StructureDefinition/practitionerRole-eu"
          ]
        },
        "practitioner": {
          "reference": "urn:uuid:d8ea0a7b-0a26-4084-810a-2fe15cf58958"
        },
        "organization": {
          "reference": "urn:uuid:901b9c3a-bdc5-4871-85ee-8e6c2140b4dd"
        }
      }
    },
    {
      "fullUrl": "urn:uuid:d8ea0a7b-0a26-4084-810a-2fe15cf58958",
      "resource": {
        "resourceType": "Practitioner",
        "id": "d8ea0a7b-0a26-4084-810a-2fe15cf58958",
        "meta": {
          "profile": [
            "http://hl7.eu/fhir/base/StructureDefinition/practitioner-eu"
          ]
        },
        "name": [
          {
            "prefix": [
              "Dr."
            ],
            "given": [
              "Hel"
            ],
            "family": "Ping"
          }
        ]
      }
    },
    {
      "fullUrl": "urn:uuid:5122b144-a21a-4878-8af8-db60501daf0e",
      "resource": {
        "resourceType": "Condition",
        "id": "5122b144-a21a-4878-8af8-db60501daf0e",
        "meta": {
          "profile": [
            "http://hl7.org/fhir/uv/ips/StructureDefinition/Condition-uv-ips"
          ]
        },
        "category": [
          {
            "coding": [
              {
                "code": "problem-list-item",
                "system": "http://terminology.hl7.org/CodeSystem/condition-category",
                "display": "Problem List Item"
              }
            ]
          }
        ],
        "code": {
          "coding": [
            {
              "code": "444814009",
              "system": "http://snomed.info/sct",
              "display": "Viral sinusitis (disorder)"
            }
          ],
          "text": "Viral sinusitis"
        },
        "onsetDateTime": "2025-04-08",
        "clinicalStatus": {
          "coding": [
            {
              "code": "active",
              "system": "http://terminology.hl7.org/CodeSystem/condition-clinical"
            }
          ]
        },
        "subject": {
          "reference": "Patient/7cafdc26-485c-4854-ac93-3fcd4dc3034f",
          "display": "Rame Asković"
        },
        "asserter": {
          "reference": "Practitioner/d8ea0a7b-0a26-4084-810a-2fe15cf58958",
          "display": "Dr. Hel Ping"
        }
      }
    },
    {
      "fullUrl": "urn:uuid:875fa421-beab-48e8-98ab-a4d60136c49e",
      "resource": {
        "resourceType": "Condition",
        "id": "875fa421-beab-48e8-98ab-a4d60136c49e",
        "meta": {
          "profile": [
            "http://hl7.org/fhir/uv/ips/StructureDefinition/Condition-uv-ips"
          ]
        },
        "category": [
          {
            "coding": [
              {
                "code": "problem-list-item",
                "system": "http://terminology.hl7.org/CodeSystem/condition-category",
                "display": "Problem List Item"
              }
            ]
          }
        ],
        "code": {
          "coding": [
            {
              "code": "271737000",
              "system": "http://snomed.info/sct",
              "display": "Anemia (disorder)"
            }
          ],
          "text": "Anemia"
        },
        "onsetDateTime": "2022-03-08",
        "clinicalStatus": {
          "coding": [
            {
              "code": "active",
              "system": "http://terminology.hl7.org/CodeSystem/condition-clinical"
            }
          ]
        },
        "subject": {
          "reference": "Patient/7cafdc26-485c-4854-ac93-3fcd4dc3034f",
          "display": "Rame Asković"
        },
        "asserter": {
          "reference": "Practitioner/d8ea0a7b-0a26-4084-810a-2fe15cf58958",
          "display": "Dr. Hel Ping"
        }
      }
    },
    {
      "fullUrl": "urn:uuid:2e937085-b155-4a2e-9dde-b1eb424a8ff5",
      "resource": {
        "resourceType": "Condition",
        "id": "2e937085-b155-4a2e-9dde-b1eb424a8ff5",
        "meta": {
          "profile": [
            "http://hl7.org/fhir/uv/ips/StructureDefinition/Condition-uv-ips"
          ]
        },
        "category": [
          {
            "coding": [
              {
                "code": "problem-list-item",
                "system": "http://terminology.hl7.org/CodeSystem/condition-category",
                "display": "Problem List Item"
              }
            ]
          }
        ],
        "code": {
          "coding": [
            {
              "code": "444814009",
              "system": "http://snomed.info/sct",
              "display": "Viral sinusitis (disorder)"
            }
          ],
          "text": "Viral sinusitis"
        },
        "onsetDateTime": "2022-08-10",
        "clinicalStatus": {
          "coding": [
            {
              "code": "inactive",
              "system": "http://terminology.hl7.org/CodeSystem/condition-clinical"
            }
          ]
        },
        "subject": {
          "reference": "Patient/7cafdc26-485c-4854-ac93-3fcd4dc3034f",
          "display": "Rame Asković"
        },
        "asserter": {
          "reference": "Practitioner/d8ea0a7b-0a26-4084-810a-2fe15cf58958",
          "display": "Dr. Hel Ping"
        }
      }
    },
    {
      "fullUrl": "urn:uuid:39ad9e95-8a2e-42ea-bf22-8b2ca1483f33",
      "resource": {
        "resourceType": "Condition",
        "id": "39ad9e95-8a2e-42ea-bf22-8b2ca1483f33",
        "meta": {
          "profile": [
            "http://hl7.org/fhir/uv/ips/StructureDefinition/Condition-uv-ips"
          ]
        },
        "category": [
          {
            "coding": [
              {
                "code": "problem-list-item",
                "system": "http://terminology.hl7.org/CodeSystem/condition-category",
                "display": "Problem List Item"
              }
            ]
          }
        ],
        "code": {
          "coding": [
            {
              "code": "444814009",
              "system": "http://snomed.info/sct",
              "display": "Viral sinusitis (disorder)"
            }
          ],
          "text": "Viral sinusitis"
        },
        "onsetDateTime": "2022-05-24",
        "clinicalStatus": {
          "coding": [
            {
              "code": "inactive",
              "system": "http://terminology.hl7.org/CodeSystem/condition-clinical"
            }
          ]
        },
        "subject": {
          "reference": "Patient/7cafdc26-485c-4854-ac93-3fcd4dc3034f",
          "display": "Rame Asković"
        },
        "asserter": {
          "reference": "Practitioner/d8ea0a7b-0a26-4084-810a-2fe15cf58958",
          "display": "Dr. Hel Ping"
        }
      }
    },
    {
      "fullUrl": "urn:uuid:344a9ce6-6979-45a9-a456-eb960ae1e771",
      "resource": {
        "resourceType": "Condition",
        "id": "344a9ce6-6979-45a9-a456-eb960ae1e771",
        "meta": {
          "profile": [
            "http://hl7.org/fhir/uv/ips/StructureDefinition/Condition-uv-ips"
          ]
        },
        "category": [
          {
            "coding": [
              {
                "code": "problem-list-item",
                "system": "http://terminology.hl7.org/CodeSystem/condition-category",
                "display": "Problem List Item"
              }
            ]
          }
        ],
        "code": {
          "coding": [
            {
              "code": "444814009",
              "system": "http://snomed.info/sct",
              "display": "Viral sinusitis (disorder)"
            }
          ],
          "text": "Viral sinusitis"
        },
        "onsetDateTime": "2017-11-30",
        "clinicalStatus": {
          "coding": [
            {
              "code": "inactive",
              "system": "http://terminology.hl7.org/CodeSystem/condition-clinical"
            }
          ]
        },
        "subject": {
          "reference": "Patient/7cafdc26-485c-4854-ac93-3fcd4dc3034f",
          "display": "Rame Asković"
        },
        "asserter": {
          "reference": "Practitioner/d8ea0a7b-0a26-4084-810a-2fe15cf58958",
          "display": "Dr. Hel Ping"
        }
      }
    },
    {
      "fullUrl": "urn:uuid:ae62aabc-af68-4125-b986-202eaee74143",
      "resource": {
        "resourceType": "Condition",
        "id": "ae62aabc-af68-4125-b986-202eaee74143",
        "meta": {
          "profile": [
            "http://hl7.org/fhir/uv/ips/StructureDefinition/Condition-uv-ips"
          ]
        },
        "category": [
          {
            "coding": [
              {
                "code": "problem-list-item",
                "system": "http://terminology.hl7.org/CodeSystem/condition-category",
                "display": "Problem List Item"
              }
            ]
          }
        ],
        "code": {
          "coding": [
            {
              "code": "444814009",
              "system": "http://snomed.info/sct",
              "display": "Viral sinusitis (disorder)"
            }
          ],
          "text": "Viral sinusitis"
        },
        "onsetDateTime": "2017-05-05",
        "clinicalStatus": {
          "coding": [
            {
              "code": "inactive",
              "system": "http://terminology.hl7.org/CodeSystem/condition-clinical"
            }
          ]
        },
        "subject": {
          "reference": "Patient/7cafdc26-485c-4854-ac93-3fcd4dc3034f",
          "display": "Rame Asković"
        },
        "asserter": {
          "reference": "Practitioner/d8ea0a7b-0a26-4084-810a-2fe15cf58958",
          "display": "Dr. Hel Ping"
        }
      }
    },
    {
      "fullUrl": "urn:uuid:b8e6a593-4903-451d-8100-9954d61a07a0",
      "resource": {
        "resourceType": "Condition",
        "id": "b8e6a593-4903-451d-8100-9954d61a07a0",
        "meta": {
          "profile": [
            "http://hl7.org/fhir/uv/ips/StructureDefinition/Condition-uv-ips"
          ]
        },
        "category": [
          {
            "coding": [
              {
                "code": "problem-list-item",
                "system": "http://terminology.hl7.org/CodeSystem/condition-category",
                "display": "Problem List Item"
              }
            ]
          }
        ],
        "code": {
          "coding": [
            {
              "code": "444814009",
              "system": "http://snomed.info/sct",
              "display": "Viral sinusitis (disorder)"
            }
          ],
          "text": "Viral sinusitis"
        },
        "onsetDateTime": "2016-03-08",
        "clinicalStatus": {
          "coding": [
            {
              "code": "inactive",
              "system": "http://terminology.hl7.org/CodeSystem/condition-clinical"
            }
          ]
        },
        "subject": {
          "reference": "Patient/7cafdc26-485c-4854-ac93-3fcd4dc3034f",
          "display": "Rame Asković"
        },
        "asserter": {
          "reference": "Practitioner/d8ea0a7b-0a26-4084-810a-2fe15cf58958",
          "display": "Dr. Hel Ping"
        }
      }
    },
    {
      "fullUrl": "urn:uuid:942e5b05-9042-4a66-b6a3-aab0aa6bc091",
      "resource": {
        "resourceType": "MedicationStatement",
        "id": "942e5b05-9042-4a66-b6a3-aab0aa6bc091",
        "meta": {
          "profile": [
            "http://hl7.org/fhir/uv/ips/StructureDefinition/MedicationStatement-uv-ips"
          ]
        },
        "effectivePeriod": {
          "extension": [
            {
              "url": "http://hl7.org/fhir/StructureDefinition/data-absent-reason",
              "valueCode": "unknown"
            }
          ]
        },
        "status": "active",
        "medicationCodeableConcept": {
          "coding": [
            {
              "code": "787481004",
              "system": "http://snomed.info/sct",
              "display": "No known medications (situation)"
            }
          ]
        },
        "subject": {
          "reference": "Patient/7cafdc26-485c-4854-ac93-3fcd4dc3034f",
          "display": "Rame Asković"
        }
      }
    },
    {
      "fullUrl": "urn:uuid:942e5b05-9042-4a66-b6a3-aab0aa6bc091",
      "resource": {
        "resourceType": "MedicationStatement",
        "id": "942e5b05-9042-4a66-b6a3-aab0aa6bc091",
        "meta": {
          "profile": [
            "http://hl7.org/fhir/uv/ips/StructureDefinition/MedicationStatement-uv-ips"
          ]
        },
        "effectivePeriod": {
          "extension": [
            {
              "url": "http://hl7.org/fhir/StructureDefinition/data-absent-reason",
              "valueCode": "unknown"
            }
          ]
        },
        "status": "active",
        "medicationCodeableConcept": {
          "coding": [
            {
              "code": "787481004",
              "system": "http://snomed.info/sct",
              "display": "No known medications (situation)"
            }
          ]
        },
        "subject": {
          "reference": "Patient/7cafdc26-485c-4854-ac93-3fcd4dc3034f",
          "display": "Rame Asković"
        }
      }
    },
    {
      "fullUrl": "urn:uuid:221216c5-bceb-422c-af6f-65eefdb8e496",
      "resource": {
        "resourceType": "AllergyIntolerance",
        "id": "221216c5-bceb-422c-af6f-65eefdb8e496",
        "meta": {
          "profile": [
            "http://hl7.eu/fhir/eps/StructureDefinition/allergyIntolerance-eu-eps"
          ]
        },
        "code": {
          "coding": [
            {
              "code": "716186003",
              "system": "http://snomed.info/sct",
              "display": "No known allergy (situation)"
            }
          ]
        },
        "patient": {
          "reference": "Patient/7cafdc26-485c-4854-ac93-3fcd4dc3034f",
          "display": "Rame Asković"
        },
        "_onsetDateTime": {
          "extension": [
            {
              "url": "http://hl7.org/fhir/StructureDefinition/data-absent-reason",
              "valueCode": "unknown"
            }
          ]
        }
      }
    },
    {
      "fullUrl": "urn:uuid:76fb88f6-87e0-4227-8141-da21c150e917",
      "resource": {
        "resourceType": "Procedure",
        "id": "76fb88f6-87e0-4227-8141-da21c150e917",
        "meta": {
          "profile": [
            "http://hl7.org/fhir/uv/ips/StructureDefinition/Procedure-uv-ips"
          ]
        },
        "code": {
          "coding": [
            {
              "code": "386216000",
              "system": "http://snomed.info/sct",
              "display": "Human parturition  function (observable entity)"
            }
          ],
          "text": "Human parturition"
        },
        "reasonCode": [
          {
            "coding": [
              {
                "code": "72892002",
                "system": "http://snomed.info/sct",
                "display": "Normal pregnancy (finding)"
              }
            ]
          }
        ],
        "status": "completed",
        "subject": {
          "reference": "Patient/7cafdc26-485c-4854-ac93-3fcd4dc3034f",
          "display": "Rame Asković"
        },
        "performedDateTime": "2015-09-08"
      }
    },
    {
      "fullUrl": "urn:uuid:07485183-b3d8-4846-af35-e342dc76e3c8",
      "resource": {
        "resourceType": "Immunization",
        "id": "07485183-b3d8-4846-af35-e342dc76e3c8",
        "meta": {
          "profile": [
            "http://hl7.org/fhir/uv/ips/StructureDefinition/Immunization-uv-ips"
          ]
        },
        "vaccineCode": {
          "coding": [
            {
              "code": "777725002",
              "system": "http://snomed.info/sct",
              "display": "Vaccine product containing only Clostridium tetani toxoid antigen adsorbed"
            },
            {
              "code": "J07AM51",
              "system": "http://www.whocc.no/atc",
              "display": "Diphtheria-tetanus vaccines, adult type"
            },
            {
              "code": "113",
              "system": "http://hl7.org/fhir/sid/cvx",
              "display": "Td (adult)  5 Lf tetanus toxoid  preservative free  adsorbed"
            }
          ],
          "text": "Clostridium tetani toxoid antigen adsorbed only vaccine product"
        },
        "site": {
          "coding": [
            {
              "code": "73776007",
              "system": "http://snomed.info/sct",
              "display": "Structure of muscle of upper arm"
            }
          ],
          "text": "Structure of muscle of upper arm"
        },
        "route": {
          "coding": [
            {
              "code": "78421000",
              "system": "http://snomed.info/sct",
              "display": "Intramuscular route"
            }
          ],
          "text": "Intramuscular route"
        },
        "status": "completed",
        "patient": {
          "reference": "Patient/7cafdc26-485c-4854-ac93-3fcd4dc3034f",
          "display": "Rame Asković"
        },
        "occurrenceDateTime": "2025-03-11",
        "lotNumber": "RX-Bj35",
        "expirationDate": "2026-02-18"
      }
    },
    {
      "fullUrl": "urn:uuid:14497a76-570c-4028-895e-5bdd7338cf9f",
      "resource": {
        "resourceType": "Immunization",
        "id": "14497a76-570c-4028-895e-5bdd7338cf9f",
        "meta": {
          "profile": [
            "http://hl7.org/fhir/uv/ips/StructureDefinition/Immunization-uv-ips"
          ]
        },
        "vaccineCode": {
          "coding": [
            {
              "code": "1181000221105",
              "system": "http://snomed.info/sct",
              "display": "Vaccine product containing Influenza virus antigen"
            },
            {
              "code": "J07BB02",
              "system": "http://www.whocc.no/atc",
              "display": "Influenza, inactivated, split virus"
            },
            {
              "code": "140",
              "system": "http://hl7.org/fhir/sid/cvx",
              "display": "Influenza  seasonal  injectable  preservative free"
            }
          ],
          "text": "Influenza virus antigen only vaccine product"
        },
        "site": {
          "coding": [
            {
              "code": "73776007",
              "system": "http://snomed.info/sct",
              "display": "Structure of muscle of upper arm"
            }
          ],
          "text": "Structure of muscle of upper arm"
        },
        "route": {
          "coding": [
            {
              "code": "78421000",
              "system": "http://snomed.info/sct",
              "display": "Intramuscular route"
            }
          ],
          "text": "Intramuscular route"
        },
        "status": "completed",
        "patient": {
          "reference": "Patient/7cafdc26-485c-4854-ac93-3fcd4dc3034f",
          "display": "Rame Asković"
        },
        "occurrenceDateTime": "2025-03-11",
        "lotNumber": "ZN-pRBxr72",
        "expirationDate": "2025-08-10"
      }
    },
    {
      "fullUrl": "urn:uuid:2442f244-91a3-4a9f-a224-61893d4696c1",
      "resource": {
        "resourceType": "Immunization",
        "id": "2442f244-91a3-4a9f-a224-61893d4696c1",
        "meta": {
          "profile": [
            "http://hl7.org/fhir/uv/ips/StructureDefinition/Immunization-uv-ips"
          ]
        },
        "vaccineCode": {
          "coding": [
            {
              "code": "1119349007",
              "system": "http://snomed.info/sct",
              "display": "Vaccine product containing SARS-CoV-2 mRNA"
            },
            {
              "code": "J07BX03",
              "system": "http://www.whocc.no/atc",
              "display": "COVID-19 mRNA vaccines"
            },
            {
              "code": "208",
              "system": "http://hl7.org/fhir/sid/cvx",
              "display": "COVID-19  mRNA  LNP-S  PF  30 mcg/0.3 mL dose"
            }
          ],
          "text": "SARS-CoV-2 mRNA vaccine"
        },
        "site": {
          "coding": [
            {
              "code": "73776007",
              "system": "http://snomed.info/sct",
              "display": "Structure of muscle of upper arm"
            }
          ],
          "text": "Structure of muscle of upper arm"
        },
        "route": {
          "coding": [
            {
              "code": "78421000",
              "system": "http://snomed.info/sct",
              "display": "Intramuscular route"
            }
          ],
          "text": "Intramuscular route"
        },
        "status": "completed",
        "patient": {
          "reference": "Patient/7cafdc26-485c-4854-ac93-3fcd4dc3034f",
          "display": "Rame Asković"
        },
        "occurrenceDateTime": "2021-06-08",
        "lotNumber": "LO-kowL29BiK",
        "expirationDate": "2021-09-09"
      }
    },
    {
      "fullUrl": "urn:uuid:3179f830-0e5f-4fd6-a9dd-9e4e9881621c",
      "resource": {
        "resourceType": "Immunization",
        "id": "3179f830-0e5f-4fd6-a9dd-9e4e9881621c",
        "meta": {
          "profile": [
            "http://hl7.org/fhir/uv/ips/StructureDefinition/Immunization-uv-ips"
          ]
        },
        "vaccineCode": {
          "coding": [
            {
              "code": "871822003",
              "system": "http://snomed.info/sct",
              "display": "Vaccine product containing Hepatitis B virus antigen"
            },
            {
              "code": "J07BC01",
              "system": "http://www.whocc.no/atc",
              "display": "Hepatitis B vaccines"
            },
            {
              "code": "43",
              "system": "http://hl7.org/fhir/sid/cvx",
              "display": "Hep B  adult"
            }
          ],
          "text": "Hepatitis B virus antigen only vaccine product"
        },
        "site": {
          "coding": [
            {
              "code": "73776007",
              "system": "http://snomed.info/sct",
              "display": "Structure of muscle of upper arm"
            }
          ],
          "text": "Structure of muscle of upper arm"
        },
        "route": {
          "coding": [
            {
              "code": "78421000",
              "system": "http://snomed.info/sct",
              "display": "Intramuscular route"
            }
          ],
          "text": "Intramuscular route"
        },
        "status": "completed",
        "patient": {
          "reference": "Patient/7cafdc26-485c-4854-ac93-3fcd4dc3034f",
          "display": "Rame Asković"
        },
        "occurrenceDateTime": "2016-03-01",
        "lotNumber": "XY-ERkmyU",
        "expirationDate": "2016-07-13"
      }
    },
    {
      "fullUrl": "urn:uuid:2d4a09a4-c933-40f9-8345-b390507c0e3b",
      "resource": {
        "resourceType": "Immunization",
        "id": "2d4a09a4-c933-40f9-8345-b390507c0e3b",
        "meta": {
          "profile": [
            "http://hl7.org/fhir/uv/ips/StructureDefinition/Immunization-uv-ips"
          ]
        },
        "vaccineCode": {
          "coding": [
            {
              "code": "836401009",
              "system": "http://snomed.info/sct",
              "display": "Vaccine product containing Neisseria meningitidis antigen"
            },
            {
              "code": "J07AH08",
              "system": "http://www.whocc.no/atc",
              "display": "Meningococcal vaccines, conjugated"
            },
            {
              "code": "114",
              "system": "http://hl7.org/fhir/sid/cvx",
              "display": "meningococcal MCV4P"
            }
          ],
          "text": "Neisseria meningitidis antigen-containing vaccine product"
        },
        "site": {
          "coding": [
            {
              "code": "73776007",
              "system": "http://snomed.info/sct",
              "display": "Structure of muscle of upper arm"
            }
          ],
          "text": "Structure of muscle of upper arm"
        },
        "route": {
          "coding": [
            {
              "code": "78421000",
              "system": "http://snomed.info/sct",
              "display": "Intramuscular route"
            }
          ],
          "text": "Intramuscular route"
        },
        "status": "completed",
        "patient": {
          "reference": "Patient/7cafdc26-485c-4854-ac93-3fcd4dc3034f",
          "display": "Rame Asković"
        },
        "occurrenceDateTime": "2016-03-01",
        "lotNumber": "JY-TywonU73",
        "expirationDate": "2016-11-22"
      }
    }
  ],
  "type": "document",
  "timestamp": "2025-06-17T11:26:49Z"
}
