{
  "resourceType": "Bundle",
  "id": "Instance-Bundle-794e7ab2-b823-4241-9a93-c8c4e0a4de78",
  "meta": {
    "profile": [
      "http://hl7.eu/fhir/eps/StructureDefinition/bundle-eu-eps"
    ]
  },
  "identifier": {
    "assigner": {
      "display": "HL7 Europe"
    },
    "system": "urn:oid:2.16.840.1.113883.2.51.999",
    "value": "c734f35e-f944-4f6a-a8f6-e99fced23de2"
  },
  "entry": [
    {
      "fullUrl": "urn:uuid:d40bfc1b-75a0-4d56-b005-f9e89a69c72f",
      "resource": {
        "resourceType": "Composition",
        "id": "d40bfc1b-75a0-4d56-b005-f9e89a69c72f",
        "meta": {
          "profile": [
            "http://hl7.eu/fhir/eps/StructureDefinition/composition-eu-eps"
          ]
        },
        "identifier": {
          "assigner": {
            "display": "HL7 Europe"
          },
          "system": "urn:oid:2.16.840.1.113883.2.51.999",
          "value": "da76070d-0d68-4209-98f8-f80e9c8ba429"
        },
        "type": {
          "coding": [
            {
              "system": "http://loinc.org",
              "code": "60591-5",
              "display": "European Patient Summary"
            }
          ],
          "text": "European Patient Summary"
        },
        "author": [
          {
            "reference": "urn:uuid:9505012e-ec06-4f0d-a49f-22a7b0bd6cbe"
          }
        ],
        "section": [
          {
            "text": {
              "status": "generated",
              "div": "<div xmlns=\"http://www.w3.org/1999/xhtml\"><table class=\"hl7__ips\"><tr><td>Laceration of thigh</td><td>2025-04-07</td><td>active</td></tr><tr><td>Laceration - injury</td><td>2025-04-07</td><td>active</td></tr><tr><td>Chronic sinusitis</td><td>2018-08-22</td><td>active</td></tr><tr><td>Anemia</td><td>2009-09-24</td><td>active</td></tr><tr><td>Miscarriage in first trimester</td><td>2021-03-18</td><td>inactive</td></tr><tr><td>Complete miscarriage</td><td>2021-03-18</td><td>inactive</td></tr><tr><td>Sinusitis</td><td>2018-05-19</td><td>inactive</td></tr></table></div>"
            },
            "entry": [
              {
                "reference": "urn:uuid:a9216200-6505-466a-9064-a1f2932964fd"
              },
              {
                "reference": "urn:uuid:5ffacc35-e75d-47d9-acc0-47cd6838e32f"
              },
              {
                "reference": "urn:uuid:23e8dadc-7f7d-4c83-ac18-e032c551bc59"
              },
              {
                "reference": "urn:uuid:fa903fee-8a6c-45a3-ad7e-bd522c35cc18"
              },
              {
                "reference": "urn:uuid:7c6060b4-3938-4346-ad49-50b8fbb136f0"
              },
              {
                "reference": "urn:uuid:39290e3e-12c2-44a2-95ef-b9e5ba4009a4"
              },
              {
                "reference": "urn:uuid:c874c474-b0a9-4942-a6de-dd6f728bfc3a"
              }
            ],
            "code": {
              "coding": [
                {
                  "system": "http://loinc.org",
                  "code": "11450-4",
                  "display": "Problem list - Reported"
                }
              ]
            },
            "title": "Problem list"
          },
          {
            "text": {
              "status": "generated",
              "div": "<div xmlns=\"http://www.w3.org/1999/xhtml\"><table class=\"hl7__ips\"><tr><td>Naproxen sodium 220 MG Oral Tablet</td><td>2025-04-07</td><td></td><td>1 tablet (220 mg) by mouth every 8 to 12 hours as needed\"</td><td></td></tr><tr><td>Natazia 28 Day Pack</td><td>2025-04-06</td><td></td><td>1 tablet (2 mg estradiol valerate or 2 mg estradiol valerate + 2 mg dienogest or 1 mg estradiol valerate + 2 mg dienogest or 1 mg estradiol valerate) once daily\"</td><td></td></tr></table></div>"
            },
            "entry": [
              {
                "reference": "urn:uuid:0baaf978-0837-4730-b9f9-e5229b06e451"
              },
              {
                "reference": "urn:uuid:9d6a4f79-f54d-45c3-8c83-b5032ead2859"
              }
            ],
            "code": {
              "coding": [
                {
                  "system": "http://loinc.org",
                  "code": "10160-0",
                  "display": "History of Medication use Narrative"
                }
              ]
            },
            "title": "Medication list"
          },
          {
            "text": {
              "status": "generated",
              "div": "<div xmlns=\"http://www.w3.org/1999/xhtml\"><table class=\"hl7__ips\"><tr><td>No known allergies or intolerances</td></tr></table></div>"
            },
            "entry": [
              {
                "reference": "urn:uuid:ef903422-42a4-4182-859c-bacac8d245d9"
              }
            ],
            "code": {
              "coding": [
                {
                  "system": "http://loinc.org",
                  "code": "48765-2",
                  "display": "Allergies and adverse reactions Document"
                }
              ]
            },
            "title": "Allergies and Intolerances"
          },
          {
            "text": {
              "status": "generated",
              "div": "<div xmlns=\"http://www.w3.org/1999/xhtml\"><table class=\"hl7__ips\"><tr><td>Suture open wound</td><td>2025-04-07</td><td>Laceration of thigh (disorder)</td></tr></table></div>"
            },
            "entry": [
              {
                "reference": "urn:uuid:e1ae8546-fee8-421b-a1f0-2e279bff7eea"
              }
            ],
            "code": {
              "coding": [
                {
                  "system": "http://loinc.org",
                  "code": "47519-4",
                  "display": "History of Procedures Document"
                }
              ]
            },
            "title": "Procedure History list"
          },
          {
            "text": {
              "status": "generated",
              "div": "<div xmlns=\"http://www.w3.org/1999/xhtml\"><table class=\"hl7__ips\"><tr><td>Influenza virus antigen only vaccine product</td><td>2024-10-10</td></tr><tr><td>SARS-CoV-2 mRNA vaccine</td><td>2021-02-25</td></tr><tr><td>Clostridium tetani toxoid antigen adsorbed only vaccine product</td><td>2018-10-04</td></tr></table></div>"
            },
            "entry": [
              {
                "reference": "urn:uuid:5498acce-ae85-4ed6-bbf6-ee1114cf664d"
              },
              {
                "reference": "urn:uuid:7e35dec5-4a10-46f4-a0e5-9fc227c452fa"
              },
              {
                "reference": "urn:uuid:685441cf-c4ed-4e49-ad19-70feac985755"
              }
            ],
            "code": {
              "coding": [
                {
                  "system": "http://loinc.org",
                  "code": "11369-6",
                  "display": "History of Immunization Narrative"
                }
              ]
            },
            "title": "Immunizations list"
          }
        ],
        "title": "European Patient Summary",
        "status": "final",
        "subject": {
          "reference": "urn:uuid:58782f79-67d7-4cc3-ba4d-0dcdf96bed21"
        },
        "custodian": {
          "reference": "urn:uuid:e18ad556-9cd6-4d42-a7c4-8b036509e9e4"
        },
        "date": "2025-06-16T17:28:57Z",
        "confidentiality": "N"
      }
    },
    {
      "fullUrl": "urn:uuid:58782f79-67d7-4cc3-ba4d-0dcdf96bed21",
      "resource": {
        "resourceType": "Patient",
        "id": "58782f79-67d7-4cc3-ba4d-0dcdf96bed21",
        "meta": {
          "profile": [
            "http://hl7.eu/fhir/eps/StructureDefinition/patient-eu-eps"
          ]
        },
        "identifier": [
          {
            "type": {
              "coding": [
                {
                  "code": "NI",
                  "system": "http://terminology.hl7.org/CodeSystem/v2-0203"
                }
              ]
            },
            "system": "http://ec.europa.eu/identifier/eci",
            "value": "9847-452473-7"
          },
          {
            "type": {
              "coding": [
                {
                  "code": "MR",
                  "system": "http://terminology.hl7.org/CodeSystem/v2-0203"
                }
              ]
            },
            "system": "http://local.setting.eu/identifier",
            "value": "804ab781-33af-6d58-afd1-b1298cf9f557"
          }
        ],
        "name": [
          {
            "given": [
              "Ulpu"
            ],
            "family": "Almila",
            "text": "Ulpu Almila"
          }
        ],
        "address": [
          {
            "line": [
              "Viru 51"
            ],
            "use": "home",
            "type": "physical",
            "city": "Tupenurme",
            "postalCode": "94764",
            "country": "Estonia"
          }
        ],
        "telecom": [
          {
            "system": "phone",
            "value": "+372 458 0550"
          }
        ],
        "gender": "female",
        "birthDate": "1993-09-03"
      }
    },
    {
      "fullUrl": "urn:uuid:9505012e-ec06-4f0d-a49f-22a7b0bd6cbe",
      "resource": {
        "resourceType": "PractitionerRole",
        "id": "9505012e-ec06-4f0d-a49f-22a7b0bd6cbe",
        "meta": {
          "profile": [
            "http://hl7.eu/fhir/base/StructureDefinition/practitionerRole-eu"
          ]
        },
        "practitioner": {
          "reference": "urn:uuid:20ad88f4-83d3-49eb-b8d7-2d5f5ec0c169"
        },
        "organization": {
          "reference": "urn:uuid:e18ad556-9cd6-4d42-a7c4-8b036509e9e4"
        }
      }
    },
    {
      "fullUrl": "urn:uuid:20ad88f4-83d3-49eb-b8d7-2d5f5ec0c169",
      "resource": {
        "resourceType": "Practitioner",
        "id": "20ad88f4-83d3-49eb-b8d7-2d5f5ec0c169",
        "meta": {
          "profile": [
            "http://hl7.eu/fhir/base/StructureDefinition/practitioner-eu"
          ]
        },
        "name": [
          {
            "prefix": [
              "Dr."
            ],
            "given": [
              "Hel"
            ],
            "family": "Ping"
          }
        ]
      }
    },
    {
      "fullUrl": "urn:uuid:a9216200-6505-466a-9064-a1f2932964fd",
      "resource": {
        "resourceType": "Condition",
        "id": "a9216200-6505-466a-9064-a1f2932964fd",
        "meta": {
          "profile": [
            "http://hl7.org/fhir/uv/ips/StructureDefinition/Condition-uv-ips"
          ]
        },
        "category": [
          {
            "coding": [
              {
                "code": "problem-list-item",
                "system": "http://terminology.hl7.org/CodeSystem/condition-category",
                "display": "Problem List Item"
              }
            ]
          }
        ],
        "code": {
          "coding": [
            {
              "code": "283385000",
              "system": "http://snomed.info/sct",
              "display": "Laceration of thigh (disorder)"
            }
          ],
          "text": "Laceration of thigh"
        },
        "onsetDateTime": "2025-04-07",
        "clinicalStatus": {
          "coding": [
            {
              "code": "active",
              "system": "http://terminology.hl7.org/CodeSystem/condition-clinical"
            }
          ]
        },
        "subject": {
          "reference": "Patient/58782f79-67d7-4cc3-ba4d-0dcdf96bed21",
          "display": "Ulpu Almila"
        },
        "asserter": {
          "reference": "Practitioner/20ad88f4-83d3-49eb-b8d7-2d5f5ec0c169",
          "display": "Dr. Hel Ping"
        }
      }
    },
    {
      "fullUrl": "urn:uuid:5ffacc35-e75d-47d9-acc0-47cd6838e32f",
      "resource": {
        "resourceType": "Condition",
        "id": "5ffacc35-e75d-47d9-acc0-47cd6838e32f",
        "meta": {
          "profile": [
            "http://hl7.org/fhir/uv/ips/StructureDefinition/Condition-uv-ips"
          ]
        },
        "category": [
          {
            "coding": [
              {
                "code": "problem-list-item",
                "system": "http://terminology.hl7.org/CodeSystem/condition-category",
                "display": "Problem List Item"
              }
            ]
          }
        ],
        "code": {
          "coding": [
            {
              "code": "312608009",
              "system": "http://snomed.info/sct",
              "display": "Laceration - injury (disorder)"
            }
          ],
          "text": "Laceration - injury"
        },
        "onsetDateTime": "2025-04-07",
        "clinicalStatus": {
          "coding": [
            {
              "code": "active",
              "system": "http://terminology.hl7.org/CodeSystem/condition-clinical"
            }
          ]
        },
        "subject": {
          "reference": "Patient/58782f79-67d7-4cc3-ba4d-0dcdf96bed21",
          "display": "Ulpu Almila"
        },
        "asserter": {
          "reference": "Practitioner/20ad88f4-83d3-49eb-b8d7-2d5f5ec0c169",
          "display": "Dr. Hel Ping"
        }
      }
    },
    {
      "fullUrl": "urn:uuid:23e8dadc-7f7d-4c83-ac18-e032c551bc59",
      "resource": {
        "resourceType": "Condition",
        "id": "23e8dadc-7f7d-4c83-ac18-e032c551bc59",
        "meta": {
          "profile": [
            "http://hl7.org/fhir/uv/ips/StructureDefinition/Condition-uv-ips"
          ]
        },
        "category": [
          {
            "coding": [
              {
                "code": "problem-list-item",
                "system": "http://terminology.hl7.org/CodeSystem/condition-category",
                "display": "Problem List Item"
              }
            ]
          }
        ],
        "code": {
          "coding": [
            {
              "code": "40055000",
              "system": "http://snomed.info/sct",
              "display": "Chronic sinusitis (disorder)"
            }
          ],
          "text": "Chronic sinusitis"
        },
        "onsetDateTime": "2018-08-22",
        "clinicalStatus": {
          "coding": [
            {
              "code": "active",
              "system": "http://terminology.hl7.org/CodeSystem/condition-clinical"
            }
          ]
        },
        "subject": {
          "reference": "Patient/58782f79-67d7-4cc3-ba4d-0dcdf96bed21",
          "display": "Ulpu Almila"
        },
        "asserter": {
          "reference": "Practitioner/20ad88f4-83d3-49eb-b8d7-2d5f5ec0c169",
          "display": "Dr. Hel Ping"
        }
      }
    },
    {
      "fullUrl": "urn:uuid:fa903fee-8a6c-45a3-ad7e-bd522c35cc18",
      "resource": {
        "resourceType": "Condition",
        "id": "fa903fee-8a6c-45a3-ad7e-bd522c35cc18",
        "meta": {
          "profile": [
            "http://hl7.org/fhir/uv/ips/StructureDefinition/Condition-uv-ips"
          ]
        },
        "category": [
          {
            "coding": [
              {
                "code": "problem-list-item",
                "system": "http://terminology.hl7.org/CodeSystem/condition-category",
                "display": "Problem List Item"
              }
            ]
          }
        ],
        "code": {
          "coding": [
            {
              "code": "271737000",
              "system": "http://snomed.info/sct",
              "display": "Anemia (disorder)"
            }
          ],
          "text": "Anemia"
        },
        "onsetDateTime": "2009-09-24",
        "clinicalStatus": {
          "coding": [
            {
              "code": "active",
              "system": "http://terminology.hl7.org/CodeSystem/condition-clinical"
            }
          ]
        },
        "subject": {
          "reference": "Patient/58782f79-67d7-4cc3-ba4d-0dcdf96bed21",
          "display": "Ulpu Almila"
        },
        "asserter": {
          "reference": "Practitioner/20ad88f4-83d3-49eb-b8d7-2d5f5ec0c169",
          "display": "Dr. Hel Ping"
        }
      }
    },
    {
      "fullUrl": "urn:uuid:7c6060b4-3938-4346-ad49-50b8fbb136f0",
      "resource": {
        "resourceType": "Condition",
        "id": "7c6060b4-3938-4346-ad49-50b8fbb136f0",
        "meta": {
          "profile": [
            "http://hl7.org/fhir/uv/ips/StructureDefinition/Condition-uv-ips"
          ]
        },
        "category": [
          {
            "coding": [
              {
                "code": "problem-list-item",
                "system": "http://terminology.hl7.org/CodeSystem/condition-category",
                "display": "Problem List Item"
              }
            ]
          }
        ],
        "code": {
          "coding": [
            {
              "code": "19169002",
              "system": "http://snomed.info/sct",
              "display": "Miscarriage in first trimester (disorder)"
            }
          ],
          "text": "Miscarriage in first trimester"
        },
        "onsetDateTime": "2021-03-18",
        "clinicalStatus": {
          "coding": [
            {
              "code": "inactive",
              "system": "http://terminology.hl7.org/CodeSystem/condition-clinical"
            }
          ]
        },
        "subject": {
          "reference": "Patient/58782f79-67d7-4cc3-ba4d-0dcdf96bed21",
          "display": "Ulpu Almila"
        },
        "asserter": {
          "reference": "Practitioner/20ad88f4-83d3-49eb-b8d7-2d5f5ec0c169",
          "display": "Dr. Hel Ping"
        }
      }
    },
    {
      "fullUrl": "urn:uuid:39290e3e-12c2-44a2-95ef-b9e5ba4009a4",
      "resource": {
        "resourceType": "Condition",
        "id": "39290e3e-12c2-44a2-95ef-b9e5ba4009a4",
        "meta": {
          "profile": [
            "http://hl7.org/fhir/uv/ips/StructureDefinition/Condition-uv-ips"
          ]
        },
        "category": [
          {
            "coding": [
              {
                "code": "problem-list-item",
                "system": "http://terminology.hl7.org/CodeSystem/condition-category",
                "display": "Problem List Item"
              }
            ]
          }
        ],
        "code": {
          "coding": [
            {
              "code": "156073000",
              "system": "http://snomed.info/sct",
              "display": "Complete miscarriage (disorder)"
            }
          ],
          "text": "Complete miscarriage"
        },
        "onsetDateTime": "2021-03-18",
        "clinicalStatus": {
          "coding": [
            {
              "code": "inactive",
              "system": "http://terminology.hl7.org/CodeSystem/condition-clinical"
            }
          ]
        },
        "subject": {
          "reference": "Patient/58782f79-67d7-4cc3-ba4d-0dcdf96bed21",
          "display": "Ulpu Almila"
        },
        "asserter": {
          "reference": "Practitioner/20ad88f4-83d3-49eb-b8d7-2d5f5ec0c169",
          "display": "Dr. Hel Ping"
        }
      }
    },
    {
      "fullUrl": "urn:uuid:c874c474-b0a9-4942-a6de-dd6f728bfc3a",
      "resource": {
        "resourceType": "Condition",
        "id": "c874c474-b0a9-4942-a6de-dd6f728bfc3a",
        "meta": {
          "profile": [
            "http://hl7.org/fhir/uv/ips/StructureDefinition/Condition-uv-ips"
          ]
        },
        "category": [
          {
            "coding": [
              {
                "code": "problem-list-item",
                "system": "http://terminology.hl7.org/CodeSystem/condition-category",
                "display": "Problem List Item"
              }
            ]
          }
        ],
        "code": {
          "coding": [
            {
              "code": "36971009",
              "system": "http://snomed.info/sct",
              "display": "Sinusitis (disorder)"
            }
          ],
          "text": "Sinusitis"
        },
        "onsetDateTime": "2018-05-19",
        "clinicalStatus": {
          "coding": [
            {
              "code": "inactive",
              "system": "http://terminology.hl7.org/CodeSystem/condition-clinical"
            }
          ]
        },
        "subject": {
          "reference": "Patient/58782f79-67d7-4cc3-ba4d-0dcdf96bed21",
          "display": "Ulpu Almila"
        },
        "asserter": {
          "reference": "Practitioner/20ad88f4-83d3-49eb-b8d7-2d5f5ec0c169",
          "display": "Dr. Hel Ping"
        }
      }
    },
    {
      "fullUrl": "urn:uuid:22342743-888a-4186-9754-9db5ebf181d3",
      "resource": {
        "resourceType": "Medication",
        "id": "22342743-888a-4186-9754-9db5ebf181d3",
        "meta": {
          "profile": [
            "http://hl7.org/fhir/uv/ips/StructureDefinition/Medication-uv-ips"
          ]
        },
        "code": {
          "coding": [
            {
              "code": "849574",
              "system": "http://www.nlm.nih.gov/research/umls/rxnorm",
              "display": "Naproxen sodium 220 MG Oral Tablet"
            }
          ],
          "text": "Naproxen sodium 220 MG Oral Tablet"
        }
      }
    },
    {
      "fullUrl": "urn:uuid:0baaf978-0837-4730-b9f9-e5229b06e451",
      "resource": {
        "resourceType": "MedicationStatement",
        "id": "0baaf978-0837-4730-b9f9-e5229b06e451",
        "effectivePeriod": {
          "start": "2025-04-07"
        },
        "dosage": [
          {
            "doseAndRate": [
              {
                "doseQuantity": {
                  "value": 1,
                  "unit": "{tbl}",
                  "code": "{tbl}"
                }
              }
            ],
            "timing": {
              "repeat": {
                "frequency": 1,
                "period": 8,
                "periodUnit": "h"
              }
            },
            "text": "1 tablet (220 mg) by mouth every 8 to 12 hours as needed",
            "asNeededBoolean": true
          }
        ],
        "status": "active",
        "medicationReference": {
          "reference": "Medication/22342743-888a-4186-9754-9db5ebf181d3",
          "display": "Naproxen sodium 220 MG Oral Tablet"
        },
        "subject": {
          "reference": "Patient/58782f79-67d7-4cc3-ba4d-0dcdf96bed21",
          "display": "Ulpu Almila"
        }
      }
    },
    {
      "fullUrl": "urn:uuid:39dd9363-9649-44b3-bbc8-ed4a46fd0e6b",
      "resource": {
        "resourceType": "Medication",
        "id": "39dd9363-9649-44b3-bbc8-ed4a46fd0e6b",
        "meta": {
          "profile": [
            "http://hl7.org/fhir/uv/ips/StructureDefinition/Medication-uv-ips"
          ]
        },
        "code": {
          "coding": [
            {
              "code": "978950",
              "system": "http://www.nlm.nih.gov/research/umls/rxnorm",
              "display": "Natazia 28 Day Pack"
            }
          ],
          "text": "Natazia 28 Day Pack"
        }
      }
    },
    {
      "fullUrl": "urn:uuid:9d6a4f79-f54d-45c3-8c83-b5032ead2859",
      "resource": {
        "resourceType": "MedicationStatement",
        "id": "9d6a4f79-f54d-45c3-8c83-b5032ead2859",
        "effectivePeriod": {
          "start": "2025-04-06"
        },
        "dosage": [
          {
            "doseAndRate": [
              {
                "doseQuantity": {
                  "value": 1,
                  "unit": "{tbl}",
                  "code": "{tbl}"
                }
              }
            ],
            "timing": {
              "repeat": {
                "frequency": 1,
                "period": 1,
                "periodUnit": "d"
              }
            },
            "text": "1 tablet (2 mg estradiol valerate or 2 mg estradiol valerate + 2 mg dienogest or 1 mg estradiol valerate + 2 mg dienogest or 1 mg estradiol valerate) once daily",
            "asNeededBoolean": false
          }
        ],
        "status": "active",
        "medicationReference": {
          "reference": "Medication/39dd9363-9649-44b3-bbc8-ed4a46fd0e6b",
          "display": "Natazia 28 Day Pack"
        },
        "subject": {
          "reference": "Patient/58782f79-67d7-4cc3-ba4d-0dcdf96bed21",
          "display": "Ulpu Almila"
        }
      }
    },
    {
      "fullUrl": "urn:uuid:ef903422-42a4-4182-859c-bacac8d245d9",
      "resource": {
        "resourceType": "AllergyIntolerance",
        "id": "ef903422-42a4-4182-859c-bacac8d245d9",
        "meta": {
          "profile": [
            "http://hl7.eu/fhir/eps/StructureDefinition/allergyIntolerance-eu-eps"
          ]
        },
        "code": {
          "coding": [
            {
              "code": "716186003",
              "system": "http://snomed.info/sct",
              "display": "No known allergy (situation)"
            }
          ]
        },
        "patient": {
          "reference": "Patient/58782f79-67d7-4cc3-ba4d-0dcdf96bed21",
          "display": "Ulpu Almila"
        },
        "_onsetDateTime": {
          "extension": [
            {
              "url": "http://hl7.org/fhir/StructureDefinition/data-absent-reason",
              "valueCode": "unknown"
            }
          ]
        }
      }
    },
    {
      "fullUrl": "urn:uuid:e1ae8546-fee8-421b-a1f0-2e279bff7eea",
      "resource": {
        "resourceType": "Procedure",
        "id": "e1ae8546-fee8-421b-a1f0-2e279bff7eea",
        "meta": {
          "profile": [
            "http://hl7.org/fhir/uv/ips/StructureDefinition/Procedure-uv-ips"
          ]
        },
        "code": {
          "coding": [
            {
              "code": "288086009",
              "system": "http://snomed.info/sct",
              "display": "Suture open wound (procedure)"
            }
          ],
          "text": "Suture open wound"
        },
        "reasonCode": [
          {
            "coding": [
              {
                "code": "283385000",
                "system": "http://snomed.info/sct",
                "display": "Laceration of thigh (disorder)"
              }
            ]
          }
        ],
        "status": "completed",
        "subject": {
          "reference": "Patient/58782f79-67d7-4cc3-ba4d-0dcdf96bed21",
          "display": "Ulpu Almila"
        },
        "performedDateTime": "2025-04-07"
      }
    },
    {
      "fullUrl": "urn:uuid:5498acce-ae85-4ed6-bbf6-ee1114cf664d",
      "resource": {
        "resourceType": "Immunization",
        "id": "5498acce-ae85-4ed6-bbf6-ee1114cf664d",
        "meta": {
          "profile": [
            "http://hl7.org/fhir/uv/ips/StructureDefinition/Immunization-uv-ips"
          ]
        },
        "vaccineCode": {
          "coding": [
            {
              "code": "1181000221105",
              "system": "http://snomed.info/sct",
              "display": "Vaccine product containing Influenza virus antigen"
            },
            {
              "code": "J07BB02",
              "system": "http://www.whocc.no/atc",
              "display": "Influenza, inactivated, split virus"
            },
            {
              "code": "140",
              "system": "http://hl7.org/fhir/sid/cvx",
              "display": "Influenza  seasonal  injectable  preservative free"
            }
          ],
          "text": "Influenza virus antigen only vaccine product"
        },
        "site": {
          "coding": [
            {
              "code": "73776007",
              "system": "http://snomed.info/sct",
              "display": "Structure of muscle of upper arm"
            }
          ],
          "text": "Structure of muscle of upper arm"
        },
        "route": {
          "coding": [
            {
              "code": "78421000",
              "system": "http://snomed.info/sct",
              "display": "Intramuscular route"
            }
          ],
          "text": "Intramuscular route"
        },
        "status": "completed",
        "patient": {
          "reference": "Patient/58782f79-67d7-4cc3-ba4d-0dcdf96bed21",
          "display": "Ulpu Almila"
        },
        "occurrenceDateTime": "2024-10-10",
        "lotNumber": "NO-AIFRfoC",
        "expirationDate": "2025-09-05"
      }
    },
    {
      "fullUrl": "urn:uuid:7e35dec5-4a10-46f4-a0e5-9fc227c452fa",
      "resource": {
        "resourceType": "Immunization",
        "id": "7e35dec5-4a10-46f4-a0e5-9fc227c452fa",
        "meta": {
          "profile": [
            "http://hl7.org/fhir/uv/ips/StructureDefinition/Immunization-uv-ips"
          ]
        },
        "vaccineCode": {
          "coding": [
            {
              "code": "1119349007",
              "system": "http://snomed.info/sct",
              "display": "Vaccine product containing SARS-CoV-2 mRNA"
            },
            {
              "code": "J07BX03",
              "system": "http://www.whocc.no/atc",
              "display": "COVID-19 mRNA vaccines"
            },
            {
              "code": "208",
              "system": "http://hl7.org/fhir/sid/cvx",
              "display": "COVID-19  mRNA  LNP-S  PF  30 mcg/0.3 mL dose"
            }
          ],
          "text": "SARS-CoV-2 mRNA vaccine"
        },
        "site": {
          "coding": [
            {
              "code": "73776007",
              "system": "http://snomed.info/sct",
              "display": "Structure of muscle of upper arm"
            }
          ],
          "text": "Structure of muscle of upper arm"
        },
        "route": {
          "coding": [
            {
              "code": "78421000",
              "system": "http://snomed.info/sct",
              "display": "Intramuscular route"
            }
          ],
          "text": "Intramuscular route"
        },
        "status": "completed",
        "patient": {
          "reference": "Patient/58782f79-67d7-4cc3-ba4d-0dcdf96bed21",
          "display": "Ulpu Almila"
        },
        "occurrenceDateTime": "2021-02-25",
        "lotNumber": "GR-VHad",
        "expirationDate": "2021-08-01"
      }
    },
    {
      "fullUrl": "urn:uuid:685441cf-c4ed-4e49-ad19-70feac985755",
      "resource": {
        "resourceType": "Immunization",
        "id": "685441cf-c4ed-4e49-ad19-70feac985755",
        "meta": {
          "profile": [
            "http://hl7.org/fhir/uv/ips/StructureDefinition/Immunization-uv-ips"
          ]
        },
        "vaccineCode": {
          "coding": [
            {
              "code": "777725002",
              "system": "http://snomed.info/sct",
              "display": "Vaccine product containing only Clostridium tetani toxoid antigen adsorbed"
            },
            {
              "code": "J07AM51",
              "system": "http://www.whocc.no/atc",
              "display": "Diphtheria-tetanus vaccines, adult type"
            },
            {
              "code": "113",
              "system": "http://hl7.org/fhir/sid/cvx",
              "display": "Td (adult)  5 Lf tetanus toxoid  preservative free  adsorbed"
            }
          ],
          "text": "Clostridium tetani toxoid antigen adsorbed only vaccine product"
        },
        "site": {
          "coding": [
            {
              "code": "73776007",
              "system": "http://snomed.info/sct",
              "display": "Structure of muscle of upper arm"
            }
          ],
          "text": "Structure of muscle of upper arm"
        },
        "route": {
          "coding": [
            {
              "code": "78421000",
              "system": "http://snomed.info/sct",
              "display": "Intramuscular route"
            }
          ],
          "text": "Intramuscular route"
        },
        "status": "completed",
        "patient": {
          "reference": "Patient/58782f79-67d7-4cc3-ba4d-0dcdf96bed21",
          "display": "Ulpu Almila"
        },
        "occurrenceDateTime": "2018-10-04",
        "lotNumber": "YE-fPmKtzEc",
        "expirationDate": "2019-02-19"
      }
    }
  ],
  "type": "document",
  "timestamp": "2025-06-16T17:28:57Z"
}
