{
  "resourceType": "Bundle",
  "id": "Instance-Bundle-5267a265-89db-4f11-9a9b-adbd462bd157",
  "meta": {
    "profile": [
      "http://hl7.eu/fhir/eps/StructureDefinition/bundle-eu-eps"
    ]
  },
  "identifier": {
    "assigner": {
      "display": "HL7 Europe"
    },
    "system": "urn:oid:2.16.840.1.113883.2.51.999",
    "value": "722c0930-ff7c-4941-b625-84239e60de30"
  },
  "entry": [
    {
      "fullUrl": "urn:uuid:778838fd-74d4-48f7-bbd5-ef71c1ba1dcc",
      "resource": {
        "resourceType": "Composition",
        "id": "778838fd-74d4-48f7-bbd5-ef71c1ba1dcc",
        "meta": {
          "profile": [
            "http://hl7.eu/fhir/eps/StructureDefinition/composition-eu-eps"
          ]
        },
        "identifier": {
          "assigner": {
            "display": "HL7 Europe"
          },
          "system": "urn:oid:2.16.840.1.113883.2.51.999",
          "value": "47c8e04f-dce2-4ea9-908e-489ecef8c84f"
        },
        "type": {
          "coding": [
            {
              "system": "http://loinc.org",
              "code": "60591-5",
              "display": "European Patient Summary"
            }
          ],
          "text": "European Patient Summary"
        },
        "author": [
          {
            "reference": "urn:uuid:7e6467ab-6322-4d6a-aeb4-5045448acc1d"
          }
        ],
        "section": [
          {
            "text": {
              "status": "generated",
              "div": "<div xmlns=\"http://www.w3.org/1999/xhtml\"><table class=\"hl7__ips\"><tr><td>No known problems or disabilities</td></tr></table></div>"
            },
            "entry": [
              {
                "reference": "urn:uuid:99412771-9eca-4a15-bf15-54f9ee9e08d1"
              }
            ],
            "code": {
              "coding": [
                {
                  "system": "http://loinc.org",
                  "code": "11450-4",
                  "display": "Problem list - Reported"
                }
              ]
            },
            "title": "Problem list"
          },
          {
            "text": {
              "status": "generated",
              "div": "<div xmlns=\"http://www.w3.org/1999/xhtml\"><table class=\"hl7__ips\"><tr><td>No known medications</td><td></td><td></td><td></td><td></td></tr></table></div>"
            },
            "entry": [
              {
                "reference": "urn:uuid:3b76bd62-9a51-4775-a403-4b99e9679aa1"
              },
              {
                "reference": "urn:uuid:3b76bd62-9a51-4775-a403-4b99e9679aa1"
              }
            ],
            "code": {
              "coding": [
                {
                  "system": "http://loinc.org",
                  "code": "10160-0",
                  "display": "History of Medication use Narrative"
                }
              ]
            },
            "title": "Medication list"
          },
          {
            "text": {
              "status": "generated",
              "div": "<div xmlns=\"http://www.w3.org/1999/xhtml\"><table class=\"hl7__ips\"><tr><td>No known allergies or intolerances</td></tr></table></div>"
            },
            "entry": [
              {
                "reference": "urn:uuid:44e59a67-370a-491f-b742-23d8707e25be"
              }
            ],
            "code": {
              "coding": [
                {
                  "system": "http://loinc.org",
                  "code": "48765-2",
                  "display": "Allergies and adverse reactions Document"
                }
              ]
            },
            "title": "Allergies and Intolerances"
          }
        ],
        "title": "European Patient Summary",
        "status": "final",
        "subject": {
          "reference": "urn:uuid:d29f79af-a520-4b30-976c-096572d97ea0"
        },
        "custodian": {
          "reference": "urn:uuid:87ff5086-21a8-4586-bafa-f2cf03d6007e"
        },
        "date": "2025-06-16T17:28:57Z",
        "confidentiality": "N"
      }
    },
    {
      "fullUrl": "urn:uuid:d29f79af-a520-4b30-976c-096572d97ea0",
      "resource": {
        "resourceType": "Patient",
        "id": "d29f79af-a520-4b30-976c-096572d97ea0",
        "meta": {
          "profile": [
            "http://hl7.eu/fhir/eps/StructureDefinition/patient-eu-eps"
          ]
        },
        "identifier": [
          {
            "type": {
              "coding": [
                {
                  "code": "NI",
                  "system": "http://terminology.hl7.org/CodeSystem/v2-0203"
                }
              ]
            },
            "system": "http://ec.europa.eu/identifier/eci",
            "value": "5839-919809-0"
          },
          {
            "type": {
              "coding": [
                {
                  "code": "MR",
                  "system": "http://terminology.hl7.org/CodeSystem/v2-0203"
                }
              ]
            },
            "system": "http://local.setting.eu/identifier",
            "value": ""
          }
        ],
        "name": [
          {
            "given": [
              "Andrej Ivan"
            ],
            "family": "Frančeškin",
            "text": "Andrej Ivan Frančeškin"
          }
        ],
        "address": [
          {
            "line": [
              "Trg revolucije 94"
            ],
            "use": "home",
            "type": "physical",
            "city": "Čatež ob Savi",
            "postalCode": "8251",
            "country": "Slovenia"
          }
        ],
        "telecom": [
          {
            "system": "phone",
            "value": "+386 070-510-102"
          }
        ],
        "gender": "male",
        "birthDate": "2002-05-16"
      }
    },
    {
      "fullUrl": "urn:uuid:7e6467ab-6322-4d6a-aeb4-5045448acc1d",
      "resource": {
        "resourceType": "PractitionerRole",
        "id": "7e6467ab-6322-4d6a-aeb4-5045448acc1d",
        "meta": {
          "profile": [
            "http://hl7.eu/fhir/base/StructureDefinition/practitionerRole-eu"
          ]
        },
        "practitioner": {
          "reference": "urn:uuid:a3c5f854-9c58-4ee4-a45c-3a2def40c9db"
        },
        "organization": {
          "reference": "urn:uuid:87ff5086-21a8-4586-bafa-f2cf03d6007e"
        }
      }
    },
    {
      "fullUrl": "urn:uuid:a3c5f854-9c58-4ee4-a45c-3a2def40c9db",
      "resource": {
        "resourceType": "Practitioner",
        "id": "a3c5f854-9c58-4ee4-a45c-3a2def40c9db",
        "meta": {
          "profile": [
            "http://hl7.eu/fhir/base/StructureDefinition/practitioner-eu"
          ]
        },
        "name": [
          {
            "prefix": [
              "Dr."
            ],
            "given": [
              "Hel"
            ],
            "family": "Ping"
          }
        ]
      }
    },
    {
      "fullUrl": "urn:uuid:99412771-9eca-4a15-bf15-54f9ee9e08d1",
      "resource": {
        "resourceType": "Condition",
        "id": "99412771-9eca-4a15-bf15-54f9ee9e08d1",
        "meta": {
          "profile": [
            "http://hl7.org/fhir/uv/ips/StructureDefinition/Condition-uv-ips"
          ]
        },
        "code": {
          "coding": [
            {
              "code": "160245001",
              "system": "http://snomed.info/sct",
              "display": "No current problems or disability (situation)"
            }
          ]
        },
        "subject": {
          "reference": "Patient/d29f79af-a520-4b30-976c-096572d97ea0",
          "display": "Andrej Ivan Frančeškin"
        },
        "_onsetDateTime": {
          "extension": [
            {
              "url": "http://hl7.org/fhir/StructureDefinition/data-absent-reason",
              "valueCode": "unknown"
            }
          ]
        }
      }
    },
    {
      "fullUrl": "urn:uuid:3b76bd62-9a51-4775-a403-4b99e9679aa1",
      "resource": {
        "resourceType": "MedicationStatement",
        "id": "3b76bd62-9a51-4775-a403-4b99e9679aa1",
        "meta": {
          "profile": [
            "http://hl7.org/fhir/uv/ips/StructureDefinition/MedicationStatement-uv-ips"
          ]
        },
        "effectivePeriod": {
          "extension": [
            {
              "url": "http://hl7.org/fhir/StructureDefinition/data-absent-reason",
              "valueCode": "unknown"
            }
          ]
        },
        "status": "active",
        "medicationCodeableConcept": {
          "coding": [
            {
              "code": "787481004",
              "system": "http://snomed.info/sct",
              "display": "No known medications (situation)"
            }
          ]
        },
        "subject": {
          "reference": "Patient/d29f79af-a520-4b30-976c-096572d97ea0",
          "display": "Andrej Ivan Frančeškin"
        }
      }
    },
    {
      "fullUrl": "urn:uuid:3b76bd62-9a51-4775-a403-4b99e9679aa1",
      "resource": {
        "resourceType": "MedicationStatement",
        "id": "3b76bd62-9a51-4775-a403-4b99e9679aa1",
        "meta": {
          "profile": [
            "http://hl7.org/fhir/uv/ips/StructureDefinition/MedicationStatement-uv-ips"
          ]
        },
        "effectivePeriod": {
          "extension": [
            {
              "url": "http://hl7.org/fhir/StructureDefinition/data-absent-reason",
              "valueCode": "unknown"
            }
          ]
        },
        "status": "active",
        "medicationCodeableConcept": {
          "coding": [
            {
              "code": "787481004",
              "system": "http://snomed.info/sct",
              "display": "No known medications (situation)"
            }
          ]
        },
        "subject": {
          "reference": "Patient/d29f79af-a520-4b30-976c-096572d97ea0",
          "display": "Andrej Ivan Frančeškin"
        }
      }
    },
    {
      "fullUrl": "urn:uuid:44e59a67-370a-491f-b742-23d8707e25be",
      "resource": {
        "resourceType": "AllergyIntolerance",
        "id": "44e59a67-370a-491f-b742-23d8707e25be",
        "meta": {
          "profile": [
            "http://hl7.eu/fhir/eps/StructureDefinition/allergyIntolerance-eu-eps"
          ]
        },
        "code": {
          "coding": [
            {
              "code": "716186003",
              "system": "http://snomed.info/sct",
              "display": "No known allergy (situation)"
            }
          ]
        },
        "patient": {
          "reference": "Patient/d29f79af-a520-4b30-976c-096572d97ea0",
          "display": "Andrej Ivan Frančeškin"
        },
        "_onsetDateTime": {
          "extension": [
            {
              "url": "http://hl7.org/fhir/StructureDefinition/data-absent-reason",
              "valueCode": "unknown"
            }
          ]
        }
      }
    }
  ],
  "type": "document",
  "timestamp": "2025-06-16T17:28:57Z"
}
