{
  "resourceType": "Bundle",
  "id": "Instance-Bundle-4afc3082-a40b-4379-8c3e-ec89c0f1c6a7",
  "meta": {
    "profile": [
      "http://hl7.eu/fhir/eps/StructureDefinition/bundle-eu-eps"
    ]
  },
  "identifier": {
    "assigner": {
      "display": "HL7 Europe"
    },
    "system": "urn:oid:2.16.840.1.113883.2.51.999",
    "value": "5a6ba94a-085f-42a1-9613-d4ebe70fb9fc"
  },
  "entry": [
    {
      "fullUrl": "urn:uuid:aab33dd7-e945-427f-ac69-9c8ccc442209",
      "resource": {
        "resourceType": "Composition",
        "id": "aab33dd7-e945-427f-ac69-9c8ccc442209",
        "meta": {
          "profile": [
            "http://hl7.eu/fhir/eps/StructureDefinition/composition-eu-eps"
          ]
        },
        "identifier": {
          "assigner": {
            "display": "HL7 Europe"
          },
          "system": "urn:oid:2.16.840.1.113883.2.51.999",
          "value": "742fd7d0-93ae-4780-8d56-043aca51fa82"
        },
        "type": {
          "coding": [
            {
              "system": "http://loinc.org",
              "code": "60591-5",
              "display": "European Patient Summary"
            }
          ],
          "text": "European Patient Summary"
        },
        "author": [
          {
            "reference": "urn:uuid:eb1c5379-5842-4639-ba3b-22e8359efdde"
          }
        ],
        "section": [
          {
            "text": {
              "status": "generated",
              "div": "<div xmlns=\"http://www.w3.org/1999/xhtml\"><table class=\"hl7__ips\"><tr><td>Chronic kidney disease stage 2</td><td>2008-02-26</td><td>active</td></tr><tr><td>Microalbuminuria due to type 2 diabetes mellitus</td><td>2008-02-26</td><td>active</td></tr><tr><td>Disorder of kidney due to diabetes mellitus</td><td>2002-04-02</td><td>active</td></tr><tr><td>Chronic kidney disease stage 1</td><td>2002-04-02</td><td>active</td></tr><tr><td>Essential hypertension</td><td>2001-03-27</td><td>active</td></tr><tr><td>Ischemic heart disease</td><td>1997-03-04</td><td>active</td></tr><tr><td>Hyperlipidemia</td><td>1989-03-14</td><td>active</td></tr><tr><td>Gingivitis</td><td>2025-04-01</td><td>inactive</td></tr><tr><td>Gingival disease</td><td>2025-03-18</td><td>inactive</td></tr><tr><td>Gingivitis</td><td>2025-03-04</td><td>inactive</td></tr><tr><td>Primary dental caries</td><td>2025-02-18</td><td>inactive</td></tr><tr><td>Gingivitis</td><td>2025-02-04</td><td>inactive</td></tr><tr><td>Acute bacterial sinusitis</td><td>2025-01-28</td><td>inactive</td></tr><tr><td>Gingival disease</td><td>2024-09-10</td><td>inactive</td></tr><tr><td>Gingivitis</td><td>2024-08-20</td><td>inactive</td></tr><tr><td>Gingivitis</td><td>2023-03-21</td><td>inactive</td></tr><tr><td>Acute viral pharyngitis</td><td>2023-03-14</td><td>inactive</td></tr><tr><td>Gingival disease</td><td>2023-03-07</td><td>inactive</td></tr><tr><td>Gingivitis</td><td>2023-02-07</td><td>inactive</td></tr><tr><td>Primary dental caries</td><td>2022-08-23</td><td>inactive</td></tr><tr><td>Acute infective cystitis</td><td>2022-07-19</td><td>inactive</td></tr><tr><td>Gingivitis</td><td>2021-08-03</td><td>inactive</td></tr><tr><td>Gingivitis</td><td>2019-08-13</td><td>inactive</td></tr><tr><td>Acute viral pharyngitis</td><td>2019-08-05</td><td>inactive</td></tr><tr><td>Gingivitis</td><td>2018-02-06</td><td>inactive</td></tr></table></div>"
            },
            "entry": [
              {
                "reference": "urn:uuid:46ffc99f-518d-4e09-99fe-adb913165a83"
              },
              {
                "reference": "urn:uuid:cf4fcf38-4f6f-4c9a-a6ac-bb7d499109e0"
              },
              {
                "reference": "urn:uuid:2b62fe4b-53b7-408e-ae62-9b6510f5d8c7"
              },
              {
                "reference": "urn:uuid:d6274cf4-3539-4084-9fe9-77fbf701a44a"
              },
              {
                "reference": "urn:uuid:3ce3f363-a69b-4b32-9ee5-f422264b3bea"
              },
              {
                "reference": "urn:uuid:7b81d1de-68e5-4b9a-b694-168d85a4524f"
              },
              {
                "reference": "urn:uuid:d3f62168-89b8-4e01-a25a-189559732466"
              },
              {
                "reference": "urn:uuid:83215e75-5fee-49fb-a299-a9b68c09dc0e"
              },
              {
                "reference": "urn:uuid:0370f086-270a-4678-be0d-db5586b1e277"
              },
              {
                "reference": "urn:uuid:7244cae9-b459-4efb-bd59-2a98d9a4c3c1"
              },
              {
                "reference": "urn:uuid:ca724a4a-9ead-4326-90b9-57c9aa85e28c"
              },
              {
                "reference": "urn:uuid:16788f82-08b6-4efc-8391-9c9ff6b04bea"
              },
              {
                "reference": "urn:uuid:16263213-4d34-4ad4-9832-51ad68179914"
              },
              {
                "reference": "urn:uuid:85513469-1cfc-453c-8f28-5a2a4fe40d1e"
              },
              {
                "reference": "urn:uuid:7a45a56a-b234-44b3-ae3e-9e7a6e407fd2"
              },
              {
                "reference": "urn:uuid:9c6f7b71-6a4c-48a3-a17d-7d4777be84ff"
              },
              {
                "reference": "urn:uuid:ff889eb2-a279-486a-923a-2de5b1c8a903"
              },
              {
                "reference": "urn:uuid:0704485b-311b-45f0-ae5d-c6fdb7274b6f"
              },
              {
                "reference": "urn:uuid:ee01bf19-a944-468f-82bc-629c6f40b8ee"
              },
              {
                "reference": "urn:uuid:6c09d7ad-a439-431b-84ba-edac3639b757"
              },
              {
                "reference": "urn:uuid:29c01908-8f62-45ec-be1f-d7a154c7e932"
              },
              {
                "reference": "urn:uuid:8e41ddc6-92f2-4246-b0f5-f2a6d401c03d"
              },
              {
                "reference": "urn:uuid:689deab1-34a1-4c3e-a702-8a2472b4ec95"
              },
              {
                "reference": "urn:uuid:6f61389b-4410-43b9-95a4-32b3195c1db7"
              },
              {
                "reference": "urn:uuid:db901548-3b33-4226-8041-e501fb85910c"
              }
            ],
            "code": {
              "coding": [
                {
                  "system": "http://loinc.org",
                  "code": "11450-4",
                  "display": "Problem list - Reported"
                }
              ]
            },
            "title": "Problem list"
          },
          {
            "text": {
              "status": "generated",
              "div": "<div xmlns=\"http://www.w3.org/1999/xhtml\"><table class=\"hl7__ips\"><tr><td>Hydrochlorothiazide 25 mg oral tablet</td><td>2025-04-01</td><td>Oral tablet</td><td>1 tablet (25 mg) by mouth once daily\"</td><td>Reason: Essential hypertension (disorder)</td></tr><tr><td>Simvastatin 10 mg oral tablet</td><td>2024-06-09</td><td>Oral tablet</td><td>1 tablet (10 mg) by mouth once daily\"</td><td>Reason: Hyperlipidemia (disorder)</td></tr><tr><td>Clopidogrel (as clopidogrel bisulfate) 75 mg oral tablet</td><td>1997-03-11</td><td>Oral tablet</td><td>1 tablet (75 mg) by mouth once daily\"</td><td></td></tr><tr><td>Simvastatin 20 mg oral tablet</td><td>1997-03-11</td><td>Oral tablet</td><td>1 tablet (20 mg) by mouth once daily\"</td><td></td></tr><tr><td>Nitroglycerin 400 microgram/actuation sublingual spray</td><td>1997-03-11</td><td>Sublingual spray</td><td>400 micrograms per spray, use one spray under the tongue as needed for chest pain, may repeat every 5 minutes as needed, up to 3 sprays in 15 minutes\"</td><td></td></tr><tr><td>Metoprolol tartrate (as metoprolol succinate) 100 mg prolonged-release oral tablet</td><td>1997-03-11</td><td>Prolonged-release oral tablet</td><td>1 tablet (100 mg) once daily\"</td><td></td></tr></table></div>"
            },
            "entry": [
              {
                "reference": "urn:uuid:a3e12542-ed18-4bef-b8a3-dc5a0f878962"
              },
              {
                "reference": "urn:uuid:9a745129-0b6a-49b8-a926-b739240ba194"
              },
              {
                "reference": "urn:uuid:3ef91157-a69e-40f1-a55f-201fb3f9bf1c"
              },
              {
                "reference": "urn:uuid:6471a526-f4ea-4b2b-b978-8b9612426fc7"
              },
              {
                "reference": "urn:uuid:d0eea47d-6936-49b8-b530-09b8eb94064a"
              },
              {
                "reference": "urn:uuid:7376211b-d20c-4fd5-80d4-59cec47313a5"
              }
            ],
            "code": {
              "coding": [
                {
                  "system": "http://loinc.org",
                  "code": "10160-0",
                  "display": "History of Medication use Narrative"
                }
              ]
            },
            "title": "Medication list"
          },
          {
            "text": {
              "status": "generated",
              "div": "<div xmlns=\"http://www.w3.org/1999/xhtml\"><table class=\"hl7__ips\"><tr><td>No known allergies or intolerances</td></tr></table></div>"
            },
            "entry": [
              {
                "reference": "urn:uuid:2b0b105d-8213-4f1e-9a63-3b9ebef47e14"
              }
            ],
            "code": {
              "coding": [
                {
                  "system": "http://loinc.org",
                  "code": "48765-2",
                  "display": "Allergies and adverse reactions Document"
                }
              ]
            },
            "title": "Allergies and Intolerances"
          },
          {
            "text": {
              "status": "generated",
              "div": "<div xmlns=\"http://www.w3.org/1999/xhtml\"><table class=\"hl7__ips\"><tr><td>Patient referral for dental care</td><td>2025-03-04</td><td>Gingivitis (disorder)</td></tr><tr><td>Depression screening</td><td>2025-03-04</td><td>-</td></tr><tr><td>Assessment of health and social care needs</td><td>2025-03-04</td><td>-</td></tr><tr><td>Assessment of anxiety</td><td>2025-02-04</td><td>-</td></tr><tr><td>Screening for drug abuse</td><td>2025-02-04</td><td>-</td></tr><tr><td>Assessment using Morse Fall Scale</td><td>2025-02-04</td><td>-</td></tr><tr><td>Assessment of substance use</td><td>2025-02-04</td><td>-</td></tr><tr><td>Screening for domestic abuse</td><td>2025-01-14</td><td>-</td></tr><tr><td>Medication reconciliation</td><td>2025-01-07</td><td>-</td></tr><tr><td>Assessment using AUDIT-C (Alcohol Use Disorders Identification Test - Consumption)</td><td>2023-03-21</td><td>-</td></tr><tr><td>Referral to home health care service</td><td>2019-04-23</td><td>-</td></tr></table></div>"
            },
            "entry": [
              {
                "reference": "urn:uuid:12b023e8-0eb7-4b0f-b609-86882f074c9d"
              },
              {
                "reference": "urn:uuid:c27a632c-c901-4053-8890-a74273a5b9aa"
              },
              {
                "reference": "urn:uuid:1cf31f61-6c94-4d2a-8fbc-61d17fdf9d05"
              },
              {
                "reference": "urn:uuid:e4fbb04e-cdc7-440a-984b-6f5484539a70"
              },
              {
                "reference": "urn:uuid:3755ab34-b521-4fef-9855-60b2e02cd434"
              },
              {
                "reference": "urn:uuid:cef24fd2-ffad-47b4-8a04-0106e8a24f6c"
              },
              {
                "reference": "urn:uuid:98b0fbb3-3714-4552-b0aa-8dc57de441fb"
              },
              {
                "reference": "urn:uuid:16825998-c230-4183-a0b7-a8213b9387d5"
              },
              {
                "reference": "urn:uuid:6eec4f2e-4c2d-45ff-b5a6-72f6ee78fde3"
              },
              {
                "reference": "urn:uuid:e858e4ed-81a9-42ba-9f14-7b38dcc782a3"
              },
              {
                "reference": "urn:uuid:9ae26bc2-188d-46e3-ae3a-f4eb28058039"
              }
            ],
            "code": {
              "coding": [
                {
                  "system": "http://loinc.org",
                  "code": "47519-4",
                  "display": "History of Procedures Document"
                }
              ]
            },
            "title": "Procedure History list"
          },
          {
            "text": {
              "status": "generated",
              "div": "<div xmlns=\"http://www.w3.org/1999/xhtml\"><table class=\"hl7__ips\"><tr><td>Influenza virus antigen only vaccine product</td><td>2024-12-03</td></tr><tr><td>SARS-CoV-2 mRNA vaccine</td><td>2021-03-02</td></tr><tr><td>Clostridium tetani toxoid antigen adsorbed only vaccine product</td><td>2018-07-17</td></tr></table></div>"
            },
            "entry": [
              {
                "reference": "urn:uuid:b4eb0b96-8f48-4f09-8446-9c95a6624ada"
              },
              {
                "reference": "urn:uuid:b60888c5-256a-4e52-af06-c764985e0e86"
              },
              {
                "reference": "urn:uuid:51ecc4ea-f191-4ff7-b85e-ec4454ed92e3"
              }
            ],
            "code": {
              "coding": [
                {
                  "system": "http://loinc.org",
                  "code": "11369-6",
                  "display": "History of Immunization Narrative"
                }
              ]
            },
            "title": "Immunizations list"
          }
        ],
        "title": "European Patient Summary",
        "status": "final",
        "subject": {
          "reference": "urn:uuid:4eae7e93-07f5-4961-be32-ca7491f09dab"
        },
        "custodian": {
          "reference": "urn:uuid:b1efd44e-d908-42ba-8676-37445df21d4e"
        },
        "date": "2025-06-16T17:28:57Z",
        "confidentiality": "N"
      }
    },
    {
      "fullUrl": "urn:uuid:4eae7e93-07f5-4961-be32-ca7491f09dab",
      "resource": {
        "resourceType": "Patient",
        "id": "4eae7e93-07f5-4961-be32-ca7491f09dab",
        "meta": {
          "profile": [
            "http://hl7.eu/fhir/eps/StructureDefinition/patient-eu-eps"
          ]
        },
        "identifier": [
          {
            "type": {
              "coding": [
                {
                  "code": "NI",
                  "system": "http://terminology.hl7.org/CodeSystem/v2-0203"
                }
              ]
            },
            "system": "http://ec.europa.eu/identifier/eci",
            "value": "2279-613165-8"
          },
          {
            "type": {
              "coding": [
                {
                  "code": "MR",
                  "system": "http://terminology.hl7.org/CodeSystem/v2-0203"
                }
              ]
            },
            "system": "http://local.setting.eu/identifier",
            "value": "272aefe4-efd6-46df-1410-ac58a638efa1"
          }
        ],
        "name": [
          {
            "given": [
              "Reijer"
            ],
            "family": "van Woerkom",
            "text": "Reijer van Woerkom"
          }
        ],
        "address": [
          {
            "line": [
              "Dorpsstraat 112"
            ],
            "use": "home",
            "type": "physical",
            "city": "Zevenhuizen",
            "postalCode": "2761 AN",
            "country": "Netherlands"
          }
        ],
        "telecom": [
          {
            "system": "phone",
            "value": "+31 06-10416101"
          }
        ],
        "gender": "male",
        "birthDate": "1941-12-26"
      }
    },
    {
      "fullUrl": "urn:uuid:eb1c5379-5842-4639-ba3b-22e8359efdde",
      "resource": {
        "resourceType": "PractitionerRole",
        "id": "eb1c5379-5842-4639-ba3b-22e8359efdde",
        "meta": {
          "profile": [
            "http://hl7.eu/fhir/base/StructureDefinition/practitionerRole-eu"
          ]
        },
        "practitioner": {
          "reference": "urn:uuid:4c2980f2-5f87-4cab-8fb9-5b002b9d53ff"
        },
        "organization": {
          "reference": "urn:uuid:b1efd44e-d908-42ba-8676-37445df21d4e"
        }
      }
    },
    {
      "fullUrl": "urn:uuid:4c2980f2-5f87-4cab-8fb9-5b002b9d53ff",
      "resource": {
        "resourceType": "Practitioner",
        "id": "4c2980f2-5f87-4cab-8fb9-5b002b9d53ff",
        "meta": {
          "profile": [
            "http://hl7.eu/fhir/base/StructureDefinition/practitioner-eu"
          ]
        },
        "name": [
          {
            "prefix": [
              "Dr."
            ],
            "given": [
              "Hel"
            ],
            "family": "Ping"
          }
        ]
      }
    },
    {
      "fullUrl": "urn:uuid:46ffc99f-518d-4e09-99fe-adb913165a83",
      "resource": {
        "resourceType": "Condition",
        "id": "46ffc99f-518d-4e09-99fe-adb913165a83",
        "meta": {
          "profile": [
            "http://hl7.org/fhir/uv/ips/StructureDefinition/Condition-uv-ips"
          ]
        },
        "category": [
          {
            "coding": [
              {
                "code": "problem-list-item",
                "system": "http://terminology.hl7.org/CodeSystem/condition-category",
                "display": "Problem List Item"
              }
            ]
          }
        ],
        "code": {
          "coding": [
            {
              "code": "431856006",
              "system": "http://snomed.info/sct",
              "display": "Chronic kidney disease stage 2 (disorder)"
            }
          ],
          "text": "Chronic kidney disease stage 2"
        },
        "onsetDateTime": "2008-02-26",
        "clinicalStatus": {
          "coding": [
            {
              "code": "active",
              "system": "http://terminology.hl7.org/CodeSystem/condition-clinical"
            }
          ]
        },
        "subject": {
          "reference": "Patient/4eae7e93-07f5-4961-be32-ca7491f09dab",
          "display": "Reijer van Woerkom"
        },
        "asserter": {
          "reference": "Practitioner/4c2980f2-5f87-4cab-8fb9-5b002b9d53ff",
          "display": "Dr. Hel Ping"
        }
      }
    },
    {
      "fullUrl": "urn:uuid:cf4fcf38-4f6f-4c9a-a6ac-bb7d499109e0",
      "resource": {
        "resourceType": "Condition",
        "id": "cf4fcf38-4f6f-4c9a-a6ac-bb7d499109e0",
        "meta": {
          "profile": [
            "http://hl7.org/fhir/uv/ips/StructureDefinition/Condition-uv-ips"
          ]
        },
        "category": [
          {
            "coding": [
              {
                "code": "problem-list-item",
                "system": "http://terminology.hl7.org/CodeSystem/condition-category",
                "display": "Problem List Item"
              }
            ]
          }
        ],
        "code": {
          "coding": [
            {
              "code": "90781000119102",
              "system": "http://snomed.info/sct",
              "display": "Microalbuminuria due to type 2 diabetes mellitus (disorder)"
            }
          ],
          "text": "Microalbuminuria due to type 2 diabetes mellitus"
        },
        "onsetDateTime": "2008-02-26",
        "clinicalStatus": {
          "coding": [
            {
              "code": "active",
              "system": "http://terminology.hl7.org/CodeSystem/condition-clinical"
            }
          ]
        },
        "subject": {
          "reference": "Patient/4eae7e93-07f5-4961-be32-ca7491f09dab",
          "display": "Reijer van Woerkom"
        },
        "asserter": {
          "reference": "Practitioner/4c2980f2-5f87-4cab-8fb9-5b002b9d53ff",
          "display": "Dr. Hel Ping"
        }
      }
    },
    {
      "fullUrl": "urn:uuid:2b62fe4b-53b7-408e-ae62-9b6510f5d8c7",
      "resource": {
        "resourceType": "Condition",
        "id": "2b62fe4b-53b7-408e-ae62-9b6510f5d8c7",
        "meta": {
          "profile": [
            "http://hl7.org/fhir/uv/ips/StructureDefinition/Condition-uv-ips"
          ]
        },
        "category": [
          {
            "coding": [
              {
                "code": "problem-list-item",
                "system": "http://terminology.hl7.org/CodeSystem/condition-category",
                "display": "Problem List Item"
              }
            ]
          }
        ],
        "code": {
          "coding": [
            {
              "code": "127013003",
              "system": "http://snomed.info/sct",
              "display": "Disorder of kidney due to diabetes mellitus (disorder)"
            }
          ],
          "text": "Disorder of kidney due to diabetes mellitus"
        },
        "onsetDateTime": "2002-04-02",
        "clinicalStatus": {
          "coding": [
            {
              "code": "active",
              "system": "http://terminology.hl7.org/CodeSystem/condition-clinical"
            }
          ]
        },
        "subject": {
          "reference": "Patient/4eae7e93-07f5-4961-be32-ca7491f09dab",
          "display": "Reijer van Woerkom"
        },
        "asserter": {
          "reference": "Practitioner/4c2980f2-5f87-4cab-8fb9-5b002b9d53ff",
          "display": "Dr. Hel Ping"
        }
      }
    },
    {
      "fullUrl": "urn:uuid:d6274cf4-3539-4084-9fe9-77fbf701a44a",
      "resource": {
        "resourceType": "Condition",
        "id": "d6274cf4-3539-4084-9fe9-77fbf701a44a",
        "meta": {
          "profile": [
            "http://hl7.org/fhir/uv/ips/StructureDefinition/Condition-uv-ips"
          ]
        },
        "category": [
          {
            "coding": [
              {
                "code": "problem-list-item",
                "system": "http://terminology.hl7.org/CodeSystem/condition-category",
                "display": "Problem List Item"
              }
            ]
          }
        ],
        "code": {
          "coding": [
            {
              "code": "431855005",
              "system": "http://snomed.info/sct",
              "display": "Chronic kidney disease stage 1 (disorder)"
            }
          ],
          "text": "Chronic kidney disease stage 1"
        },
        "onsetDateTime": "2002-04-02",
        "clinicalStatus": {
          "coding": [
            {
              "code": "active",
              "system": "http://terminology.hl7.org/CodeSystem/condition-clinical"
            }
          ]
        },
        "subject": {
          "reference": "Patient/4eae7e93-07f5-4961-be32-ca7491f09dab",
          "display": "Reijer van Woerkom"
        },
        "asserter": {
          "reference": "Practitioner/4c2980f2-5f87-4cab-8fb9-5b002b9d53ff",
          "display": "Dr. Hel Ping"
        }
      }
    },
    {
      "fullUrl": "urn:uuid:3ce3f363-a69b-4b32-9ee5-f422264b3bea",
      "resource": {
        "resourceType": "Condition",
        "id": "3ce3f363-a69b-4b32-9ee5-f422264b3bea",
        "meta": {
          "profile": [
            "http://hl7.org/fhir/uv/ips/StructureDefinition/Condition-uv-ips"
          ]
        },
        "category": [
          {
            "coding": [
              {
                "code": "problem-list-item",
                "system": "http://terminology.hl7.org/CodeSystem/condition-category",
                "display": "Problem List Item"
              }
            ]
          }
        ],
        "code": {
          "coding": [
            {
              "code": "59621000",
              "system": "http://snomed.info/sct",
              "display": "Essential hypertension (disorder)"
            }
          ],
          "text": "Essential hypertension"
        },
        "onsetDateTime": "2001-03-27",
        "clinicalStatus": {
          "coding": [
            {
              "code": "active",
              "system": "http://terminology.hl7.org/CodeSystem/condition-clinical"
            }
          ]
        },
        "subject": {
          "reference": "Patient/4eae7e93-07f5-4961-be32-ca7491f09dab",
          "display": "Reijer van Woerkom"
        },
        "asserter": {
          "reference": "Practitioner/4c2980f2-5f87-4cab-8fb9-5b002b9d53ff",
          "display": "Dr. Hel Ping"
        }
      }
    },
    {
      "fullUrl": "urn:uuid:7b81d1de-68e5-4b9a-b694-168d85a4524f",
      "resource": {
        "resourceType": "Condition",
        "id": "7b81d1de-68e5-4b9a-b694-168d85a4524f",
        "meta": {
          "profile": [
            "http://hl7.org/fhir/uv/ips/StructureDefinition/Condition-uv-ips"
          ]
        },
        "category": [
          {
            "coding": [
              {
                "code": "problem-list-item",
                "system": "http://terminology.hl7.org/CodeSystem/condition-category",
                "display": "Problem List Item"
              }
            ]
          }
        ],
        "code": {
          "coding": [
            {
              "code": "414545008",
              "system": "http://snomed.info/sct",
              "display": "Ischemic heart disease (disorder)"
            }
          ],
          "text": "Ischemic heart disease"
        },
        "onsetDateTime": "1997-03-04",
        "clinicalStatus": {
          "coding": [
            {
              "code": "active",
              "system": "http://terminology.hl7.org/CodeSystem/condition-clinical"
            }
          ]
        },
        "subject": {
          "reference": "Patient/4eae7e93-07f5-4961-be32-ca7491f09dab",
          "display": "Reijer van Woerkom"
        },
        "asserter": {
          "reference": "Practitioner/4c2980f2-5f87-4cab-8fb9-5b002b9d53ff",
          "display": "Dr. Hel Ping"
        }
      }
    },
    {
      "fullUrl": "urn:uuid:d3f62168-89b8-4e01-a25a-189559732466",
      "resource": {
        "resourceType": "Condition",
        "id": "d3f62168-89b8-4e01-a25a-189559732466",
        "meta": {
          "profile": [
            "http://hl7.org/fhir/uv/ips/StructureDefinition/Condition-uv-ips"
          ]
        },
        "category": [
          {
            "coding": [
              {
                "code": "problem-list-item",
                "system": "http://terminology.hl7.org/CodeSystem/condition-category",
                "display": "Problem List Item"
              }
            ]
          }
        ],
        "code": {
          "coding": [
            {
              "code": "55822004",
              "system": "http://snomed.info/sct",
              "display": "Hyperlipidemia (disorder)"
            }
          ],
          "text": "Hyperlipidemia"
        },
        "onsetDateTime": "1989-03-14",
        "clinicalStatus": {
          "coding": [
            {
              "code": "active",
              "system": "http://terminology.hl7.org/CodeSystem/condition-clinical"
            }
          ]
        },
        "subject": {
          "reference": "Patient/4eae7e93-07f5-4961-be32-ca7491f09dab",
          "display": "Reijer van Woerkom"
        },
        "asserter": {
          "reference": "Practitioner/4c2980f2-5f87-4cab-8fb9-5b002b9d53ff",
          "display": "Dr. Hel Ping"
        }
      }
    },
    {
      "fullUrl": "urn:uuid:83215e75-5fee-49fb-a299-a9b68c09dc0e",
      "resource": {
        "resourceType": "Condition",
        "id": "83215e75-5fee-49fb-a299-a9b68c09dc0e",
        "meta": {
          "profile": [
            "http://hl7.org/fhir/uv/ips/StructureDefinition/Condition-uv-ips"
          ]
        },
        "category": [
          {
            "coding": [
              {
                "code": "problem-list-item",
                "system": "http://terminology.hl7.org/CodeSystem/condition-category",
                "display": "Problem List Item"
              }
            ]
          }
        ],
        "code": {
          "coding": [
            {
              "code": "66383009",
              "system": "http://snomed.info/sct",
              "display": "Gingivitis (disorder)"
            }
          ],
          "text": "Gingivitis"
        },
        "onsetDateTime": "2025-04-01",
        "clinicalStatus": {
          "coding": [
            {
              "code": "inactive",
              "system": "http://terminology.hl7.org/CodeSystem/condition-clinical"
            }
          ]
        },
        "subject": {
          "reference": "Patient/4eae7e93-07f5-4961-be32-ca7491f09dab",
          "display": "Reijer van Woerkom"
        },
        "asserter": {
          "reference": "Practitioner/4c2980f2-5f87-4cab-8fb9-5b002b9d53ff",
          "display": "Dr. Hel Ping"
        }
      }
    },
    {
      "fullUrl": "urn:uuid:0370f086-270a-4678-be0d-db5586b1e277",
      "resource": {
        "resourceType": "Condition",
        "id": "0370f086-270a-4678-be0d-db5586b1e277",
        "meta": {
          "profile": [
            "http://hl7.org/fhir/uv/ips/StructureDefinition/Condition-uv-ips"
          ]
        },
        "category": [
          {
            "coding": [
              {
                "code": "problem-list-item",
                "system": "http://terminology.hl7.org/CodeSystem/condition-category",
                "display": "Problem List Item"
              }
            ]
          }
        ],
        "code": {
          "coding": [
            {
              "code": "18718003",
              "system": "http://snomed.info/sct",
              "display": "Gingival disease (disorder)"
            }
          ],
          "text": "Gingival disease"
        },
        "onsetDateTime": "2025-03-18",
        "clinicalStatus": {
          "coding": [
            {
              "code": "inactive",
              "system": "http://terminology.hl7.org/CodeSystem/condition-clinical"
            }
          ]
        },
        "subject": {
          "reference": "Patient/4eae7e93-07f5-4961-be32-ca7491f09dab",
          "display": "Reijer van Woerkom"
        },
        "asserter": {
          "reference": "Practitioner/4c2980f2-5f87-4cab-8fb9-5b002b9d53ff",
          "display": "Dr. Hel Ping"
        }
      }
    },
    {
      "fullUrl": "urn:uuid:7244cae9-b459-4efb-bd59-2a98d9a4c3c1",
      "resource": {
        "resourceType": "Condition",
        "id": "7244cae9-b459-4efb-bd59-2a98d9a4c3c1",
        "meta": {
          "profile": [
            "http://hl7.org/fhir/uv/ips/StructureDefinition/Condition-uv-ips"
          ]
        },
        "category": [
          {
            "coding": [
              {
                "code": "problem-list-item",
                "system": "http://terminology.hl7.org/CodeSystem/condition-category",
                "display": "Problem List Item"
              }
            ]
          }
        ],
        "code": {
          "coding": [
            {
              "code": "66383009",
              "system": "http://snomed.info/sct",
              "display": "Gingivitis (disorder)"
            }
          ],
          "text": "Gingivitis"
        },
        "onsetDateTime": "2025-03-04",
        "clinicalStatus": {
          "coding": [
            {
              "code": "inactive",
              "system": "http://terminology.hl7.org/CodeSystem/condition-clinical"
            }
          ]
        },
        "subject": {
          "reference": "Patient/4eae7e93-07f5-4961-be32-ca7491f09dab",
          "display": "Reijer van Woerkom"
        },
        "asserter": {
          "reference": "Practitioner/4c2980f2-5f87-4cab-8fb9-5b002b9d53ff",
          "display": "Dr. Hel Ping"
        }
      }
    },
    {
      "fullUrl": "urn:uuid:ca724a4a-9ead-4326-90b9-57c9aa85e28c",
      "resource": {
        "resourceType": "Condition",
        "id": "ca724a4a-9ead-4326-90b9-57c9aa85e28c",
        "meta": {
          "profile": [
            "http://hl7.org/fhir/uv/ips/StructureDefinition/Condition-uv-ips"
          ]
        },
        "category": [
          {
            "coding": [
              {
                "code": "problem-list-item",
                "system": "http://terminology.hl7.org/CodeSystem/condition-category",
                "display": "Problem List Item"
              }
            ]
          }
        ],
        "code": {
          "coding": [
            {
              "code": "109570002",
              "system": "http://snomed.info/sct",
              "display": "Primary dental caries (disorder)"
            }
          ],
          "text": "Primary dental caries"
        },
        "onsetDateTime": "2025-02-18",
        "clinicalStatus": {
          "coding": [
            {
              "code": "inactive",
              "system": "http://terminology.hl7.org/CodeSystem/condition-clinical"
            }
          ]
        },
        "subject": {
          "reference": "Patient/4eae7e93-07f5-4961-be32-ca7491f09dab",
          "display": "Reijer van Woerkom"
        },
        "asserter": {
          "reference": "Practitioner/4c2980f2-5f87-4cab-8fb9-5b002b9d53ff",
          "display": "Dr. Hel Ping"
        }
      }
    },
    {
      "fullUrl": "urn:uuid:16788f82-08b6-4efc-8391-9c9ff6b04bea",
      "resource": {
        "resourceType": "Condition",
        "id": "16788f82-08b6-4efc-8391-9c9ff6b04bea",
        "meta": {
          "profile": [
            "http://hl7.org/fhir/uv/ips/StructureDefinition/Condition-uv-ips"
          ]
        },
        "category": [
          {
            "coding": [
              {
                "code": "problem-list-item",
                "system": "http://terminology.hl7.org/CodeSystem/condition-category",
                "display": "Problem List Item"
              }
            ]
          }
        ],
        "code": {
          "coding": [
            {
              "code": "66383009",
              "system": "http://snomed.info/sct",
              "display": "Gingivitis (disorder)"
            }
          ],
          "text": "Gingivitis"
        },
        "onsetDateTime": "2025-02-04",
        "clinicalStatus": {
          "coding": [
            {
              "code": "inactive",
              "system": "http://terminology.hl7.org/CodeSystem/condition-clinical"
            }
          ]
        },
        "subject": {
          "reference": "Patient/4eae7e93-07f5-4961-be32-ca7491f09dab",
          "display": "Reijer van Woerkom"
        },
        "asserter": {
          "reference": "Practitioner/4c2980f2-5f87-4cab-8fb9-5b002b9d53ff",
          "display": "Dr. Hel Ping"
        }
      }
    },
    {
      "fullUrl": "urn:uuid:16263213-4d34-4ad4-9832-51ad68179914",
      "resource": {
        "resourceType": "Condition",
        "id": "16263213-4d34-4ad4-9832-51ad68179914",
        "meta": {
          "profile": [
            "http://hl7.org/fhir/uv/ips/StructureDefinition/Condition-uv-ips"
          ]
        },
        "category": [
          {
            "coding": [
              {
                "code": "problem-list-item",
                "system": "http://terminology.hl7.org/CodeSystem/condition-category",
                "display": "Problem List Item"
              }
            ]
          }
        ],
        "code": {
          "coding": [
            {
              "code": "75498004",
              "system": "http://snomed.info/sct",
              "display": "Acute bacterial sinusitis (disorder)"
            }
          ],
          "text": "Acute bacterial sinusitis"
        },
        "onsetDateTime": "2025-01-28",
        "clinicalStatus": {
          "coding": [
            {
              "code": "inactive",
              "system": "http://terminology.hl7.org/CodeSystem/condition-clinical"
            }
          ]
        },
        "subject": {
          "reference": "Patient/4eae7e93-07f5-4961-be32-ca7491f09dab",
          "display": "Reijer van Woerkom"
        },
        "asserter": {
          "reference": "Practitioner/4c2980f2-5f87-4cab-8fb9-5b002b9d53ff",
          "display": "Dr. Hel Ping"
        }
      }
    },
    {
      "fullUrl": "urn:uuid:85513469-1cfc-453c-8f28-5a2a4fe40d1e",
      "resource": {
        "resourceType": "Condition",
        "id": "85513469-1cfc-453c-8f28-5a2a4fe40d1e",
        "meta": {
          "profile": [
            "http://hl7.org/fhir/uv/ips/StructureDefinition/Condition-uv-ips"
          ]
        },
        "category": [
          {
            "coding": [
              {
                "code": "problem-list-item",
                "system": "http://terminology.hl7.org/CodeSystem/condition-category",
                "display": "Problem List Item"
              }
            ]
          }
        ],
        "code": {
          "coding": [
            {
              "code": "18718003",
              "system": "http://snomed.info/sct",
              "display": "Gingival disease (disorder)"
            }
          ],
          "text": "Gingival disease"
        },
        "onsetDateTime": "2024-09-10",
        "clinicalStatus": {
          "coding": [
            {
              "code": "inactive",
              "system": "http://terminology.hl7.org/CodeSystem/condition-clinical"
            }
          ]
        },
        "subject": {
          "reference": "Patient/4eae7e93-07f5-4961-be32-ca7491f09dab",
          "display": "Reijer van Woerkom"
        },
        "asserter": {
          "reference": "Practitioner/4c2980f2-5f87-4cab-8fb9-5b002b9d53ff",
          "display": "Dr. Hel Ping"
        }
      }
    },
    {
      "fullUrl": "urn:uuid:7a45a56a-b234-44b3-ae3e-9e7a6e407fd2",
      "resource": {
        "resourceType": "Condition",
        "id": "7a45a56a-b234-44b3-ae3e-9e7a6e407fd2",
        "meta": {
          "profile": [
            "http://hl7.org/fhir/uv/ips/StructureDefinition/Condition-uv-ips"
          ]
        },
        "category": [
          {
            "coding": [
              {
                "code": "problem-list-item",
                "system": "http://terminology.hl7.org/CodeSystem/condition-category",
                "display": "Problem List Item"
              }
            ]
          }
        ],
        "code": {
          "coding": [
            {
              "code": "66383009",
              "system": "http://snomed.info/sct",
              "display": "Gingivitis (disorder)"
            }
          ],
          "text": "Gingivitis"
        },
        "onsetDateTime": "2024-08-20",
        "clinicalStatus": {
          "coding": [
            {
              "code": "inactive",
              "system": "http://terminology.hl7.org/CodeSystem/condition-clinical"
            }
          ]
        },
        "subject": {
          "reference": "Patient/4eae7e93-07f5-4961-be32-ca7491f09dab",
          "display": "Reijer van Woerkom"
        },
        "asserter": {
          "reference": "Practitioner/4c2980f2-5f87-4cab-8fb9-5b002b9d53ff",
          "display": "Dr. Hel Ping"
        }
      }
    },
    {
      "fullUrl": "urn:uuid:9c6f7b71-6a4c-48a3-a17d-7d4777be84ff",
      "resource": {
        "resourceType": "Condition",
        "id": "9c6f7b71-6a4c-48a3-a17d-7d4777be84ff",
        "meta": {
          "profile": [
            "http://hl7.org/fhir/uv/ips/StructureDefinition/Condition-uv-ips"
          ]
        },
        "category": [
          {
            "coding": [
              {
                "code": "problem-list-item",
                "system": "http://terminology.hl7.org/CodeSystem/condition-category",
                "display": "Problem List Item"
              }
            ]
          }
        ],
        "code": {
          "coding": [
            {
              "code": "66383009",
              "system": "http://snomed.info/sct",
              "display": "Gingivitis (disorder)"
            }
          ],
          "text": "Gingivitis"
        },
        "onsetDateTime": "2023-03-21",
        "clinicalStatus": {
          "coding": [
            {
              "code": "inactive",
              "system": "http://terminology.hl7.org/CodeSystem/condition-clinical"
            }
          ]
        },
        "subject": {
          "reference": "Patient/4eae7e93-07f5-4961-be32-ca7491f09dab",
          "display": "Reijer van Woerkom"
        },
        "asserter": {
          "reference": "Practitioner/4c2980f2-5f87-4cab-8fb9-5b002b9d53ff",
          "display": "Dr. Hel Ping"
        }
      }
    },
    {
      "fullUrl": "urn:uuid:ff889eb2-a279-486a-923a-2de5b1c8a903",
      "resource": {
        "resourceType": "Condition",
        "id": "ff889eb2-a279-486a-923a-2de5b1c8a903",
        "meta": {
          "profile": [
            "http://hl7.org/fhir/uv/ips/StructureDefinition/Condition-uv-ips"
          ]
        },
        "category": [
          {
            "coding": [
              {
                "code": "problem-list-item",
                "system": "http://terminology.hl7.org/CodeSystem/condition-category",
                "display": "Problem List Item"
              }
            ]
          }
        ],
        "code": {
          "coding": [
            {
              "code": "195662009",
              "system": "http://snomed.info/sct",
              "display": "Acute viral pharyngitis (disorder)"
            }
          ],
          "text": "Acute viral pharyngitis"
        },
        "onsetDateTime": "2023-03-14",
        "clinicalStatus": {
          "coding": [
            {
              "code": "inactive",
              "system": "http://terminology.hl7.org/CodeSystem/condition-clinical"
            }
          ]
        },
        "subject": {
          "reference": "Patient/4eae7e93-07f5-4961-be32-ca7491f09dab",
          "display": "Reijer van Woerkom"
        },
        "asserter": {
          "reference": "Practitioner/4c2980f2-5f87-4cab-8fb9-5b002b9d53ff",
          "display": "Dr. Hel Ping"
        }
      }
    },
    {
      "fullUrl": "urn:uuid:0704485b-311b-45f0-ae5d-c6fdb7274b6f",
      "resource": {
        "resourceType": "Condition",
        "id": "0704485b-311b-45f0-ae5d-c6fdb7274b6f",
        "meta": {
          "profile": [
            "http://hl7.org/fhir/uv/ips/StructureDefinition/Condition-uv-ips"
          ]
        },
        "category": [
          {
            "coding": [
              {
                "code": "problem-list-item",
                "system": "http://terminology.hl7.org/CodeSystem/condition-category",
                "display": "Problem List Item"
              }
            ]
          }
        ],
        "code": {
          "coding": [
            {
              "code": "18718003",
              "system": "http://snomed.info/sct",
              "display": "Gingival disease (disorder)"
            }
          ],
          "text": "Gingival disease"
        },
        "onsetDateTime": "2023-03-07",
        "clinicalStatus": {
          "coding": [
            {
              "code": "inactive",
              "system": "http://terminology.hl7.org/CodeSystem/condition-clinical"
            }
          ]
        },
        "subject": {
          "reference": "Patient/4eae7e93-07f5-4961-be32-ca7491f09dab",
          "display": "Reijer van Woerkom"
        },
        "asserter": {
          "reference": "Practitioner/4c2980f2-5f87-4cab-8fb9-5b002b9d53ff",
          "display": "Dr. Hel Ping"
        }
      }
    },
    {
      "fullUrl": "urn:uuid:ee01bf19-a944-468f-82bc-629c6f40b8ee",
      "resource": {
        "resourceType": "Condition",
        "id": "ee01bf19-a944-468f-82bc-629c6f40b8ee",
        "meta": {
          "profile": [
            "http://hl7.org/fhir/uv/ips/StructureDefinition/Condition-uv-ips"
          ]
        },
        "category": [
          {
            "coding": [
              {
                "code": "problem-list-item",
                "system": "http://terminology.hl7.org/CodeSystem/condition-category",
                "display": "Problem List Item"
              }
            ]
          }
        ],
        "code": {
          "coding": [
            {
              "code": "66383009",
              "system": "http://snomed.info/sct",
              "display": "Gingivitis (disorder)"
            }
          ],
          "text": "Gingivitis"
        },
        "onsetDateTime": "2023-02-07",
        "clinicalStatus": {
          "coding": [
            {
              "code": "inactive",
              "system": "http://terminology.hl7.org/CodeSystem/condition-clinical"
            }
          ]
        },
        "subject": {
          "reference": "Patient/4eae7e93-07f5-4961-be32-ca7491f09dab",
          "display": "Reijer van Woerkom"
        },
        "asserter": {
          "reference": "Practitioner/4c2980f2-5f87-4cab-8fb9-5b002b9d53ff",
          "display": "Dr. Hel Ping"
        }
      }
    },
    {
      "fullUrl": "urn:uuid:6c09d7ad-a439-431b-84ba-edac3639b757",
      "resource": {
        "resourceType": "Condition",
        "id": "6c09d7ad-a439-431b-84ba-edac3639b757",
        "meta": {
          "profile": [
            "http://hl7.org/fhir/uv/ips/StructureDefinition/Condition-uv-ips"
          ]
        },
        "category": [
          {
            "coding": [
              {
                "code": "problem-list-item",
                "system": "http://terminology.hl7.org/CodeSystem/condition-category",
                "display": "Problem List Item"
              }
            ]
          }
        ],
        "code": {
          "coding": [
            {
              "code": "109570002",
              "system": "http://snomed.info/sct",
              "display": "Primary dental caries (disorder)"
            }
          ],
          "text": "Primary dental caries"
        },
        "onsetDateTime": "2022-08-23",
        "clinicalStatus": {
          "coding": [
            {
              "code": "inactive",
              "system": "http://terminology.hl7.org/CodeSystem/condition-clinical"
            }
          ]
        },
        "subject": {
          "reference": "Patient/4eae7e93-07f5-4961-be32-ca7491f09dab",
          "display": "Reijer van Woerkom"
        },
        "asserter": {
          "reference": "Practitioner/4c2980f2-5f87-4cab-8fb9-5b002b9d53ff",
          "display": "Dr. Hel Ping"
        }
      }
    },
    {
      "fullUrl": "urn:uuid:29c01908-8f62-45ec-be1f-d7a154c7e932",
      "resource": {
        "resourceType": "Condition",
        "id": "29c01908-8f62-45ec-be1f-d7a154c7e932",
        "meta": {
          "profile": [
            "http://hl7.org/fhir/uv/ips/StructureDefinition/Condition-uv-ips"
          ]
        },
        "category": [
          {
            "coding": [
              {
                "code": "problem-list-item",
                "system": "http://terminology.hl7.org/CodeSystem/condition-category",
                "display": "Problem List Item"
              }
            ]
          }
        ],
        "code": {
          "coding": [
            {
              "code": "307426000",
              "system": "http://snomed.info/sct",
              "display": "Acute infective cystitis (disorder)"
            }
          ],
          "text": "Acute infective cystitis"
        },
        "onsetDateTime": "2022-07-19",
        "clinicalStatus": {
          "coding": [
            {
              "code": "inactive",
              "system": "http://terminology.hl7.org/CodeSystem/condition-clinical"
            }
          ]
        },
        "subject": {
          "reference": "Patient/4eae7e93-07f5-4961-be32-ca7491f09dab",
          "display": "Reijer van Woerkom"
        },
        "asserter": {
          "reference": "Practitioner/4c2980f2-5f87-4cab-8fb9-5b002b9d53ff",
          "display": "Dr. Hel Ping"
        }
      }
    },
    {
      "fullUrl": "urn:uuid:8e41ddc6-92f2-4246-b0f5-f2a6d401c03d",
      "resource": {
        "resourceType": "Condition",
        "id": "8e41ddc6-92f2-4246-b0f5-f2a6d401c03d",
        "meta": {
          "profile": [
            "http://hl7.org/fhir/uv/ips/StructureDefinition/Condition-uv-ips"
          ]
        },
        "category": [
          {
            "coding": [
              {
                "code": "problem-list-item",
                "system": "http://terminology.hl7.org/CodeSystem/condition-category",
                "display": "Problem List Item"
              }
            ]
          }
        ],
        "code": {
          "coding": [
            {
              "code": "66383009",
              "system": "http://snomed.info/sct",
              "display": "Gingivitis (disorder)"
            }
          ],
          "text": "Gingivitis"
        },
        "onsetDateTime": "2021-08-03",
        "clinicalStatus": {
          "coding": [
            {
              "code": "inactive",
              "system": "http://terminology.hl7.org/CodeSystem/condition-clinical"
            }
          ]
        },
        "subject": {
          "reference": "Patient/4eae7e93-07f5-4961-be32-ca7491f09dab",
          "display": "Reijer van Woerkom"
        },
        "asserter": {
          "reference": "Practitioner/4c2980f2-5f87-4cab-8fb9-5b002b9d53ff",
          "display": "Dr. Hel Ping"
        }
      }
    },
    {
      "fullUrl": "urn:uuid:689deab1-34a1-4c3e-a702-8a2472b4ec95",
      "resource": {
        "resourceType": "Condition",
        "id": "689deab1-34a1-4c3e-a702-8a2472b4ec95",
        "meta": {
          "profile": [
            "http://hl7.org/fhir/uv/ips/StructureDefinition/Condition-uv-ips"
          ]
        },
        "category": [
          {
            "coding": [
              {
                "code": "problem-list-item",
                "system": "http://terminology.hl7.org/CodeSystem/condition-category",
                "display": "Problem List Item"
              }
            ]
          }
        ],
        "code": {
          "coding": [
            {
              "code": "66383009",
              "system": "http://snomed.info/sct",
              "display": "Gingivitis (disorder)"
            }
          ],
          "text": "Gingivitis"
        },
        "onsetDateTime": "2019-08-13",
        "clinicalStatus": {
          "coding": [
            {
              "code": "inactive",
              "system": "http://terminology.hl7.org/CodeSystem/condition-clinical"
            }
          ]
        },
        "subject": {
          "reference": "Patient/4eae7e93-07f5-4961-be32-ca7491f09dab",
          "display": "Reijer van Woerkom"
        },
        "asserter": {
          "reference": "Practitioner/4c2980f2-5f87-4cab-8fb9-5b002b9d53ff",
          "display": "Dr. Hel Ping"
        }
      }
    },
    {
      "fullUrl": "urn:uuid:6f61389b-4410-43b9-95a4-32b3195c1db7",
      "resource": {
        "resourceType": "Condition",
        "id": "6f61389b-4410-43b9-95a4-32b3195c1db7",
        "meta": {
          "profile": [
            "http://hl7.org/fhir/uv/ips/StructureDefinition/Condition-uv-ips"
          ]
        },
        "category": [
          {
            "coding": [
              {
                "code": "problem-list-item",
                "system": "http://terminology.hl7.org/CodeSystem/condition-category",
                "display": "Problem List Item"
              }
            ]
          }
        ],
        "code": {
          "coding": [
            {
              "code": "195662009",
              "system": "http://snomed.info/sct",
              "display": "Acute viral pharyngitis (disorder)"
            }
          ],
          "text": "Acute viral pharyngitis"
        },
        "onsetDateTime": "2019-08-05",
        "clinicalStatus": {
          "coding": [
            {
              "code": "inactive",
              "system": "http://terminology.hl7.org/CodeSystem/condition-clinical"
            }
          ]
        },
        "subject": {
          "reference": "Patient/4eae7e93-07f5-4961-be32-ca7491f09dab",
          "display": "Reijer van Woerkom"
        },
        "asserter": {
          "reference": "Practitioner/4c2980f2-5f87-4cab-8fb9-5b002b9d53ff",
          "display": "Dr. Hel Ping"
        }
      }
    },
    {
      "fullUrl": "urn:uuid:db901548-3b33-4226-8041-e501fb85910c",
      "resource": {
        "resourceType": "Condition",
        "id": "db901548-3b33-4226-8041-e501fb85910c",
        "meta": {
          "profile": [
            "http://hl7.org/fhir/uv/ips/StructureDefinition/Condition-uv-ips"
          ]
        },
        "category": [
          {
            "coding": [
              {
                "code": "problem-list-item",
                "system": "http://terminology.hl7.org/CodeSystem/condition-category",
                "display": "Problem List Item"
              }
            ]
          }
        ],
        "code": {
          "coding": [
            {
              "code": "66383009",
              "system": "http://snomed.info/sct",
              "display": "Gingivitis (disorder)"
            }
          ],
          "text": "Gingivitis"
        },
        "onsetDateTime": "2018-02-06",
        "clinicalStatus": {
          "coding": [
            {
              "code": "inactive",
              "system": "http://terminology.hl7.org/CodeSystem/condition-clinical"
            }
          ]
        },
        "subject": {
          "reference": "Patient/4eae7e93-07f5-4961-be32-ca7491f09dab",
          "display": "Reijer van Woerkom"
        },
        "asserter": {
          "reference": "Practitioner/4c2980f2-5f87-4cab-8fb9-5b002b9d53ff",
          "display": "Dr. Hel Ping"
        }
      }
    },
    {
      "fullUrl": "urn:uuid:0413fc06-8000-4871-96b6-5101f05fcda2",
      "resource": {
        "resourceType": "Medication",
        "id": "0413fc06-8000-4871-96b6-5101f05fcda2",
        "meta": {
          "profile": [
            "http://hl7.org/fhir/uv/ips/StructureDefinition/Medication-uv-ips"
          ]
        },
        "code": {
          "coding": [
            {
              "code": "310798",
              "system": "http://www.nlm.nih.gov/research/umls/rxnorm",
              "display": "hydrochlorothiazide 25 MG Oral Tablet"
            },
            {
              "code": "376209006",
              "system": "http://snomed.info/sct",
              "display": "Product containing precisely hydrochlorothiazide 25 milligram/1 each conventional release oral tablet (clinical drug)"
            }
          ],
          "text": "Hydrochlorothiazide 25 mg oral tablet"
        },
        "form": {
          "coding": [
            {
              "code": "421026006",
              "system": "http://snomed.info/sct",
              "display": "Oral tablet"
            }
          ]
        },
        "ingredient": [
          {
            "itemCodeableConcept": {
              "coding": [
                {
                  "code": "387525002",
                  "system": "http://snomed.info/sct",
                  "display": "Hydrochlorothiazide"
                }
              ]
            },
            "isActive": true
          }
        ]
      }
    },
    {
      "fullUrl": "urn:uuid:a3e12542-ed18-4bef-b8a3-dc5a0f878962",
      "resource": {
        "resourceType": "MedicationStatement",
        "id": "a3e12542-ed18-4bef-b8a3-dc5a0f878962",
        "effectivePeriod": {
          "start": "2025-04-01"
        },
        "dosage": [
          {
            "doseAndRate": [
              {
                "doseQuantity": {
                  "value": 1,
                  "unit": "{tbl}",
                  "code": "{tbl}"
                }
              }
            ],
            "timing": {
              "repeat": {
                "frequency": 1,
                "period": 1,
                "periodUnit": "d"
              }
            },
            "text": "1 tablet (25 mg) by mouth once daily",
            "asNeededBoolean": false
          }
        ],
        "reasonCode": [
          {
            "coding": [
              {
                "code": "59621000",
                "system": "http://snomed.info/sct",
                "display": "Essential hypertension (disorder)"
              }
            ]
          }
        ],
        "status": "active",
        "medicationReference": {
          "reference": "Medication/0413fc06-8000-4871-96b6-5101f05fcda2",
          "display": "Hydrochlorothiazide 25 mg oral tablet"
        },
        "subject": {
          "reference": "Patient/4eae7e93-07f5-4961-be32-ca7491f09dab",
          "display": "Reijer van Woerkom"
        }
      }
    },
    {
      "fullUrl": "urn:uuid:f9084665-5292-4ea7-b35f-8aaaa52e3d56",
      "resource": {
        "resourceType": "Medication",
        "id": "f9084665-5292-4ea7-b35f-8aaaa52e3d56",
        "meta": {
          "profile": [
            "http://hl7.org/fhir/uv/ips/StructureDefinition/Medication-uv-ips"
          ]
        },
        "code": {
          "coding": [
            {
              "code": "314231",
              "system": "http://www.nlm.nih.gov/research/umls/rxnorm",
              "display": "simvastatin 10 MG Oral Tablet"
            },
            {
              "code": "319996000",
              "system": "http://snomed.info/sct",
              "display": "Product containing precisely simvastatin 10 milligram/1 each conventional release oral tablet (clinical drug)"
            }
          ],
          "text": "Simvastatin 10 mg oral tablet"
        },
        "form": {
          "coding": [
            {
              "code": "421026006",
              "system": "http://snomed.info/sct",
              "display": "Oral tablet"
            }
          ]
        },
        "ingredient": [
          {
            "itemCodeableConcept": {
              "coding": [
                {
                  "code": "387584000",
                  "system": "http://snomed.info/sct",
                  "display": "Simvastatin"
                }
              ]
            },
            "isActive": true
          }
        ]
      }
    },
    {
      "fullUrl": "urn:uuid:9a745129-0b6a-49b8-a926-b739240ba194",
      "resource": {
        "resourceType": "MedicationStatement",
        "id": "9a745129-0b6a-49b8-a926-b739240ba194",
        "effectivePeriod": {
          "start": "2024-06-09"
        },
        "dosage": [
          {
            "doseAndRate": [
              {
                "doseQuantity": {
                  "value": 1,
                  "unit": "{tbl}",
                  "code": "{tbl}"
                }
              }
            ],
            "timing": {
              "repeat": {
                "frequency": 1,
                "period": 1,
                "periodUnit": "d"
              }
            },
            "text": "1 tablet (10 mg) by mouth once daily",
            "asNeededBoolean": false
          }
        ],
        "reasonCode": [
          {
            "coding": [
              {
                "code": "55822004",
                "system": "http://snomed.info/sct",
                "display": "Hyperlipidemia (disorder)"
              }
            ]
          }
        ],
        "status": "active",
        "medicationReference": {
          "reference": "Medication/f9084665-5292-4ea7-b35f-8aaaa52e3d56",
          "display": "Simvastatin 10 mg oral tablet"
        },
        "subject": {
          "reference": "Patient/4eae7e93-07f5-4961-be32-ca7491f09dab",
          "display": "Reijer van Woerkom"
        }
      }
    },
    {
      "fullUrl": "urn:uuid:37584bb5-4741-4816-922e-7258e6cf7dfc",
      "resource": {
        "resourceType": "Medication",
        "id": "37584bb5-4741-4816-922e-7258e6cf7dfc",
        "meta": {
          "profile": [
            "http://hl7.org/fhir/uv/ips/StructureDefinition/Medication-uv-ips"
          ]
        },
        "code": {
          "coding": [
            {
              "code": "309362",
              "system": "http://www.nlm.nih.gov/research/umls/rxnorm",
              "display": "clopidogrel 75 MG Oral Tablet"
            },
            {
              "code": "783586007",
              "system": "http://snomed.info/sct",
              "display": "Product containing precisely clopidogrel (as clopidogrel bisulfate) 75 milligram/1 each conventional release oral tablet (clinical drug)"
            }
          ],
          "text": "Clopidogrel (as clopidogrel bisulfate) 75 mg oral tablet"
        },
        "form": {
          "coding": [
            {
              "code": "421026006",
              "system": "http://snomed.info/sct",
              "display": "Oral tablet"
            }
          ]
        },
        "ingredient": [
          {
            "itemCodeableConcept": {
              "coding": [
                {
                  "code": "412354008",
                  "system": "http://snomed.info/sct",
                  "display": "Clopidogrel bisulfate"
                }
              ]
            },
            "isActive": true
          }
        ]
      }
    },
    {
      "fullUrl": "urn:uuid:3ef91157-a69e-40f1-a55f-201fb3f9bf1c",
      "resource": {
        "resourceType": "MedicationStatement",
        "id": "3ef91157-a69e-40f1-a55f-201fb3f9bf1c",
        "effectivePeriod": {
          "start": "1997-03-11"
        },
        "dosage": [
          {
            "doseAndRate": [
              {
                "doseQuantity": {
                  "value": 1,
                  "unit": "{tbl}",
                  "code": "{tbl}"
                }
              }
            ],
            "timing": {
              "repeat": {
                "frequency": 1,
                "period": 1,
                "periodUnit": "d"
              }
            },
            "text": "1 tablet (75 mg) by mouth once daily",
            "asNeededBoolean": false
          }
        ],
        "status": "active",
        "medicationReference": {
          "reference": "Medication/37584bb5-4741-4816-922e-7258e6cf7dfc",
          "display": "Clopidogrel (as clopidogrel bisulfate) 75 mg oral tablet"
        },
        "subject": {
          "reference": "Patient/4eae7e93-07f5-4961-be32-ca7491f09dab",
          "display": "Reijer van Woerkom"
        }
      }
    },
    {
      "fullUrl": "urn:uuid:dfd2a7a9-134a-4e80-aa01-f02bd4b36537",
      "resource": {
        "resourceType": "Medication",
        "id": "dfd2a7a9-134a-4e80-aa01-f02bd4b36537",
        "meta": {
          "profile": [
            "http://hl7.org/fhir/uv/ips/StructureDefinition/Medication-uv-ips"
          ]
        },
        "code": {
          "coding": [
            {
              "code": "312961",
              "system": "http://www.nlm.nih.gov/research/umls/rxnorm",
              "display": "simvastatin 20 MG Oral Tablet"
            },
            {
              "code": "319997009",
              "system": "http://snomed.info/sct",
              "display": "Product containing precisely simvastatin 20 milligram/1 each conventional release oral tablet (clinical drug)"
            }
          ],
          "text": "Simvastatin 20 mg oral tablet"
        },
        "form": {
          "coding": [
            {
              "code": "421026006",
              "system": "http://snomed.info/sct",
              "display": "Oral tablet"
            }
          ]
        },
        "ingredient": [
          {
            "itemCodeableConcept": {
              "coding": [
                {
                  "code": "387584000",
                  "system": "http://snomed.info/sct",
                  "display": "Simvastatin"
                }
              ]
            },
            "isActive": true
          }
        ]
      }
    },
    {
      "fullUrl": "urn:uuid:6471a526-f4ea-4b2b-b978-8b9612426fc7",
      "resource": {
        "resourceType": "MedicationStatement",
        "id": "6471a526-f4ea-4b2b-b978-8b9612426fc7",
        "effectivePeriod": {
          "start": "1997-03-11"
        },
        "dosage": [
          {
            "doseAndRate": [
              {
                "doseQuantity": {
                  "value": 1,
                  "unit": "{tbl}",
                  "code": "{tbl}"
                }
              }
            ],
            "timing": {
              "repeat": {
                "frequency": 1,
                "period": 1,
                "periodUnit": "d"
              }
            },
            "text": "1 tablet (20 mg) by mouth once daily",
            "asNeededBoolean": false
          }
        ],
        "status": "active",
        "medicationReference": {
          "reference": "Medication/dfd2a7a9-134a-4e80-aa01-f02bd4b36537",
          "display": "Simvastatin 20 mg oral tablet"
        },
        "subject": {
          "reference": "Patient/4eae7e93-07f5-4961-be32-ca7491f09dab",
          "display": "Reijer van Woerkom"
        }
      }
    },
    {
      "fullUrl": "urn:uuid:540907cf-f575-425d-945b-12f52f95af12",
      "resource": {
        "resourceType": "Medication",
        "id": "540907cf-f575-425d-945b-12f52f95af12",
        "meta": {
          "profile": [
            "http://hl7.org/fhir/uv/ips/StructureDefinition/Medication-uv-ips"
          ]
        },
        "code": {
          "coding": [
            {
              "code": "705129",
              "system": "http://www.nlm.nih.gov/research/umls/rxnorm",
              "display": "nitroglycerin 0.4 MG/ACTUAT Mucosal Spray"
            },
            {
              "code": "425176000",
              "system": "http://snomed.info/sct",
              "display": "Product containing precisely glyceryl trinitrate 400 microgram/1 actuation conventional release sublingual spray (clinical drug)"
            }
          ],
          "text": "Nitroglycerin 400 microgram/actuation sublingual spray"
        },
        "form": {
          "coding": [
            {
              "code": "385074009",
              "system": "http://snomed.info/sct",
              "display": "Sublingual spray"
            }
          ]
        },
        "ingredient": [
          {
            "itemCodeableConcept": {
              "coding": [
                {
                  "code": "387404004",
                  "system": "http://snomed.info/sct",
                  "display": "Glyceryl trinitrate"
                }
              ]
            },
            "isActive": true
          }
        ]
      }
    },
    {
      "fullUrl": "urn:uuid:d0eea47d-6936-49b8-b530-09b8eb94064a",
      "resource": {
        "resourceType": "MedicationStatement",
        "id": "d0eea47d-6936-49b8-b530-09b8eb94064a",
        "effectivePeriod": {
          "start": "1997-03-11"
        },
        "dosage": [
          {
            "doseAndRate": [
              {
                "doseQuantity": {
                  "value": 400,
                  "unit": "microgram",
                  "code": "ug"
                }
              }
            ],
            "timing": {
              "repeat": {
                "frequency": 1,
                "period": 5,
                "periodUnit": "min"
              }
            },
            "text": "400 micrograms per spray, use one spray under the tongue as needed for chest pain, may repeat every 5 minutes as needed, up to 3 sprays in 15 minutes",
            "asNeededBoolean": true
          }
        ],
        "status": "active",
        "medicationReference": {
          "reference": "Medication/540907cf-f575-425d-945b-12f52f95af12",
          "display": "Nitroglycerin 400 microgram/actuation sublingual spray"
        },
        "subject": {
          "reference": "Patient/4eae7e93-07f5-4961-be32-ca7491f09dab",
          "display": "Reijer van Woerkom"
        }
      }
    },
    {
      "fullUrl": "urn:uuid:6c16f784-b542-4be4-9b5f-2ac8d39c2cab",
      "resource": {
        "resourceType": "Medication",
        "id": "6c16f784-b542-4be4-9b5f-2ac8d39c2cab",
        "meta": {
          "profile": [
            "http://hl7.org/fhir/uv/ips/StructureDefinition/Medication-uv-ips"
          ]
        },
        "code": {
          "coding": [
            {
              "code": "866412",
              "system": "http://www.nlm.nih.gov/research/umls/rxnorm",
              "display": "24 HR metoprolol succinate 100 MG Extended Release Oral Tablet"
            },
            {
              "code": "879980009",
              "system": "http://snomed.info/sct",
              "display": "Product containing precisely metoprolol tartrate (as metoprolol succinate) 100 milligram/1 each prolonged-release oral tablet (clinical drug)"
            }
          ],
          "text": "Metoprolol tartrate (as metoprolol succinate) 100 mg prolonged-release oral tablet"
        },
        "form": {
          "coding": [
            {
              "code": "385060002",
              "system": "http://snomed.info/sct",
              "display": "Prolonged-release oral tablet"
            }
          ]
        },
        "ingredient": [
          {
            "itemCodeableConcept": {
              "coding": [
                {
                  "code": "412432007",
                  "system": "http://snomed.info/sct",
                  "display": "Metoprolol succinate"
                }
              ]
            },
            "isActive": true
          }
        ]
      }
    },
    {
      "fullUrl": "urn:uuid:7376211b-d20c-4fd5-80d4-59cec47313a5",
      "resource": {
        "resourceType": "MedicationStatement",
        "id": "7376211b-d20c-4fd5-80d4-59cec47313a5",
        "effectivePeriod": {
          "start": "1997-03-11"
        },
        "dosage": [
          {
            "doseAndRate": [
              {
                "doseQuantity": {
                  "value": 1,
                  "unit": "{tbl}",
                  "code": "{tbl}"
                }
              }
            ],
            "timing": {
              "repeat": {
                "frequency": 1,
                "period": 1,
                "periodUnit": "d"
              }
            },
            "text": "1 tablet (100 mg) once daily",
            "asNeededBoolean": false
          }
        ],
        "status": "active",
        "medicationReference": {
          "reference": "Medication/6c16f784-b542-4be4-9b5f-2ac8d39c2cab",
          "display": "Metoprolol tartrate (as metoprolol succinate) 100 mg prolonged-release oral tablet"
        },
        "subject": {
          "reference": "Patient/4eae7e93-07f5-4961-be32-ca7491f09dab",
          "display": "Reijer van Woerkom"
        }
      }
    },
    {
      "fullUrl": "urn:uuid:2b0b105d-8213-4f1e-9a63-3b9ebef47e14",
      "resource": {
        "resourceType": "AllergyIntolerance",
        "id": "2b0b105d-8213-4f1e-9a63-3b9ebef47e14",
        "meta": {
          "profile": [
            "http://hl7.eu/fhir/eps/StructureDefinition/allergyIntolerance-eu-eps"
          ]
        },
        "code": {
          "coding": [
            {
              "code": "716186003",
              "system": "http://snomed.info/sct",
              "display": "No known allergy (situation)"
            }
          ]
        },
        "patient": {
          "reference": "Patient/4eae7e93-07f5-4961-be32-ca7491f09dab",
          "display": "Reijer van Woerkom"
        },
        "_onsetDateTime": {
          "extension": [
            {
              "url": "http://hl7.org/fhir/StructureDefinition/data-absent-reason",
              "valueCode": "unknown"
            }
          ]
        }
      }
    },
    {
      "fullUrl": "urn:uuid:12b023e8-0eb7-4b0f-b609-86882f074c9d",
      "resource": {
        "resourceType": "Procedure",
        "id": "12b023e8-0eb7-4b0f-b609-86882f074c9d",
        "meta": {
          "profile": [
            "http://hl7.org/fhir/uv/ips/StructureDefinition/Procedure-uv-ips"
          ]
        },
        "code": {
          "coding": [
            {
              "code": "103697008",
              "system": "http://snomed.info/sct",
              "display": "Patient referral for dental care (procedure)"
            }
          ],
          "text": "Patient referral for dental care"
        },
        "reasonCode": [
          {
            "coding": [
              {
                "code": "66383009",
                "system": "http://snomed.info/sct",
                "display": "Gingivitis (disorder)"
              }
            ]
          }
        ],
        "status": "completed",
        "subject": {
          "reference": "Patient/4eae7e93-07f5-4961-be32-ca7491f09dab",
          "display": "Reijer van Woerkom"
        },
        "performedDateTime": "2025-03-04"
      }
    },
    {
      "fullUrl": "urn:uuid:c27a632c-c901-4053-8890-a74273a5b9aa",
      "resource": {
        "resourceType": "Procedure",
        "id": "c27a632c-c901-4053-8890-a74273a5b9aa",
        "meta": {
          "profile": [
            "http://hl7.org/fhir/uv/ips/StructureDefinition/Procedure-uv-ips"
          ]
        },
        "code": {
          "coding": [
            {
              "code": "171207006",
              "system": "http://snomed.info/sct",
              "display": "Depression screening (procedure)"
            }
          ],
          "text": "Depression screening"
        },
        "status": "completed",
        "subject": {
          "reference": "Patient/4eae7e93-07f5-4961-be32-ca7491f09dab",
          "display": "Reijer van Woerkom"
        },
        "performedDateTime": "2025-03-04"
      }
    },
    {
      "fullUrl": "urn:uuid:1cf31f61-6c94-4d2a-8fbc-61d17fdf9d05",
      "resource": {
        "resourceType": "Procedure",
        "id": "1cf31f61-6c94-4d2a-8fbc-61d17fdf9d05",
        "meta": {
          "profile": [
            "http://hl7.org/fhir/uv/ips/StructureDefinition/Procedure-uv-ips"
          ]
        },
        "code": {
          "coding": [
            {
              "code": "710824005",
              "system": "http://snomed.info/sct",
              "display": "Assessment of health and social care needs (procedure)"
            }
          ],
          "text": "Assessment of health and social care needs"
        },
        "status": "completed",
        "subject": {
          "reference": "Patient/4eae7e93-07f5-4961-be32-ca7491f09dab",
          "display": "Reijer van Woerkom"
        },
        "performedDateTime": "2025-03-04"
      }
    },
    {
      "fullUrl": "urn:uuid:e4fbb04e-cdc7-440a-984b-6f5484539a70",
      "resource": {
        "resourceType": "Procedure",
        "id": "e4fbb04e-cdc7-440a-984b-6f5484539a70",
        "meta": {
          "profile": [
            "http://hl7.org/fhir/uv/ips/StructureDefinition/Procedure-uv-ips"
          ]
        },
        "code": {
          "coding": [
            {
              "code": "710841007",
              "system": "http://snomed.info/sct",
              "display": "Assessment of anxiety (procedure)"
            }
          ],
          "text": "Assessment of anxiety"
        },
        "status": "completed",
        "subject": {
          "reference": "Patient/4eae7e93-07f5-4961-be32-ca7491f09dab",
          "display": "Reijer van Woerkom"
        },
        "performedDateTime": "2025-02-04"
      }
    },
    {
      "fullUrl": "urn:uuid:3755ab34-b521-4fef-9855-60b2e02cd434",
      "resource": {
        "resourceType": "Procedure",
        "id": "3755ab34-b521-4fef-9855-60b2e02cd434",
        "meta": {
          "profile": [
            "http://hl7.org/fhir/uv/ips/StructureDefinition/Procedure-uv-ips"
          ]
        },
        "code": {
          "coding": [
            {
              "code": "713106006",
              "system": "http://snomed.info/sct",
              "display": "Screening for drug abuse (procedure)"
            }
          ],
          "text": "Screening for drug abuse"
        },
        "status": "completed",
        "subject": {
          "reference": "Patient/4eae7e93-07f5-4961-be32-ca7491f09dab",
          "display": "Reijer van Woerkom"
        },
        "performedDateTime": "2025-02-04"
      }
    },
    {
      "fullUrl": "urn:uuid:cef24fd2-ffad-47b4-8a04-0106e8a24f6c",
      "resource": {
        "resourceType": "Procedure",
        "id": "cef24fd2-ffad-47b4-8a04-0106e8a24f6c",
        "meta": {
          "profile": [
            "http://hl7.org/fhir/uv/ips/StructureDefinition/Procedure-uv-ips"
          ]
        },
        "code": {
          "coding": [
            {
              "code": "762993000",
              "system": "http://snomed.info/sct",
              "display": "Assessment using Morse Fall Scale (procedure)"
            }
          ],
          "text": "Assessment using Morse Fall Scale"
        },
        "status": "completed",
        "subject": {
          "reference": "Patient/4eae7e93-07f5-4961-be32-ca7491f09dab",
          "display": "Reijer van Woerkom"
        },
        "performedDateTime": "2025-02-04"
      }
    },
    {
      "fullUrl": "urn:uuid:98b0fbb3-3714-4552-b0aa-8dc57de441fb",
      "resource": {
        "resourceType": "Procedure",
        "id": "98b0fbb3-3714-4552-b0aa-8dc57de441fb",
        "meta": {
          "profile": [
            "http://hl7.org/fhir/uv/ips/StructureDefinition/Procedure-uv-ips"
          ]
        },
        "code": {
          "coding": [
            {
              "code": "428211000124100",
              "system": "http://snomed.info/sct",
              "display": "Assessment of substance use (procedure)"
            }
          ],
          "text": "Assessment of substance use"
        },
        "status": "completed",
        "subject": {
          "reference": "Patient/4eae7e93-07f5-4961-be32-ca7491f09dab",
          "display": "Reijer van Woerkom"
        },
        "performedDateTime": "2025-02-04"
      }
    },
    {
      "fullUrl": "urn:uuid:16825998-c230-4183-a0b7-a8213b9387d5",
      "resource": {
        "resourceType": "Procedure",
        "id": "16825998-c230-4183-a0b7-a8213b9387d5",
        "meta": {
          "profile": [
            "http://hl7.org/fhir/uv/ips/StructureDefinition/Procedure-uv-ips"
          ]
        },
        "code": {
          "coding": [
            {
              "code": "866148006",
              "system": "http://snomed.info/sct",
              "display": "Screening for domestic abuse (procedure)"
            }
          ],
          "text": "Screening for domestic abuse"
        },
        "status": "completed",
        "subject": {
          "reference": "Patient/4eae7e93-07f5-4961-be32-ca7491f09dab",
          "display": "Reijer van Woerkom"
        },
        "performedDateTime": "2025-01-14"
      }
    },
    {
      "fullUrl": "urn:uuid:6eec4f2e-4c2d-45ff-b5a6-72f6ee78fde3",
      "resource": {
        "resourceType": "Procedure",
        "id": "6eec4f2e-4c2d-45ff-b5a6-72f6ee78fde3",
        "meta": {
          "profile": [
            "http://hl7.org/fhir/uv/ips/StructureDefinition/Procedure-uv-ips"
          ]
        },
        "code": {
          "coding": [
            {
              "code": "430193006",
              "system": "http://snomed.info/sct",
              "display": "Medication reconciliation (procedure)"
            }
          ],
          "text": "Medication reconciliation"
        },
        "status": "completed",
        "subject": {
          "reference": "Patient/4eae7e93-07f5-4961-be32-ca7491f09dab",
          "display": "Reijer van Woerkom"
        },
        "performedDateTime": "2025-01-07"
      }
    },
    {
      "fullUrl": "urn:uuid:e858e4ed-81a9-42ba-9f14-7b38dcc782a3",
      "resource": {
        "resourceType": "Procedure",
        "id": "e858e4ed-81a9-42ba-9f14-7b38dcc782a3",
        "meta": {
          "profile": [
            "http://hl7.org/fhir/uv/ips/StructureDefinition/Procedure-uv-ips"
          ]
        },
        "code": {
          "coding": [
            {
              "code": "763302001",
              "system": "http://snomed.info/sct",
              "display": "Assessment using Alcohol Use Disorders Identification Test - Consumption (procedure)"
            }
          ],
          "text": "Assessment using AUDIT-C (Alcohol Use Disorders Identification Test - Consumption)"
        },
        "status": "completed",
        "subject": {
          "reference": "Patient/4eae7e93-07f5-4961-be32-ca7491f09dab",
          "display": "Reijer van Woerkom"
        },
        "performedDateTime": "2023-03-21"
      }
    },
    {
      "fullUrl": "urn:uuid:9ae26bc2-188d-46e3-ae3a-f4eb28058039",
      "resource": {
        "resourceType": "Procedure",
        "id": "9ae26bc2-188d-46e3-ae3a-f4eb28058039",
        "meta": {
          "profile": [
            "http://hl7.org/fhir/uv/ips/StructureDefinition/Procedure-uv-ips"
          ]
        },
        "code": {
          "coding": [
            {
              "code": "417511005",
              "system": "http://snomed.info/sct",
              "display": "Referral to home health care service (procedure)"
            }
          ],
          "text": "Referral to home health care service"
        },
        "status": "completed",
        "subject": {
          "reference": "Patient/4eae7e93-07f5-4961-be32-ca7491f09dab",
          "display": "Reijer van Woerkom"
        },
        "performedDateTime": "2019-04-23"
      }
    },
    {
      "fullUrl": "urn:uuid:b4eb0b96-8f48-4f09-8446-9c95a6624ada",
      "resource": {
        "resourceType": "Immunization",
        "id": "b4eb0b96-8f48-4f09-8446-9c95a6624ada",
        "meta": {
          "profile": [
            "http://hl7.org/fhir/uv/ips/StructureDefinition/Immunization-uv-ips"
          ]
        },
        "vaccineCode": {
          "coding": [
            {
              "code": "1181000221105",
              "system": "http://snomed.info/sct",
              "display": "Vaccine product containing Influenza virus antigen"
            },
            {
              "code": "J07BB02",
              "system": "http://www.whocc.no/atc",
              "display": "Influenza, inactivated, split virus"
            },
            {
              "code": "140",
              "system": "http://hl7.org/fhir/sid/cvx",
              "display": "Influenza  seasonal  injectable  preservative free"
            }
          ],
          "text": "Influenza virus antigen only vaccine product"
        },
        "site": {
          "coding": [
            {
              "code": "73776007",
              "system": "http://snomed.info/sct",
              "display": "Structure of muscle of upper arm"
            }
          ],
          "text": "Structure of muscle of upper arm"
        },
        "route": {
          "coding": [
            {
              "code": "78421000",
              "system": "http://snomed.info/sct",
              "display": "Intramuscular route"
            }
          ],
          "text": "Intramuscular route"
        },
        "status": "completed",
        "patient": {
          "reference": "Patient/4eae7e93-07f5-4961-be32-ca7491f09dab",
          "display": "Reijer van Woerkom"
        },
        "occurrenceDateTime": "2024-12-03",
        "lotNumber": "HP-N1den9kVa",
        "expirationDate": "2025-06-29"
      }
    },
    {
      "fullUrl": "urn:uuid:b60888c5-256a-4e52-af06-c764985e0e86",
      "resource": {
        "resourceType": "Immunization",
        "id": "b60888c5-256a-4e52-af06-c764985e0e86",
        "meta": {
          "profile": [
            "http://hl7.org/fhir/uv/ips/StructureDefinition/Immunization-uv-ips"
          ]
        },
        "vaccineCode": {
          "coding": [
            {
              "code": "1119349007",
              "system": "http://snomed.info/sct",
              "display": "Vaccine product containing SARS-CoV-2 mRNA"
            },
            {
              "code": "J07BX03",
              "system": "http://www.whocc.no/atc",
              "display": "COVID-19 mRNA vaccines"
            },
            {
              "code": "208",
              "system": "http://hl7.org/fhir/sid/cvx",
              "display": "COVID-19  mRNA  LNP-S  PF  30 mcg/0.3 mL dose"
            }
          ],
          "text": "SARS-CoV-2 mRNA vaccine"
        },
        "site": {
          "coding": [
            {
              "code": "73776007",
              "system": "http://snomed.info/sct",
              "display": "Structure of muscle of upper arm"
            }
          ],
          "text": "Structure of muscle of upper arm"
        },
        "route": {
          "coding": [
            {
              "code": "78421000",
              "system": "http://snomed.info/sct",
              "display": "Intramuscular route"
            }
          ],
          "text": "Intramuscular route"
        },
        "status": "completed",
        "patient": {
          "reference": "Patient/4eae7e93-07f5-4961-be32-ca7491f09dab",
          "display": "Reijer van Woerkom"
        },
        "occurrenceDateTime": "2021-03-02",
        "lotNumber": "OO-ds5xVu",
        "expirationDate": "2021-08-15"
      }
    },
    {
      "fullUrl": "urn:uuid:51ecc4ea-f191-4ff7-b85e-ec4454ed92e3",
      "resource": {
        "resourceType": "Immunization",
        "id": "51ecc4ea-f191-4ff7-b85e-ec4454ed92e3",
        "meta": {
          "profile": [
            "http://hl7.org/fhir/uv/ips/StructureDefinition/Immunization-uv-ips"
          ]
        },
        "vaccineCode": {
          "coding": [
            {
              "code": "777725002",
              "system": "http://snomed.info/sct",
              "display": "Vaccine product containing only Clostridium tetani toxoid antigen adsorbed"
            },
            {
              "code": "J07AM51",
              "system": "http://www.whocc.no/atc",
              "display": "Diphtheria-tetanus vaccines, adult type"
            },
            {
              "code": "113",
              "system": "http://hl7.org/fhir/sid/cvx",
              "display": "Td (adult)  5 Lf tetanus toxoid  preservative free  adsorbed"
            }
          ],
          "text": "Clostridium tetani toxoid antigen adsorbed only vaccine product"
        },
        "site": {
          "coding": [
            {
              "code": "73776007",
              "system": "http://snomed.info/sct",
              "display": "Structure of muscle of upper arm"
            }
          ],
          "text": "Structure of muscle of upper arm"
        },
        "route": {
          "coding": [
            {
              "code": "78421000",
              "system": "http://snomed.info/sct",
              "display": "Intramuscular route"
            }
          ],
          "text": "Intramuscular route"
        },
        "status": "completed",
        "patient": {
          "reference": "Patient/4eae7e93-07f5-4961-be32-ca7491f09dab",
          "display": "Reijer van Woerkom"
        },
        "occurrenceDateTime": "2018-07-17",
        "lotNumber": "CX-6cKu",
        "expirationDate": "2019-01-29"
      }
    }
  ],
  "type": "document",
  "timestamp": "2025-06-16T17:28:57Z"
}
