{
  "resourceType": "Bundle",
  "id": "Instance-Bundle-16a66148-3e68-4552-9c56-b7f7583fb3cc",
  "meta": {
    "profile": [
      "http://hl7.eu/fhir/eps/StructureDefinition/bundle-eu-eps"
    ]
  },
  "identifier": {
    "assigner": {
      "display": "HL7 Europe"
    },
    "system": "urn:oid:2.16.840.1.113883.2.51.999",
    "value": "b42cef60-ffe8-47a3-9bc2-97af7fab31c1"
  },
  "entry": [
    {
      "fullUrl": "urn:uuid:3fc5561c-d797-4384-826f-01b0ef8dad89",
      "resource": {
        "resourceType": "Composition",
        "id": "3fc5561c-d797-4384-826f-01b0ef8dad89",
        "meta": {
          "profile": [
            "http://hl7.eu/fhir/eps/StructureDefinition/composition-eu-eps"
          ]
        },
        "identifier": {
          "assigner": {
            "display": "HL7 Europe"
          },
          "system": "urn:oid:2.16.840.1.113883.2.51.999",
          "value": "cedd0b8c-b0f7-480f-b304-4e12ff9846e1"
        },
        "type": {
          "coding": [
            {
              "system": "http://loinc.org",
              "code": "60591-5",
              "display": "European Patient Summary"
            }
          ],
          "text": "European Patient Summary"
        },
        "author": [
          {
            "reference": "urn:uuid:522c6126-792c-4956-8cd0-3b480bb3e6fb"
          }
        ],
        "section": [
          {
            "text": {
              "status": "generated",
              "div": "<div xmlns=\"http://www.w3.org/1999/xhtml\"><table class=\"hl7__ips\"><tr><th>Condition</th><th>Onset Date</th><th>Status</th></tr><tr><td>Acute respiratory distress syndrome</td><td><span class=\"nb\">2022-08-14</span></td><td>active</td></tr><tr><td>Sepsis</td><td><span class=\"nb\">2022-07-28</span></td><td>active</td></tr><tr><td>Dependent drug abuse</td><td><span class=\"nb\">2016-01-03</span></td><td>active</td></tr><tr><td>Chronic sinusitis</td><td><span class=\"nb\">2015-05-10</span></td><td>active</td></tr><tr><td>Chronic intractable migraine without aura</td><td><span class=\"nb\">2002-08-09</span></td><td>active</td></tr><tr><td>Impacted molars</td><td><span class=\"nb\">2002-03-09</span></td><td>active</td></tr><tr><td><span class=\"grayedout\">Primary dental caries</span></td><td><span class=\"nb\">2025-03-09</span></td><td><span class=\"grayedout\">inactive</span></td></tr><tr><td><span class=\"grayedout\">Miscarriage in first trimester</span></td><td><span class=\"nb\">2023-09-24</span></td><td><span class=\"grayedout\">inactive</span></td></tr><tr><td><span class=\"grayedout\">Complete miscarriage</span></td><td><span class=\"nb\">2023-09-24</span></td><td><span class=\"grayedout\">inactive</span></td></tr><tr><td><span class=\"grayedout\">Viral sinusitis</span></td><td><span class=\"nb\">2021-02-28</span></td><td><span class=\"grayedout\">inactive</span></td></tr><tr><td><span class=\"grayedout\">COVID-19</span></td><td><span class=\"nb\">2021-02-22</span></td><td><span class=\"grayedout\">inactive</span></td></tr><tr><td><span class=\"grayedout\">Acute bacterial sinusitis</span></td><td><span class=\"nb\">2015-03-25</span></td><td><span class=\"grayedout\">inactive</span></td></tr></table></div>"
            },
            "entry": [
              {
                "reference": "urn:uuid:03a635e3-017b-4f2a-895e-7c3123fd6d21"
              },
              {
                "reference": "urn:uuid:b74947d2-1ba2-45ba-a7f8-0c23f42ff0bf"
              },
              {
                "reference": "urn:uuid:89f40888-100b-4927-9a60-e5ca6a17da6d"
              },
              {
                "reference": "urn:uuid:5e152256-2f9a-463c-bfc6-62c40b0f0d84"
              },
              {
                "reference": "urn:uuid:42b6460b-331c-4abe-b435-674f3600cb86"
              },
              {
                "reference": "urn:uuid:4bc1f59f-69ca-48a9-8034-ee954e2734c5"
              },
              {
                "reference": "urn:uuid:5bb469d1-12ee-49cd-be68-a2ee093f0a74"
              },
              {
                "reference": "urn:uuid:87902343-49a2-4c07-bee8-5aa02c23e7f5"
              },
              {
                "reference": "urn:uuid:9f2eb5ad-49ec-4071-93f8-f448ab38cc05"
              },
              {
                "reference": "urn:uuid:decddbee-9cbb-4bff-9e1b-72aa92c949a3"
              },
              {
                "reference": "urn:uuid:837cdaf6-257b-439c-8e81-0c0caff46171"
              },
              {
                "reference": "urn:uuid:396a7b77-15df-4d91-bc8a-96009ff58ac5"
              }
            ],
            "code": {
              "coding": [
                {
                  "system": "http://loinc.org",
                  "code": "11450-4",
                  "display": "Problem list - Reported"
                }
              ]
            },
            "title": "Problem list"
          },
          {
            "text": {
              "status": "generated",
              "div": "<div xmlns=\"http://www.w3.org/1999/xhtml\"><table class=\"hl7__ips\"><tr><th>Medication</th><th>Since</th><th>Form</th><th>Dosage</th><th>Reason</th></tr><tr><td>Camila 28 Day Pack</td><td><span class=\"nb\">2024-07-13</span></td><td></td><td>1 tablet (0.35 mg) by mouth once daily</td><td></td></tr></table></div>"
            },
            "entry": [
              {
                "reference": "urn:uuid:368a1b4a-4fd8-4da9-bf7f-485d4b3fe329"
              }
            ],
            "code": {
              "coding": [
                {
                  "system": "http://loinc.org",
                  "code": "10160-0",
                  "display": "History of Medication use Narrative"
                }
              ]
            },
            "title": "Medication list"
          },
          {
            "text": {
              "status": "generated",
              "div": "<div xmlns=\"http://www.w3.org/1999/xhtml\"><table class=\"hl7__ips\"><tr><td>No known allergies or intolerances</td></tr></table></div>"
            },
            "entry": [
              {
                "reference": "urn:uuid:b4d70f43-ac8d-49ea-83eb-cf0ac389c3ab"
              }
            ],
            "code": {
              "coding": [
                {
                  "system": "http://loinc.org",
                  "code": "48765-2",
                  "display": "Allergies and adverse reactions Document"
                }
              ]
            },
            "title": "Allergies and Intolerances"
          },
          {
            "text": {
              "status": "generated",
              "div": "<div xmlns=\"http://www.w3.org/1999/xhtml\"><table class=\"hl7__ips\"><tr><th>Procedure</th><th>Date</th><th>Reason</th></tr><tr><td>Human parturition</td><td><span class=\"nb\">2023-05-14</span></td><td>Normal pregnancy (finding)</td></tr><tr><td>Transfer to stepdown unit</td><td><span class=\"nb\">2022-08-20</span></td><td>Sepsis (disorder)</td></tr><tr><td>Weaning from mechanically assisted ventilation</td><td><span class=\"nb\">2022-08-18</span></td><td>Acute respiratory distress syndrome (disorder)</td></tr><tr><td>Artificial ventilation</td><td><span class=\"nb\">2022-08-14</span></td><td>Acute respiratory distress syndrome (disorder)</td></tr><tr><td>Admission to intensive care unit</td><td><span class=\"nb\">2022-08-14</span></td><td>Septic shock (disorder)</td></tr><tr><td>Resuscitation using intravenous fluid</td><td><span class=\"nb\">2022-08-14</span></td><td>Septic shock (disorder)</td></tr><tr><td>Episiotomy</td><td><span class=\"nb\">2015-07-12</span></td><td>Normal pregnancy (finding)</td></tr></table></div>"
            },
            "entry": [
              {
                "reference": "urn:uuid:13f8c3ad-6fbc-4185-9e1e-75bf3d61183a"
              },
              {
                "reference": "urn:uuid:7daef938-f809-488d-860c-67b8949249f2"
              },
              {
                "reference": "urn:uuid:53afad2b-c6fb-47dd-bb7f-1ba8762238ed"
              },
              {
                "reference": "urn:uuid:32a6ccd4-36a1-40d6-ad8b-7b5b111f02ef"
              },
              {
                "reference": "urn:uuid:4902a222-51af-4270-907d-092b529f9867"
              },
              {
                "reference": "urn:uuid:3e860d06-5591-4ad7-b285-20dd4cdf499e"
              },
              {
                "reference": "urn:uuid:91d1ae66-486d-4136-8897-c982d86a547f"
              }
            ],
            "code": {
              "coding": [
                {
                  "system": "http://loinc.org",
                  "code": "47519-4",
                  "display": "History of Procedures Document"
                }
              ]
            },
            "title": "Procedure History list"
          },
          {
            "text": {
              "status": "generated",
              "div": "<div xmlns=\"http://www.w3.org/1999/xhtml\"><table class=\"hl7__ips\"><tr><th>Vaccine</th><th>Date</th></tr><tr><td>Influenza virus antigen only vaccine product</td><td><span class=\"nb\">2025-02-23</span></td></tr><tr><td>SARS-CoV-2 mRNA vaccine</td><td><span class=\"nb\">2021-03-21</span></td></tr><tr><td>Clostridium tetani toxoid antigen adsorbed only vaccine product</td><td><span class=\"nb\">2019-02-17</span></td></tr></table></div>"
            },
            "entry": [
              {
                "reference": "urn:uuid:c387e77b-5456-4bb2-97ba-eff8ac94967f"
              },
              {
                "reference": "urn:uuid:a6dc8b00-029c-4768-b784-3fa19140eaab"
              },
              {
                "reference": "urn:uuid:2ea687bd-5c16-44a1-940a-bdcd0ea77b0e"
              }
            ],
            "code": {
              "coding": [
                {
                  "system": "http://loinc.org",
                  "code": "11369-6",
                  "display": "History of Immunization Narrative"
                }
              ]
            },
            "title": "Immunizations list"
          }
        ],
        "title": "European Patient Summary",
        "status": "final",
        "subject": {
          "reference": "urn:uuid:8fc22482-3771-47bd-b8db-f2178bd1fe36"
        },
        "custodian": {
          "reference": "urn:uuid:a3cc4169-8e98-47cb-ba85-a0652838f584"
        },
        "date": "2025-06-17T11:26:49Z",
        "confidentiality": "N"
      }
    },
    {
      "fullUrl": "urn:uuid:8fc22482-3771-47bd-b8db-f2178bd1fe36",
      "resource": {
        "resourceType": "Patient",
        "id": "8fc22482-3771-47bd-b8db-f2178bd1fe36",
        "meta": {
          "profile": [
            "http://hl7.eu/fhir/eps/StructureDefinition/patient-eu-eps"
          ]
        },
        "identifier": [
          {
            "type": {
              "coding": [
                {
                  "code": "NI",
                  "system": "http://terminology.hl7.org/CodeSystem/v2-0203"
                }
              ]
            },
            "system": "http://ec.europa.eu/identifier/eci",
            "value": "8003-808788-0"
          },
          {
            "type": {
              "coding": [
                {
                  "code": "MR",
                  "system": "http://terminology.hl7.org/CodeSystem/v2-0203"
                }
              ]
            },
            "system": "http://local.setting.eu/identifier",
            "value": "fc65519a-cac6-cbd5-093c-b16158c8293f"
          }
        ],
        "name": [
          {
            "given": [
              "Pauliina"
            ],
            "family": "Jäntti",
            "text": "Pauliina Jäntti"
          }
        ],
        "address": [
          {
            "line": [
              "Ranna 57"
            ],
            "use": "home",
            "type": "physical",
            "city": "Kohtla-Järve",
            "postalCode": "41534",
            "country": "Estonia"
          }
        ],
        "telecom": [
          {
            "system": "phone",
            "value": "+372 352 9802"
          }
        ],
        "gender": "female",
        "birthDate": "1988-12-31"
      }
    },
    {
      "fullUrl": "urn:uuid:522c6126-792c-4956-8cd0-3b480bb3e6fb",
      "resource": {
        "resourceType": "PractitionerRole",
        "id": "522c6126-792c-4956-8cd0-3b480bb3e6fb",
        "meta": {
          "profile": [
            "http://hl7.eu/fhir/base/StructureDefinition/practitionerRole-eu"
          ]
        },
        "practitioner": {
          "reference": "urn:uuid:fcc94598-d126-4f3e-af2f-9530661fce17"
        },
        "organization": {
          "reference": "urn:uuid:a3cc4169-8e98-47cb-ba85-a0652838f584"
        }
      }
    },
    {
      "fullUrl": "urn:uuid:fcc94598-d126-4f3e-af2f-9530661fce17",
      "resource": {
        "resourceType": "Practitioner",
        "id": "fcc94598-d126-4f3e-af2f-9530661fce17",
        "meta": {
          "profile": [
            "http://hl7.eu/fhir/base/StructureDefinition/practitioner-eu"
          ]
        },
        "name": [
          {
            "prefix": [
              "Dr."
            ],
            "given": [
              "Hel"
            ],
            "family": "Ping"
          }
        ]
      }
    },
    {
      "fullUrl": "urn:uuid:03a635e3-017b-4f2a-895e-7c3123fd6d21",
      "resource": {
        "resourceType": "Condition",
        "id": "03a635e3-017b-4f2a-895e-7c3123fd6d21",
        "meta": {
          "profile": [
            "http://hl7.org/fhir/uv/ips/StructureDefinition/Condition-uv-ips"
          ]
        },
        "category": [
          {
            "coding": [
              {
                "code": "problem-list-item",
                "system": "http://terminology.hl7.org/CodeSystem/condition-category",
                "display": "Problem List Item"
              }
            ]
          }
        ],
        "code": {
          "coding": [
            {
              "code": "67782005",
              "system": "http://snomed.info/sct",
              "display": "Acute respiratory distress syndrome (disorder)"
            }
          ],
          "text": "Acute respiratory distress syndrome"
        },
        "onsetDateTime": "2022-08-14",
        "clinicalStatus": {
          "coding": [
            {
              "code": "active",
              "system": "http://terminology.hl7.org/CodeSystem/condition-clinical"
            }
          ]
        },
        "subject": {
          "reference": "Patient/8fc22482-3771-47bd-b8db-f2178bd1fe36",
          "display": "Pauliina Jäntti"
        },
        "asserter": {
          "reference": "Practitioner/fcc94598-d126-4f3e-af2f-9530661fce17",
          "display": "Dr. Hel Ping"
        }
      }
    },
    {
      "fullUrl": "urn:uuid:b74947d2-1ba2-45ba-a7f8-0c23f42ff0bf",
      "resource": {
        "resourceType": "Condition",
        "id": "b74947d2-1ba2-45ba-a7f8-0c23f42ff0bf",
        "meta": {
          "profile": [
            "http://hl7.org/fhir/uv/ips/StructureDefinition/Condition-uv-ips"
          ]
        },
        "category": [
          {
            "coding": [
              {
                "code": "problem-list-item",
                "system": "http://terminology.hl7.org/CodeSystem/condition-category",
                "display": "Problem List Item"
              }
            ]
          }
        ],
        "code": {
          "coding": [
            {
              "code": "91302008",
              "system": "http://snomed.info/sct",
              "display": "Sepsis (disorder)"
            }
          ],
          "text": "Sepsis"
        },
        "onsetDateTime": "2022-07-28",
        "clinicalStatus": {
          "coding": [
            {
              "code": "active",
              "system": "http://terminology.hl7.org/CodeSystem/condition-clinical"
            }
          ]
        },
        "subject": {
          "reference": "Patient/8fc22482-3771-47bd-b8db-f2178bd1fe36",
          "display": "Pauliina Jäntti"
        },
        "asserter": {
          "reference": "Practitioner/fcc94598-d126-4f3e-af2f-9530661fce17",
          "display": "Dr. Hel Ping"
        }
      }
    },
    {
      "fullUrl": "urn:uuid:89f40888-100b-4927-9a60-e5ca6a17da6d",
      "resource": {
        "resourceType": "Condition",
        "id": "89f40888-100b-4927-9a60-e5ca6a17da6d",
        "meta": {
          "profile": [
            "http://hl7.org/fhir/uv/ips/StructureDefinition/Condition-uv-ips"
          ]
        },
        "category": [
          {
            "coding": [
              {
                "code": "problem-list-item",
                "system": "http://terminology.hl7.org/CodeSystem/condition-category",
                "display": "Problem List Item"
              }
            ]
          }
        ],
        "code": {
          "coding": [
            {
              "code": "6525002",
              "system": "http://snomed.info/sct",
              "display": "Dependent drug abuse (disorder)"
            }
          ],
          "text": "Dependent drug abuse"
        },
        "onsetDateTime": "2016-01-03",
        "clinicalStatus": {
          "coding": [
            {
              "code": "active",
              "system": "http://terminology.hl7.org/CodeSystem/condition-clinical"
            }
          ]
        },
        "subject": {
          "reference": "Patient/8fc22482-3771-47bd-b8db-f2178bd1fe36",
          "display": "Pauliina Jäntti"
        },
        "asserter": {
          "reference": "Practitioner/fcc94598-d126-4f3e-af2f-9530661fce17",
          "display": "Dr. Hel Ping"
        }
      }
    },
    {
      "fullUrl": "urn:uuid:5e152256-2f9a-463c-bfc6-62c40b0f0d84",
      "resource": {
        "resourceType": "Condition",
        "id": "5e152256-2f9a-463c-bfc6-62c40b0f0d84",
        "meta": {
          "profile": [
            "http://hl7.org/fhir/uv/ips/StructureDefinition/Condition-uv-ips"
          ]
        },
        "category": [
          {
            "coding": [
              {
                "code": "problem-list-item",
                "system": "http://terminology.hl7.org/CodeSystem/condition-category",
                "display": "Problem List Item"
              }
            ]
          }
        ],
        "code": {
          "coding": [
            {
              "code": "40055000",
              "system": "http://snomed.info/sct",
              "display": "Chronic sinusitis (disorder)"
            }
          ],
          "text": "Chronic sinusitis"
        },
        "onsetDateTime": "2015-05-10",
        "clinicalStatus": {
          "coding": [
            {
              "code": "active",
              "system": "http://terminology.hl7.org/CodeSystem/condition-clinical"
            }
          ]
        },
        "subject": {
          "reference": "Patient/8fc22482-3771-47bd-b8db-f2178bd1fe36",
          "display": "Pauliina Jäntti"
        },
        "asserter": {
          "reference": "Practitioner/fcc94598-d126-4f3e-af2f-9530661fce17",
          "display": "Dr. Hel Ping"
        }
      }
    },
    {
      "fullUrl": "urn:uuid:42b6460b-331c-4abe-b435-674f3600cb86",
      "resource": {
        "resourceType": "Condition",
        "id": "42b6460b-331c-4abe-b435-674f3600cb86",
        "meta": {
          "profile": [
            "http://hl7.org/fhir/uv/ips/StructureDefinition/Condition-uv-ips"
          ]
        },
        "category": [
          {
            "coding": [
              {
                "code": "problem-list-item",
                "system": "http://terminology.hl7.org/CodeSystem/condition-category",
                "display": "Problem List Item"
              }
            ]
          }
        ],
        "code": {
          "coding": [
            {
              "code": "124171000119105",
              "system": "http://snomed.info/sct",
              "display": "Chronic intractable migraine without aura (disorder)"
            }
          ],
          "text": "Chronic intractable migraine without aura"
        },
        "onsetDateTime": "2002-08-09",
        "clinicalStatus": {
          "coding": [
            {
              "code": "active",
              "system": "http://terminology.hl7.org/CodeSystem/condition-clinical"
            }
          ]
        },
        "subject": {
          "reference": "Patient/8fc22482-3771-47bd-b8db-f2178bd1fe36",
          "display": "Pauliina Jäntti"
        },
        "asserter": {
          "reference": "Practitioner/fcc94598-d126-4f3e-af2f-9530661fce17",
          "display": "Dr. Hel Ping"
        }
      }
    },
    {
      "fullUrl": "urn:uuid:4bc1f59f-69ca-48a9-8034-ee954e2734c5",
      "resource": {
        "resourceType": "Condition",
        "id": "4bc1f59f-69ca-48a9-8034-ee954e2734c5",
        "meta": {
          "profile": [
            "http://hl7.org/fhir/uv/ips/StructureDefinition/Condition-uv-ips"
          ]
        },
        "category": [
          {
            "coding": [
              {
                "code": "problem-list-item",
                "system": "http://terminology.hl7.org/CodeSystem/condition-category",
                "display": "Problem List Item"
              }
            ]
          }
        ],
        "code": {
          "coding": [
            {
              "code": "196416002",
              "system": "http://snomed.info/sct",
              "display": "Impacted molars (disorder)"
            }
          ],
          "text": "Impacted molars"
        },
        "onsetDateTime": "2002-03-09",
        "clinicalStatus": {
          "coding": [
            {
              "code": "active",
              "system": "http://terminology.hl7.org/CodeSystem/condition-clinical"
            }
          ]
        },
        "subject": {
          "reference": "Patient/8fc22482-3771-47bd-b8db-f2178bd1fe36",
          "display": "Pauliina Jäntti"
        },
        "asserter": {
          "reference": "Practitioner/fcc94598-d126-4f3e-af2f-9530661fce17",
          "display": "Dr. Hel Ping"
        }
      }
    },
    {
      "fullUrl": "urn:uuid:5bb469d1-12ee-49cd-be68-a2ee093f0a74",
      "resource": {
        "resourceType": "Condition",
        "id": "5bb469d1-12ee-49cd-be68-a2ee093f0a74",
        "meta": {
          "profile": [
            "http://hl7.org/fhir/uv/ips/StructureDefinition/Condition-uv-ips"
          ]
        },
        "category": [
          {
            "coding": [
              {
                "code": "problem-list-item",
                "system": "http://terminology.hl7.org/CodeSystem/condition-category",
                "display": "Problem List Item"
              }
            ]
          }
        ],
        "code": {
          "coding": [
            {
              "code": "109570002",
              "system": "http://snomed.info/sct",
              "display": "Primary dental caries (disorder)"
            }
          ],
          "text": "Primary dental caries"
        },
        "onsetDateTime": "2025-03-09",
        "clinicalStatus": {
          "coding": [
            {
              "code": "inactive",
              "system": "http://terminology.hl7.org/CodeSystem/condition-clinical"
            }
          ]
        },
        "subject": {
          "reference": "Patient/8fc22482-3771-47bd-b8db-f2178bd1fe36",
          "display": "Pauliina Jäntti"
        },
        "asserter": {
          "reference": "Practitioner/fcc94598-d126-4f3e-af2f-9530661fce17",
          "display": "Dr. Hel Ping"
        }
      }
    },
    {
      "fullUrl": "urn:uuid:87902343-49a2-4c07-bee8-5aa02c23e7f5",
      "resource": {
        "resourceType": "Condition",
        "id": "87902343-49a2-4c07-bee8-5aa02c23e7f5",
        "meta": {
          "profile": [
            "http://hl7.org/fhir/uv/ips/StructureDefinition/Condition-uv-ips"
          ]
        },
        "category": [
          {
            "coding": [
              {
                "code": "problem-list-item",
                "system": "http://terminology.hl7.org/CodeSystem/condition-category",
                "display": "Problem List Item"
              }
            ]
          }
        ],
        "code": {
          "coding": [
            {
              "code": "19169002",
              "system": "http://snomed.info/sct",
              "display": "Miscarriage in first trimester (disorder)"
            }
          ],
          "text": "Miscarriage in first trimester"
        },
        "onsetDateTime": "2023-09-24",
        "clinicalStatus": {
          "coding": [
            {
              "code": "inactive",
              "system": "http://terminology.hl7.org/CodeSystem/condition-clinical"
            }
          ]
        },
        "subject": {
          "reference": "Patient/8fc22482-3771-47bd-b8db-f2178bd1fe36",
          "display": "Pauliina Jäntti"
        },
        "asserter": {
          "reference": "Practitioner/fcc94598-d126-4f3e-af2f-9530661fce17",
          "display": "Dr. Hel Ping"
        }
      }
    },
    {
      "fullUrl": "urn:uuid:9f2eb5ad-49ec-4071-93f8-f448ab38cc05",
      "resource": {
        "resourceType": "Condition",
        "id": "9f2eb5ad-49ec-4071-93f8-f448ab38cc05",
        "meta": {
          "profile": [
            "http://hl7.org/fhir/uv/ips/StructureDefinition/Condition-uv-ips"
          ]
        },
        "category": [
          {
            "coding": [
              {
                "code": "problem-list-item",
                "system": "http://terminology.hl7.org/CodeSystem/condition-category",
                "display": "Problem List Item"
              }
            ]
          }
        ],
        "code": {
          "coding": [
            {
              "code": "156073000",
              "system": "http://snomed.info/sct",
              "display": "Complete miscarriage (disorder)"
            }
          ],
          "text": "Complete miscarriage"
        },
        "onsetDateTime": "2023-09-24",
        "clinicalStatus": {
          "coding": [
            {
              "code": "inactive",
              "system": "http://terminology.hl7.org/CodeSystem/condition-clinical"
            }
          ]
        },
        "subject": {
          "reference": "Patient/8fc22482-3771-47bd-b8db-f2178bd1fe36",
          "display": "Pauliina Jäntti"
        },
        "asserter": {
          "reference": "Practitioner/fcc94598-d126-4f3e-af2f-9530661fce17",
          "display": "Dr. Hel Ping"
        }
      }
    },
    {
      "fullUrl": "urn:uuid:decddbee-9cbb-4bff-9e1b-72aa92c949a3",
      "resource": {
        "resourceType": "Condition",
        "id": "decddbee-9cbb-4bff-9e1b-72aa92c949a3",
        "meta": {
          "profile": [
            "http://hl7.org/fhir/uv/ips/StructureDefinition/Condition-uv-ips"
          ]
        },
        "category": [
          {
            "coding": [
              {
                "code": "problem-list-item",
                "system": "http://terminology.hl7.org/CodeSystem/condition-category",
                "display": "Problem List Item"
              }
            ]
          }
        ],
        "code": {
          "coding": [
            {
              "code": "444814009",
              "system": "http://snomed.info/sct",
              "display": "Viral sinusitis (disorder)"
            }
          ],
          "text": "Viral sinusitis"
        },
        "onsetDateTime": "2021-02-28",
        "clinicalStatus": {
          "coding": [
            {
              "code": "inactive",
              "system": "http://terminology.hl7.org/CodeSystem/condition-clinical"
            }
          ]
        },
        "subject": {
          "reference": "Patient/8fc22482-3771-47bd-b8db-f2178bd1fe36",
          "display": "Pauliina Jäntti"
        },
        "asserter": {
          "reference": "Practitioner/fcc94598-d126-4f3e-af2f-9530661fce17",
          "display": "Dr. Hel Ping"
        }
      }
    },
    {
      "fullUrl": "urn:uuid:837cdaf6-257b-439c-8e81-0c0caff46171",
      "resource": {
        "resourceType": "Condition",
        "id": "837cdaf6-257b-439c-8e81-0c0caff46171",
        "meta": {
          "profile": [
            "http://hl7.org/fhir/uv/ips/StructureDefinition/Condition-uv-ips"
          ]
        },
        "category": [
          {
            "coding": [
              {
                "code": "problem-list-item",
                "system": "http://terminology.hl7.org/CodeSystem/condition-category",
                "display": "Problem List Item"
              }
            ]
          }
        ],
        "code": {
          "coding": [
            {
              "code": "840539006",
              "system": "http://snomed.info/sct",
              "display": "Disease caused by severe acute respiratory syndrome coronavirus 2 (disorder)"
            }
          ],
          "text": "COVID-19"
        },
        "onsetDateTime": "2021-02-22",
        "clinicalStatus": {
          "coding": [
            {
              "code": "inactive",
              "system": "http://terminology.hl7.org/CodeSystem/condition-clinical"
            }
          ]
        },
        "subject": {
          "reference": "Patient/8fc22482-3771-47bd-b8db-f2178bd1fe36",
          "display": "Pauliina Jäntti"
        },
        "asserter": {
          "reference": "Practitioner/fcc94598-d126-4f3e-af2f-9530661fce17",
          "display": "Dr. Hel Ping"
        }
      }
    },
    {
      "fullUrl": "urn:uuid:396a7b77-15df-4d91-bc8a-96009ff58ac5",
      "resource": {
        "resourceType": "Condition",
        "id": "396a7b77-15df-4d91-bc8a-96009ff58ac5",
        "meta": {
          "profile": [
            "http://hl7.org/fhir/uv/ips/StructureDefinition/Condition-uv-ips"
          ]
        },
        "category": [
          {
            "coding": [
              {
                "code": "problem-list-item",
                "system": "http://terminology.hl7.org/CodeSystem/condition-category",
                "display": "Problem List Item"
              }
            ]
          }
        ],
        "code": {
          "coding": [
            {
              "code": "75498004",
              "system": "http://snomed.info/sct",
              "display": "Acute bacterial sinusitis (disorder)"
            }
          ],
          "text": "Acute bacterial sinusitis"
        },
        "onsetDateTime": "2015-03-25",
        "clinicalStatus": {
          "coding": [
            {
              "code": "inactive",
              "system": "http://terminology.hl7.org/CodeSystem/condition-clinical"
            }
          ]
        },
        "subject": {
          "reference": "Patient/8fc22482-3771-47bd-b8db-f2178bd1fe36",
          "display": "Pauliina Jäntti"
        },
        "asserter": {
          "reference": "Practitioner/fcc94598-d126-4f3e-af2f-9530661fce17",
          "display": "Dr. Hel Ping"
        }
      }
    },
    {
      "fullUrl": "urn:uuid:9db044b8-46f3-4498-85b0-5b638d261d0a",
      "resource": {
        "resourceType": "Medication",
        "id": "9db044b8-46f3-4498-85b0-5b638d261d0a",
        "meta": {
          "profile": [
            "http://hl7.org/fhir/uv/ips/StructureDefinition/Medication-uv-ips"
          ]
        },
        "code": {
          "coding": [
            {
              "code": "748962",
              "system": "http://www.nlm.nih.gov/research/umls/rxnorm",
              "display": "Camila 28 Day Pack"
            }
          ],
          "text": "Camila 28 Day Pack"
        }
      }
    },
    {
      "fullUrl": "urn:uuid:368a1b4a-4fd8-4da9-bf7f-485d4b3fe329",
      "resource": {
        "resourceType": "MedicationStatement",
        "id": "368a1b4a-4fd8-4da9-bf7f-485d4b3fe329",
        "meta": {
          "profile": [
            "http://hl7.org/fhir/uv/ips/StructureDefinition/MedicationStatement-uv-ips"
          ]
        },
        "effectivePeriod": {
          "start": "2024-07-13"
        },
        "dosage": [
          {
            "doseAndRate": [
              {
                "doseQuantity": {
                  "value": 1,
                  "unit": "{tbl}",
                  "code": "{tbl}"
                }
              }
            ],
            "timing": {
              "repeat": {
                "frequency": 1,
                "period": 1,
                "periodUnit": "d"
              }
            },
            "text": "1 tablet (0.35 mg) by mouth once daily",
            "asNeededBoolean": false
          }
        ],
        "status": "active",
        "medicationReference": {
          "reference": "Medication/9db044b8-46f3-4498-85b0-5b638d261d0a",
          "display": "Camila 28 Day Pack"
        },
        "subject": {
          "reference": "Patient/8fc22482-3771-47bd-b8db-f2178bd1fe36",
          "display": "Pauliina Jäntti"
        }
      }
    },
    {
      "fullUrl": "urn:uuid:b4d70f43-ac8d-49ea-83eb-cf0ac389c3ab",
      "resource": {
        "resourceType": "AllergyIntolerance",
        "id": "b4d70f43-ac8d-49ea-83eb-cf0ac389c3ab",
        "meta": {
          "profile": [
            "http://hl7.eu/fhir/eps/StructureDefinition/allergyIntolerance-eu-eps"
          ]
        },
        "code": {
          "coding": [
            {
              "code": "716186003",
              "system": "http://snomed.info/sct",
              "display": "No known allergy (situation)"
            }
          ]
        },
        "patient": {
          "reference": "Patient/8fc22482-3771-47bd-b8db-f2178bd1fe36",
          "display": "Pauliina Jäntti"
        },
        "_onsetDateTime": {
          "extension": [
            {
              "url": "http://hl7.org/fhir/StructureDefinition/data-absent-reason",
              "valueCode": "unknown"
            }
          ]
        }
      }
    },
    {
      "fullUrl": "urn:uuid:13f8c3ad-6fbc-4185-9e1e-75bf3d61183a",
      "resource": {
        "resourceType": "Procedure",
        "id": "13f8c3ad-6fbc-4185-9e1e-75bf3d61183a",
        "meta": {
          "profile": [
            "http://hl7.org/fhir/uv/ips/StructureDefinition/Procedure-uv-ips"
          ]
        },
        "code": {
          "coding": [
            {
              "code": "386216000",
              "system": "http://snomed.info/sct",
              "display": "Human parturition  function (observable entity)"
            }
          ],
          "text": "Human parturition"
        },
        "reasonCode": [
          {
            "coding": [
              {
                "code": "72892002",
                "system": "http://snomed.info/sct",
                "display": "Normal pregnancy (finding)"
              }
            ]
          }
        ],
        "status": "completed",
        "subject": {
          "reference": "Patient/8fc22482-3771-47bd-b8db-f2178bd1fe36",
          "display": "Pauliina Jäntti"
        },
        "performedDateTime": "2023-05-14"
      }
    },
    {
      "fullUrl": "urn:uuid:7daef938-f809-488d-860c-67b8949249f2",
      "resource": {
        "resourceType": "Procedure",
        "id": "7daef938-f809-488d-860c-67b8949249f2",
        "meta": {
          "profile": [
            "http://hl7.org/fhir/uv/ips/StructureDefinition/Procedure-uv-ips"
          ]
        },
        "code": {
          "coding": [
            {
              "code": "449214001",
              "system": "http://snomed.info/sct",
              "display": "Transfer to stepdown unit (procedure)"
            }
          ],
          "text": "Transfer to stepdown unit"
        },
        "reasonCode": [
          {
            "coding": [
              {
                "code": "91302008",
                "system": "http://snomed.info/sct",
                "display": "Sepsis (disorder)"
              }
            ]
          }
        ],
        "status": "completed",
        "subject": {
          "reference": "Patient/8fc22482-3771-47bd-b8db-f2178bd1fe36",
          "display": "Pauliina Jäntti"
        },
        "performedDateTime": "2022-08-20"
      }
    },
    {
      "fullUrl": "urn:uuid:53afad2b-c6fb-47dd-bb7f-1ba8762238ed",
      "resource": {
        "resourceType": "Procedure",
        "id": "53afad2b-c6fb-47dd-bb7f-1ba8762238ed",
        "meta": {
          "profile": [
            "http://hl7.org/fhir/uv/ips/StructureDefinition/Procedure-uv-ips"
          ]
        },
        "code": {
          "coding": [
            {
              "code": "243174005",
              "system": "http://snomed.info/sct",
              "display": "Weaning from mechanically assisted ventilation (regime/therapy)"
            }
          ],
          "text": "Weaning from mechanically assisted ventilation"
        },
        "reasonCode": [
          {
            "coding": [
              {
                "code": "67782005",
                "system": "http://snomed.info/sct",
                "display": "Acute respiratory distress syndrome (disorder)"
              }
            ]
          }
        ],
        "status": "completed",
        "subject": {
          "reference": "Patient/8fc22482-3771-47bd-b8db-f2178bd1fe36",
          "display": "Pauliina Jäntti"
        },
        "performedDateTime": "2022-08-18"
      }
    },
    {
      "fullUrl": "urn:uuid:32a6ccd4-36a1-40d6-ad8b-7b5b111f02ef",
      "resource": {
        "resourceType": "Procedure",
        "id": "32a6ccd4-36a1-40d6-ad8b-7b5b111f02ef",
        "meta": {
          "profile": [
            "http://hl7.org/fhir/uv/ips/StructureDefinition/Procedure-uv-ips"
          ]
        },
        "code": {
          "coding": [
            {
              "code": "40617009",
              "system": "http://snomed.info/sct",
              "display": "Artificial ventilation (regime/therapy)"
            }
          ],
          "text": "Artificial ventilation"
        },
        "reasonCode": [
          {
            "coding": [
              {
                "code": "67782005",
                "system": "http://snomed.info/sct",
                "display": "Acute respiratory distress syndrome (disorder)"
              }
            ]
          }
        ],
        "status": "completed",
        "subject": {
          "reference": "Patient/8fc22482-3771-47bd-b8db-f2178bd1fe36",
          "display": "Pauliina Jäntti"
        },
        "performedDateTime": "2022-08-14"
      }
    },
    {
      "fullUrl": "urn:uuid:4902a222-51af-4270-907d-092b529f9867",
      "resource": {
        "resourceType": "Procedure",
        "id": "4902a222-51af-4270-907d-092b529f9867",
        "meta": {
          "profile": [
            "http://hl7.org/fhir/uv/ips/StructureDefinition/Procedure-uv-ips"
          ]
        },
        "code": {
          "coding": [
            {
              "code": "305351004",
              "system": "http://snomed.info/sct",
              "display": "Admission to intensive care unit (procedure)"
            }
          ],
          "text": "Admission to intensive care unit"
        },
        "reasonCode": [
          {
            "coding": [
              {
                "code": "76571007",
                "system": "http://snomed.info/sct",
                "display": "Septic shock (disorder)"
              }
            ]
          }
        ],
        "status": "completed",
        "subject": {
          "reference": "Patient/8fc22482-3771-47bd-b8db-f2178bd1fe36",
          "display": "Pauliina Jäntti"
        },
        "performedDateTime": "2022-08-14"
      }
    },
    {
      "fullUrl": "urn:uuid:3e860d06-5591-4ad7-b285-20dd4cdf499e",
      "resource": {
        "resourceType": "Procedure",
        "id": "3e860d06-5591-4ad7-b285-20dd4cdf499e",
        "meta": {
          "profile": [
            "http://hl7.org/fhir/uv/ips/StructureDefinition/Procedure-uv-ips"
          ]
        },
        "code": {
          "coding": [
            {
              "code": "430701006",
              "system": "http://snomed.info/sct",
              "display": "Resuscitation using intravenous fluid (procedure)"
            }
          ],
          "text": "Resuscitation using intravenous fluid"
        },
        "reasonCode": [
          {
            "coding": [
              {
                "code": "76571007",
                "system": "http://snomed.info/sct",
                "display": "Septic shock (disorder)"
              }
            ]
          }
        ],
        "status": "completed",
        "subject": {
          "reference": "Patient/8fc22482-3771-47bd-b8db-f2178bd1fe36",
          "display": "Pauliina Jäntti"
        },
        "performedDateTime": "2022-08-14"
      }
    },
    {
      "fullUrl": "urn:uuid:91d1ae66-486d-4136-8897-c982d86a547f",
      "resource": {
        "resourceType": "Procedure",
        "id": "91d1ae66-486d-4136-8897-c982d86a547f",
        "meta": {
          "profile": [
            "http://hl7.org/fhir/uv/ips/StructureDefinition/Procedure-uv-ips"
          ]
        },
        "code": {
          "coding": [
            {
              "code": "85548006",
              "system": "http://snomed.info/sct",
              "display": "Episiotomy (procedure)"
            }
          ],
          "text": "Episiotomy"
        },
        "reasonCode": [
          {
            "coding": [
              {
                "code": "72892002",
                "system": "http://snomed.info/sct",
                "display": "Normal pregnancy (finding)"
              }
            ]
          }
        ],
        "status": "completed",
        "subject": {
          "reference": "Patient/8fc22482-3771-47bd-b8db-f2178bd1fe36",
          "display": "Pauliina Jäntti"
        },
        "performedDateTime": "2015-07-12"
      }
    },
    {
      "fullUrl": "urn:uuid:c387e77b-5456-4bb2-97ba-eff8ac94967f",
      "resource": {
        "resourceType": "Immunization",
        "id": "c387e77b-5456-4bb2-97ba-eff8ac94967f",
        "meta": {
          "profile": [
            "http://hl7.org/fhir/uv/ips/StructureDefinition/Immunization-uv-ips"
          ]
        },
        "vaccineCode": {
          "coding": [
            {
              "code": "1181000221105",
              "system": "http://snomed.info/sct",
              "display": "Vaccine product containing Influenza virus antigen"
            },
            {
              "code": "J07BB02",
              "system": "http://www.whocc.no/atc",
              "display": "Influenza, inactivated, split virus"
            },
            {
              "code": "140",
              "system": "http://hl7.org/fhir/sid/cvx",
              "display": "Influenza  seasonal  injectable  preservative free"
            }
          ],
          "text": "Influenza virus antigen only vaccine product"
        },
        "site": {
          "coding": [
            {
              "code": "73776007",
              "system": "http://snomed.info/sct",
              "display": "Structure of muscle of upper arm"
            }
          ],
          "text": "Structure of muscle of upper arm"
        },
        "route": {
          "coding": [
            {
              "code": "78421000",
              "system": "http://snomed.info/sct",
              "display": "Intramuscular route"
            }
          ],
          "text": "Intramuscular route"
        },
        "status": "completed",
        "patient": {
          "reference": "Patient/8fc22482-3771-47bd-b8db-f2178bd1fe36",
          "display": "Pauliina Jäntti"
        },
        "occurrenceDateTime": "2025-02-23",
        "lotNumber": "FE-BeshfG",
        "expirationDate": "2026-02-17"
      }
    },
    {
      "fullUrl": "urn:uuid:a6dc8b00-029c-4768-b784-3fa19140eaab",
      "resource": {
        "resourceType": "Immunization",
        "id": "a6dc8b00-029c-4768-b784-3fa19140eaab",
        "meta": {
          "profile": [
            "http://hl7.org/fhir/uv/ips/StructureDefinition/Immunization-uv-ips"
          ]
        },
        "vaccineCode": {
          "coding": [
            {
              "code": "1119349007",
              "system": "http://snomed.info/sct",
              "display": "Vaccine product containing SARS-CoV-2 mRNA"
            },
            {
              "code": "J07BX03",
              "system": "http://www.whocc.no/atc",
              "display": "COVID-19 mRNA vaccines"
            },
            {
              "code": "208",
              "system": "http://hl7.org/fhir/sid/cvx",
              "display": "COVID-19  mRNA  LNP-S  PF  30 mcg/0.3 mL dose"
            }
          ],
          "text": "SARS-CoV-2 mRNA vaccine"
        },
        "site": {
          "coding": [
            {
              "code": "73776007",
              "system": "http://snomed.info/sct",
              "display": "Structure of muscle of upper arm"
            }
          ],
          "text": "Structure of muscle of upper arm"
        },
        "route": {
          "coding": [
            {
              "code": "78421000",
              "system": "http://snomed.info/sct",
              "display": "Intramuscular route"
            }
          ],
          "text": "Intramuscular route"
        },
        "status": "completed",
        "patient": {
          "reference": "Patient/8fc22482-3771-47bd-b8db-f2178bd1fe36",
          "display": "Pauliina Jäntti"
        },
        "occurrenceDateTime": "2021-03-21",
        "lotNumber": "AA-cw6A",
        "expirationDate": "2021-10-02"
      }
    },
    {
      "fullUrl": "urn:uuid:2ea687bd-5c16-44a1-940a-bdcd0ea77b0e",
      "resource": {
        "resourceType": "Immunization",
        "id": "2ea687bd-5c16-44a1-940a-bdcd0ea77b0e",
        "meta": {
          "profile": [
            "http://hl7.org/fhir/uv/ips/StructureDefinition/Immunization-uv-ips"
          ]
        },
        "vaccineCode": {
          "coding": [
            {
              "code": "777725002",
              "system": "http://snomed.info/sct",
              "display": "Vaccine product containing only Clostridium tetani toxoid antigen adsorbed"
            },
            {
              "code": "J07AM51",
              "system": "http://www.whocc.no/atc",
              "display": "Diphtheria-tetanus vaccines, adult type"
            },
            {
              "code": "113",
              "system": "http://hl7.org/fhir/sid/cvx",
              "display": "Td (adult)  5 Lf tetanus toxoid  preservative free  adsorbed"
            }
          ],
          "text": "Clostridium tetani toxoid antigen adsorbed only vaccine product"
        },
        "site": {
          "coding": [
            {
              "code": "73776007",
              "system": "http://snomed.info/sct",
              "display": "Structure of muscle of upper arm"
            }
          ],
          "text": "Structure of muscle of upper arm"
        },
        "route": {
          "coding": [
            {
              "code": "78421000",
              "system": "http://snomed.info/sct",
              "display": "Intramuscular route"
            }
          ],
          "text": "Intramuscular route"
        },
        "status": "completed",
        "patient": {
          "reference": "Patient/8fc22482-3771-47bd-b8db-f2178bd1fe36",
          "display": "Pauliina Jäntti"
        },
        "occurrenceDateTime": "2019-02-17",
        "lotNumber": "QB-oCdOn",
        "expirationDate": "2019-03-22"
      }
    }
  ],
  "type": "document",
  "timestamp": "2025-06-17T11:26:49Z"
}
