{
  "resourceType": "Bundle",
  "id": "Instance-Bundle-d23edf50-bcd0-4eac-932d-f551b9a58203",
  "meta": {
    "profile": [
      "http://hl7.eu/fhir/eps/StructureDefinition/bundle-eu-eps"
    ]
  },
  "identifier": {
    "assigner": {
      "display": "HL7 Europe"
    },
    "system": "urn:oid:2.16.840.1.113883.2.51.999",
    "value": "ce8ceb72-0993-483f-b0f1-a8e0ff0dff83"
  },
  "entry": [
    {
      "fullUrl": "urn:uuid:5eda9fd5-9c6f-410b-bb50-c69a83071c1f",
      "resource": {
        "resourceType": "Composition",
        "id": "5eda9fd5-9c6f-410b-bb50-c69a83071c1f",
        "meta": {
          "profile": [
            "http://hl7.eu/fhir/eps/StructureDefinition/composition-eu-eps"
          ]
        },
        "identifier": {
          "assigner": {
            "display": "HL7 Europe"
          },
          "system": "urn:oid:2.16.840.1.113883.2.51.999",
          "value": "2fcbda74-9399-4457-8591-3ed37e9d4cdd"
        },
        "type": {
          "coding": [
            {
              "system": "http://loinc.org",
              "code": "60591-5",
              "display": "European Patient Summary"
            }
          ],
          "text": "European Patient Summary"
        },
        "author": [
          {
            "reference": "urn:uuid:cbf2374b-1f87-48ac-8e0b-7fcf6775a40f"
          }
        ],
        "section": [
          {
            "text": {
              "status": "generated",
              "div": "<div xmlns=\"http://www.w3.org/1999/xhtml\"><table class=\"hl7__ips\"><tr><td>Acute ST segment elevation myocardial infarction</td><td>2012-10-12</td><td>active</td></tr><tr><td>Ischemic heart disease</td><td>2002-01-13</td><td>active</td></tr><tr><td>Carcinoma in situ of prostate</td><td>2000-01-02</td><td>active</td></tr><tr><td>Neoplasm of prostate</td><td>2000-01-02</td><td>active</td></tr><tr><td>Hyperlipidemia</td><td>1990-11-11</td><td>active</td></tr><tr><td>Anemia</td><td>1971-01-17</td><td>active</td></tr><tr><td>Primary dental caries</td><td>2020-05-10</td><td>inactive</td></tr><tr><td>Polyp of colon</td><td>2017-01-19</td><td>inactive</td></tr></table></div>"
            },
            "entry": [
              {
                "reference": "urn:uuid:a569f222-63f0-4f89-b754-c5107066b2f7"
              },
              {
                "reference": "urn:uuid:f63fbf43-f329-46b9-8d43-d6ccea7f8afb"
              },
              {
                "reference": "urn:uuid:4e0b243c-cee6-4a57-90ae-9b5da0defb89"
              },
              {
                "reference": "urn:uuid:3c49bae3-80cb-4349-bea7-811e5570272f"
              },
              {
                "reference": "urn:uuid:3599a3bc-61a1-4de3-8293-46312fee7e25"
              },
              {
                "reference": "urn:uuid:0cc10e83-2fba-4cd3-b1de-aacedbdece7b"
              },
              {
                "reference": "urn:uuid:c154f197-6e30-47b8-84c0-8c670d3d3700"
              },
              {
                "reference": "urn:uuid:95674876-4e4f-4927-9722-2b0e649ad453"
              }
            ],
            "code": {
              "coding": [
                {
                  "system": "http://loinc.org",
                  "code": "11450-4",
                  "display": "Problem list - Reported"
                }
              ]
            },
            "title": "Problem list"
          },
          {
            "text": {
              "status": "generated",
              "div": "<div xmlns=\"http://www.w3.org/1999/xhtml\"><table class=\"hl7__ips\"><tr><td>Simvastatin 10 mg oral tablet</td><td>2024-05-20</td><td>Oral tablet</td><td>1 tablet (10 mg) by mouth once daily\"</td><td>Reason: Hyperlipidemia (disorder)</td></tr><tr><td>Lisinopril 40 mg oral tablet</td><td>2012-10-12</td><td>Oral tablet</td><td>1 tablet (40 mg) by mouth once daily\"</td><td></td></tr><tr><td>aspirin 81 MG Oral Tablet</td><td>2012-10-12</td><td></td><td>1 tablet (81 mg) by mouth once daily\"</td><td></td></tr><tr><td>Prasugrel (as prasugrel hydrochloride) 10 mg oral tablet</td><td>2012-10-12</td><td>Oral tablet</td><td>1 tablet (10 mg) once daily\"</td><td></td></tr><tr><td>Metoprolol tartrate 50 mg oral tablet</td><td>2012-10-12</td><td>Oral tablet</td><td>1 tablet (50 mg) by mouth twice daily\"</td><td></td></tr><tr><td>Pravastatin sodium 20 mg oral tablet</td><td>2012-10-12</td><td>Oral tablet</td><td>1 tablet (20 mg) by mouth once daily\"</td><td></td></tr><tr><td>Clopidogrel (as clopidogrel bisulfate) 75 mg oral tablet</td><td>2002-01-20</td><td>Oral tablet</td><td>1 tablet (75 mg) by mouth once daily\"</td><td></td></tr><tr><td>Simvastatin 20 mg oral tablet</td><td>2002-01-20</td><td>Oral tablet</td><td>1 tablet (20 mg) by mouth once daily\"</td><td></td></tr><tr><td>Nitroglycerin 400 microgram/actuation sublingual spray</td><td>2002-01-20</td><td>Sublingual spray</td><td>400 micrograms per spray, may repeat every 5 minutes as needed for chest pain, up to 3 sprays in 15 minutes\"</td><td></td></tr><tr><td>Metoprolol tartrate (as metoprolol succinate) 100 mg prolonged-release oral tablet</td><td>2002-01-20</td><td>Prolonged-release oral tablet</td><td>1 tablet (100 mg) once daily\"</td><td></td></tr></table></div>"
            },
            "entry": [
              {
                "reference": "urn:uuid:f83420e3-8ee4-4b45-a5fc-7b01788bdc1e"
              },
              {
                "reference": "urn:uuid:d8a8a37a-1a16-402c-80f8-72a9d6392da8"
              },
              {
                "reference": "urn:uuid:7c7c24af-d9f4-4f14-af75-965d83e3da97"
              },
              {
                "reference": "urn:uuid:f534acd7-af9e-4321-a93e-ad965968ab9d"
              },
              {
                "reference": "urn:uuid:b3e50460-1b16-4582-9269-f67f379c8e6a"
              },
              {
                "reference": "urn:uuid:b089b3d3-9dfd-46d1-b37d-46d8e105efe6"
              },
              {
                "reference": "urn:uuid:2659f93c-8fcc-418b-a484-e9e089d05f16"
              },
              {
                "reference": "urn:uuid:19b580e0-e9e0-45aa-af7e-4df804635339"
              },
              {
                "reference": "urn:uuid:27aa36b4-60f1-4b95-a211-0b310e6ea13d"
              },
              {
                "reference": "urn:uuid:ebf32b15-29e3-47d0-85a5-ddabe36e1ce6"
              }
            ],
            "code": {
              "coding": [
                {
                  "system": "http://loinc.org",
                  "code": "10160-0",
                  "display": "History of Medication use Narrative"
                }
              ]
            },
            "title": "Medication list"
          },
          {
            "text": {
              "status": "generated",
              "div": "<div xmlns=\"http://www.w3.org/1999/xhtml\"><table class=\"hl7__ips\"><tr><td>No known allergies or intolerances</td></tr></table></div>"
            },
            "entry": [
              {
                "reference": "urn:uuid:1ecf7657-f41e-456a-b3d3-cb769c846471"
              }
            ],
            "code": {
              "coding": [
                {
                  "system": "http://loinc.org",
                  "code": "48765-2",
                  "display": "Allergies and adverse reactions Document"
                }
              ]
            },
            "title": "Allergies and Intolerances"
          },
          {
            "text": {
              "status": "generated",
              "div": "<div xmlns=\"http://www.w3.org/1999/xhtml\"><table class=\"hl7__ips\"><tr><td>Patient discharge</td><td>2024-12-19</td><td>-</td></tr><tr><td>Hospice care</td><td>2024-12-18</td><td>-</td></tr><tr><td>Notifications</td><td>2024-11-10</td><td>-</td></tr><tr><td>Certification procedure</td><td>2024-11-10</td><td>-</td></tr><tr><td>Initial patient assessment</td><td>2024-11-10</td><td>-</td></tr><tr><td>Development of individualized plan of care</td><td>2024-11-10</td><td>-</td></tr></table></div>"
            },
            "entry": [
              {
                "reference": "urn:uuid:4c599cec-a738-491a-997a-8ca6e98f67fc"
              },
              {
                "reference": "urn:uuid:15e9d22a-147d-4156-8357-55736e4aa2aa"
              },
              {
                "reference": "urn:uuid:c71b0ca2-76fc-4d3f-849d-9750e6194854"
              },
              {
                "reference": "urn:uuid:104d3e8b-6ed7-492b-8fab-2cf8d97db491"
              },
              {
                "reference": "urn:uuid:e551e34f-5c63-4b9d-a98c-c2f11e370467"
              },
              {
                "reference": "urn:uuid:e7b4568d-1f9b-417b-8ff7-1fa26e456387"
              }
            ],
            "code": {
              "coding": [
                {
                  "system": "http://loinc.org",
                  "code": "47519-4",
                  "display": "History of Procedures Document"
                }
              ]
            },
            "title": "Procedure History list"
          },
          {
            "text": {
              "status": "generated",
              "div": "<div xmlns=\"http://www.w3.org/1999/xhtml\"><table class=\"hl7__ips\"><tr><td>Influenza virus antigen only vaccine product</td><td>2024-05-19</td></tr><tr><td>Clostridium tetani toxoid antigen adsorbed only vaccine product</td><td>2021-05-02</td></tr><tr><td>SARS-CoV-2 mRNA vaccine</td><td>2021-02-21</td></tr></table></div>"
            },
            "entry": [
              {
                "reference": "urn:uuid:7bbe24ad-2527-4101-8c53-ea8487672166"
              },
              {
                "reference": "urn:uuid:7ad9f240-4b87-4141-85a1-a7efcfde65af"
              },
              {
                "reference": "urn:uuid:1e1e38a8-5a7c-4098-b246-ae85d6a6f25c"
              }
            ],
            "code": {
              "coding": [
                {
                  "system": "http://loinc.org",
                  "code": "11369-6",
                  "display": "History of Immunization Narrative"
                }
              ]
            },
            "title": "Immunizations list"
          }
        ],
        "title": "European Patient Summary",
        "status": "final",
        "subject": {
          "reference": "urn:uuid:c91535d3-f657-423c-98cc-14f2b91d1459"
        },
        "custodian": {
          "reference": "urn:uuid:461f8a9b-7d86-4045-9bab-b2edf9f9893c"
        },
        "date": "2025-06-16T17:19:49Z",
        "confidentiality": "N"
      }
    },
    {
      "fullUrl": "urn:uuid:c91535d3-f657-423c-98cc-14f2b91d1459",
      "resource": {
        "resourceType": "Patient",
        "id": "c91535d3-f657-423c-98cc-14f2b91d1459",
        "meta": {
          "profile": [
            "http://hl7.eu/fhir/eps/StructureDefinition/patient-eu-eps"
          ]
        },
        "identifier": [
          {
            "type": {
              "coding": [
                {
                  "code": "NI",
                  "system": "http://terminology.hl7.org/CodeSystem/v2-0203"
                }
              ]
            },
            "system": "http://ec.europa.eu/identifier/eci",
            "value": "9943-935126-5"
          },
          {
            "type": {
              "coding": [
                {
                  "code": "MR",
                  "system": "http://terminology.hl7.org/CodeSystem/v2-0203"
                }
              ]
            },
            "system": "http://local.setting.eu/identifier",
            "value": "bab43d6e-e0ca-eb91-ab2f-2450ac8c3036"
          }
        ],
        "name": [
          {
            "given": [
              "Bent"
            ],
            "family": "Bertelsen",
            "text": "Bent Bertelsen"
          }
        ],
        "address": [
          {
            "line": [
              "Bygget 41"
            ],
            "use": "home",
            "type": "physical",
            "city": "Lagan",
            "postalCode": "340 14",
            "country": "Sweden"
          }
        ],
        "telecom": [
          {
            "system": "phone",
            "value": "+46 0372-4163087"
          }
        ],
        "gender": "male",
        "birthDate": "1942-09-12"
      }
    },
    {
      "fullUrl": "urn:uuid:cbf2374b-1f87-48ac-8e0b-7fcf6775a40f",
      "resource": {
        "resourceType": "PractitionerRole",
        "id": "cbf2374b-1f87-48ac-8e0b-7fcf6775a40f",
        "meta": {
          "profile": [
            "http://hl7.eu/fhir/base/StructureDefinition/practitionerRole-eu"
          ]
        },
        "practitioner": {
          "reference": "urn:uuid:122a7049-1132-4887-b0d3-4a44b66e3b93"
        },
        "organization": {
          "reference": "urn:uuid:461f8a9b-7d86-4045-9bab-b2edf9f9893c"
        }
      }
    },
    {
      "fullUrl": "urn:uuid:122a7049-1132-4887-b0d3-4a44b66e3b93",
      "resource": {
        "resourceType": "Practitioner",
        "id": "122a7049-1132-4887-b0d3-4a44b66e3b93",
        "meta": {
          "profile": [
            "http://hl7.eu/fhir/base/StructureDefinition/practitioner-eu"
          ]
        },
        "name": [
          {
            "prefix": [
              "Dr."
            ],
            "given": [
              "Hel"
            ],
            "family": "Ping"
          }
        ]
      }
    },
    {
      "fullUrl": "urn:uuid:a569f222-63f0-4f89-b754-c5107066b2f7",
      "resource": {
        "resourceType": "Condition",
        "id": "a569f222-63f0-4f89-b754-c5107066b2f7",
        "meta": {
          "profile": [
            "http://hl7.org/fhir/uv/ips/StructureDefinition/Condition-uv-ips"
          ]
        },
        "category": [
          {
            "coding": [
              {
                "code": "problem-list-item",
                "system": "http://terminology.hl7.org/CodeSystem/condition-category",
                "display": "Problem List Item"
              }
            ]
          }
        ],
        "code": {
          "coding": [
            {
              "code": "401303003",
              "system": "http://snomed.info/sct",
              "display": "Acute ST segment elevation myocardial infarction (disorder)"
            }
          ],
          "text": "Acute ST segment elevation myocardial infarction"
        },
        "onsetDateTime": "2012-10-12",
        "clinicalStatus": {
          "coding": [
            {
              "code": "active",
              "system": "http://terminology.hl7.org/CodeSystem/condition-clinical"
            }
          ]
        },
        "subject": {
          "reference": "Patient/c91535d3-f657-423c-98cc-14f2b91d1459",
          "display": "Bent Bertelsen"
        },
        "asserter": {
          "reference": "Practitioner/122a7049-1132-4887-b0d3-4a44b66e3b93",
          "display": "Dr. Hel Ping"
        }
      }
    },
    {
      "fullUrl": "urn:uuid:f63fbf43-f329-46b9-8d43-d6ccea7f8afb",
      "resource": {
        "resourceType": "Condition",
        "id": "f63fbf43-f329-46b9-8d43-d6ccea7f8afb",
        "meta": {
          "profile": [
            "http://hl7.org/fhir/uv/ips/StructureDefinition/Condition-uv-ips"
          ]
        },
        "category": [
          {
            "coding": [
              {
                "code": "problem-list-item",
                "system": "http://terminology.hl7.org/CodeSystem/condition-category",
                "display": "Problem List Item"
              }
            ]
          }
        ],
        "code": {
          "coding": [
            {
              "code": "414545008",
              "system": "http://snomed.info/sct",
              "display": "Ischemic heart disease (disorder)"
            }
          ],
          "text": "Ischemic heart disease"
        },
        "onsetDateTime": "2002-01-13",
        "clinicalStatus": {
          "coding": [
            {
              "code": "active",
              "system": "http://terminology.hl7.org/CodeSystem/condition-clinical"
            }
          ]
        },
        "subject": {
          "reference": "Patient/c91535d3-f657-423c-98cc-14f2b91d1459",
          "display": "Bent Bertelsen"
        },
        "asserter": {
          "reference": "Practitioner/122a7049-1132-4887-b0d3-4a44b66e3b93",
          "display": "Dr. Hel Ping"
        }
      }
    },
    {
      "fullUrl": "urn:uuid:4e0b243c-cee6-4a57-90ae-9b5da0defb89",
      "resource": {
        "resourceType": "Condition",
        "id": "4e0b243c-cee6-4a57-90ae-9b5da0defb89",
        "meta": {
          "profile": [
            "http://hl7.org/fhir/uv/ips/StructureDefinition/Condition-uv-ips"
          ]
        },
        "category": [
          {
            "coding": [
              {
                "code": "problem-list-item",
                "system": "http://terminology.hl7.org/CodeSystem/condition-category",
                "display": "Problem List Item"
              }
            ]
          }
        ],
        "code": {
          "coding": [
            {
              "code": "92691004",
              "system": "http://snomed.info/sct",
              "display": "Carcinoma in situ of prostate (disorder)"
            }
          ],
          "text": "Carcinoma in situ of prostate"
        },
        "onsetDateTime": "2000-01-02",
        "clinicalStatus": {
          "coding": [
            {
              "code": "active",
              "system": "http://terminology.hl7.org/CodeSystem/condition-clinical"
            }
          ]
        },
        "subject": {
          "reference": "Patient/c91535d3-f657-423c-98cc-14f2b91d1459",
          "display": "Bent Bertelsen"
        },
        "asserter": {
          "reference": "Practitioner/122a7049-1132-4887-b0d3-4a44b66e3b93",
          "display": "Dr. Hel Ping"
        }
      }
    },
    {
      "fullUrl": "urn:uuid:3c49bae3-80cb-4349-bea7-811e5570272f",
      "resource": {
        "resourceType": "Condition",
        "id": "3c49bae3-80cb-4349-bea7-811e5570272f",
        "meta": {
          "profile": [
            "http://hl7.org/fhir/uv/ips/StructureDefinition/Condition-uv-ips"
          ]
        },
        "category": [
          {
            "coding": [
              {
                "code": "problem-list-item",
                "system": "http://terminology.hl7.org/CodeSystem/condition-category",
                "display": "Problem List Item"
              }
            ]
          }
        ],
        "code": {
          "coding": [
            {
              "code": "126906006",
              "system": "http://snomed.info/sct",
              "display": "Neoplasm of prostate (disorder)"
            }
          ],
          "text": "Neoplasm of prostate"
        },
        "onsetDateTime": "2000-01-02",
        "clinicalStatus": {
          "coding": [
            {
              "code": "active",
              "system": "http://terminology.hl7.org/CodeSystem/condition-clinical"
            }
          ]
        },
        "subject": {
          "reference": "Patient/c91535d3-f657-423c-98cc-14f2b91d1459",
          "display": "Bent Bertelsen"
        },
        "asserter": {
          "reference": "Practitioner/122a7049-1132-4887-b0d3-4a44b66e3b93",
          "display": "Dr. Hel Ping"
        }
      }
    },
    {
      "fullUrl": "urn:uuid:3599a3bc-61a1-4de3-8293-46312fee7e25",
      "resource": {
        "resourceType": "Condition",
        "id": "3599a3bc-61a1-4de3-8293-46312fee7e25",
        "meta": {
          "profile": [
            "http://hl7.org/fhir/uv/ips/StructureDefinition/Condition-uv-ips"
          ]
        },
        "category": [
          {
            "coding": [
              {
                "code": "problem-list-item",
                "system": "http://terminology.hl7.org/CodeSystem/condition-category",
                "display": "Problem List Item"
              }
            ]
          }
        ],
        "code": {
          "coding": [
            {
              "code": "55822004",
              "system": "http://snomed.info/sct",
              "display": "Hyperlipidemia (disorder)"
            }
          ],
          "text": "Hyperlipidemia"
        },
        "onsetDateTime": "1990-11-11",
        "clinicalStatus": {
          "coding": [
            {
              "code": "active",
              "system": "http://terminology.hl7.org/CodeSystem/condition-clinical"
            }
          ]
        },
        "subject": {
          "reference": "Patient/c91535d3-f657-423c-98cc-14f2b91d1459",
          "display": "Bent Bertelsen"
        },
        "asserter": {
          "reference": "Practitioner/122a7049-1132-4887-b0d3-4a44b66e3b93",
          "display": "Dr. Hel Ping"
        }
      }
    },
    {
      "fullUrl": "urn:uuid:0cc10e83-2fba-4cd3-b1de-aacedbdece7b",
      "resource": {
        "resourceType": "Condition",
        "id": "0cc10e83-2fba-4cd3-b1de-aacedbdece7b",
        "meta": {
          "profile": [
            "http://hl7.org/fhir/uv/ips/StructureDefinition/Condition-uv-ips"
          ]
        },
        "category": [
          {
            "coding": [
              {
                "code": "problem-list-item",
                "system": "http://terminology.hl7.org/CodeSystem/condition-category",
                "display": "Problem List Item"
              }
            ]
          }
        ],
        "code": {
          "coding": [
            {
              "code": "271737000",
              "system": "http://snomed.info/sct",
              "display": "Anemia (disorder)"
            }
          ],
          "text": "Anemia"
        },
        "onsetDateTime": "1971-01-17",
        "clinicalStatus": {
          "coding": [
            {
              "code": "active",
              "system": "http://terminology.hl7.org/CodeSystem/condition-clinical"
            }
          ]
        },
        "subject": {
          "reference": "Patient/c91535d3-f657-423c-98cc-14f2b91d1459",
          "display": "Bent Bertelsen"
        },
        "asserter": {
          "reference": "Practitioner/122a7049-1132-4887-b0d3-4a44b66e3b93",
          "display": "Dr. Hel Ping"
        }
      }
    },
    {
      "fullUrl": "urn:uuid:c154f197-6e30-47b8-84c0-8c670d3d3700",
      "resource": {
        "resourceType": "Condition",
        "id": "c154f197-6e30-47b8-84c0-8c670d3d3700",
        "meta": {
          "profile": [
            "http://hl7.org/fhir/uv/ips/StructureDefinition/Condition-uv-ips"
          ]
        },
        "category": [
          {
            "coding": [
              {
                "code": "problem-list-item",
                "system": "http://terminology.hl7.org/CodeSystem/condition-category",
                "display": "Problem List Item"
              }
            ]
          }
        ],
        "code": {
          "coding": [
            {
              "code": "109570002",
              "system": "http://snomed.info/sct",
              "display": "Primary dental caries (disorder)"
            }
          ],
          "text": "Primary dental caries"
        },
        "onsetDateTime": "2020-05-10",
        "clinicalStatus": {
          "coding": [
            {
              "code": "inactive",
              "system": "http://terminology.hl7.org/CodeSystem/condition-clinical"
            }
          ]
        },
        "subject": {
          "reference": "Patient/c91535d3-f657-423c-98cc-14f2b91d1459",
          "display": "Bent Bertelsen"
        },
        "asserter": {
          "reference": "Practitioner/122a7049-1132-4887-b0d3-4a44b66e3b93",
          "display": "Dr. Hel Ping"
        }
      }
    },
    {
      "fullUrl": "urn:uuid:95674876-4e4f-4927-9722-2b0e649ad453",
      "resource": {
        "resourceType": "Condition",
        "id": "95674876-4e4f-4927-9722-2b0e649ad453",
        "meta": {
          "profile": [
            "http://hl7.org/fhir/uv/ips/StructureDefinition/Condition-uv-ips"
          ]
        },
        "category": [
          {
            "coding": [
              {
                "code": "problem-list-item",
                "system": "http://terminology.hl7.org/CodeSystem/condition-category",
                "display": "Problem List Item"
              }
            ]
          }
        ],
        "code": {
          "coding": [
            {
              "code": "68496003",
              "system": "http://snomed.info/sct",
              "display": "Polyp of colon (disorder)"
            }
          ],
          "text": "Polyp of colon"
        },
        "onsetDateTime": "2017-01-19",
        "clinicalStatus": {
          "coding": [
            {
              "code": "inactive",
              "system": "http://terminology.hl7.org/CodeSystem/condition-clinical"
            }
          ]
        },
        "subject": {
          "reference": "Patient/c91535d3-f657-423c-98cc-14f2b91d1459",
          "display": "Bent Bertelsen"
        },
        "asserter": {
          "reference": "Practitioner/122a7049-1132-4887-b0d3-4a44b66e3b93",
          "display": "Dr. Hel Ping"
        }
      }
    },
    {
      "fullUrl": "urn:uuid:1e20030f-afb0-439c-bd69-827749d905ae",
      "resource": {
        "resourceType": "Medication",
        "id": "1e20030f-afb0-439c-bd69-827749d905ae",
        "meta": {
          "profile": [
            "http://hl7.org/fhir/uv/ips/StructureDefinition/Medication-uv-ips"
          ]
        },
        "code": {
          "coding": [
            {
              "code": "314231",
              "system": "http://www.nlm.nih.gov/research/umls/rxnorm",
              "display": "simvastatin 10 MG Oral Tablet"
            },
            {
              "code": "319996000",
              "system": "http://snomed.info/sct",
              "display": "Product containing precisely simvastatin 10 milligram/1 each conventional release oral tablet (clinical drug)"
            }
          ],
          "text": "Simvastatin 10 mg oral tablet"
        },
        "form": {
          "coding": [
            {
              "code": "421026006",
              "system": "http://snomed.info/sct",
              "display": "Oral tablet"
            }
          ]
        },
        "ingredient": [
          {
            "itemCodeableConcept": {
              "coding": [
                {
                  "code": "387584000",
                  "system": "http://snomed.info/sct",
                  "display": "Simvastatin"
                }
              ]
            },
            "isActive": true
          }
        ]
      }
    },
    {
      "fullUrl": "urn:uuid:f83420e3-8ee4-4b45-a5fc-7b01788bdc1e",
      "resource": {
        "resourceType": "MedicationStatement",
        "id": "f83420e3-8ee4-4b45-a5fc-7b01788bdc1e",
        "effectivePeriod": {
          "start": "2024-05-20"
        },
        "dosage": [
          {
            "doseAndRate": [
              {
                "doseQuantity": {
                  "value": 1,
                  "unit": "{tbl}",
                  "code": "{tbl}"
                }
              }
            ],
            "timing": {
              "repeat": {
                "frequency": 1,
                "period": 1,
                "periodUnit": "d"
              }
            },
            "text": "1 tablet (10 mg) by mouth once daily",
            "asNeededBoolean": false
          }
        ],
        "reasonCode": [
          {
            "coding": [
              {
                "code": "55822004",
                "system": "http://snomed.info/sct",
                "display": "Hyperlipidemia (disorder)"
              }
            ]
          }
        ],
        "status": "active",
        "medicationReference": {
          "reference": "Medication/1e20030f-afb0-439c-bd69-827749d905ae",
          "display": "Simvastatin 10 mg oral tablet"
        },
        "subject": {
          "reference": "Patient/c91535d3-f657-423c-98cc-14f2b91d1459",
          "display": "Bent Bertelsen"
        }
      }
    },
    {
      "fullUrl": "urn:uuid:bb847d06-c924-4c05-8c45-2d898735961a",
      "resource": {
        "resourceType": "Medication",
        "id": "bb847d06-c924-4c05-8c45-2d898735961a",
        "meta": {
          "profile": [
            "http://hl7.org/fhir/uv/ips/StructureDefinition/Medication-uv-ips"
          ]
        },
        "code": {
          "coding": [
            {
              "code": "197884",
              "system": "http://www.nlm.nih.gov/research/umls/rxnorm",
              "display": "lisinopril 40 MG Oral Tablet"
            },
            {
              "code": "376772000",
              "system": "http://snomed.info/sct",
              "display": "Product containing precisely lisinopril 40 milligram/1 each conventional release oral tablet (clinical drug)"
            }
          ],
          "text": "Lisinopril 40 mg oral tablet"
        },
        "form": {
          "coding": [
            {
              "code": "421026006",
              "system": "http://snomed.info/sct",
              "display": "Oral tablet"
            }
          ]
        },
        "ingredient": [
          {
            "itemCodeableConcept": {
              "coding": [
                {
                  "code": "386873009",
                  "system": "http://snomed.info/sct",
                  "display": "Lisinopril"
                }
              ]
            },
            "isActive": true
          }
        ]
      }
    },
    {
      "fullUrl": "urn:uuid:d8a8a37a-1a16-402c-80f8-72a9d6392da8",
      "resource": {
        "resourceType": "MedicationStatement",
        "id": "d8a8a37a-1a16-402c-80f8-72a9d6392da8",
        "effectivePeriod": {
          "start": "2012-10-12"
        },
        "dosage": [
          {
            "doseAndRate": [
              {
                "doseQuantity": {
                  "value": 1,
                  "unit": "{tbl}",
                  "code": "{tbl}"
                }
              }
            ],
            "timing": {
              "repeat": {
                "frequency": 1,
                "period": 1,
                "periodUnit": "d"
              }
            },
            "text": "1 tablet (40 mg) by mouth once daily",
            "asNeededBoolean": false
          }
        ],
        "status": "active",
        "medicationReference": {
          "reference": "Medication/bb847d06-c924-4c05-8c45-2d898735961a",
          "display": "Lisinopril 40 mg oral tablet"
        },
        "subject": {
          "reference": "Patient/c91535d3-f657-423c-98cc-14f2b91d1459",
          "display": "Bent Bertelsen"
        }
      }
    },
    {
      "fullUrl": "urn:uuid:b0a10661-5592-4491-a3a6-e7231fb1081a",
      "resource": {
        "resourceType": "Medication",
        "id": "b0a10661-5592-4491-a3a6-e7231fb1081a",
        "meta": {
          "profile": [
            "http://hl7.org/fhir/uv/ips/StructureDefinition/Medication-uv-ips"
          ]
        },
        "code": {
          "coding": [
            {
              "code": "243670",
              "system": "http://www.nlm.nih.gov/research/umls/rxnorm",
              "display": "aspirin 81 MG Oral Tablet"
            }
          ],
          "text": "aspirin 81 MG Oral Tablet"
        }
      }
    },
    {
      "fullUrl": "urn:uuid:7c7c24af-d9f4-4f14-af75-965d83e3da97",
      "resource": {
        "resourceType": "MedicationStatement",
        "id": "7c7c24af-d9f4-4f14-af75-965d83e3da97",
        "effectivePeriod": {
          "start": "2012-10-12"
        },
        "dosage": [
          {
            "doseAndRate": [
              {
                "doseQuantity": {
                  "value": 1,
                  "unit": "{tbl}",
                  "code": "{tbl}"
                }
              }
            ],
            "timing": {
              "repeat": {
                "frequency": 1,
                "period": 1,
                "periodUnit": "d"
              }
            },
            "text": "1 tablet (81 mg) by mouth once daily",
            "asNeededBoolean": false
          }
        ],
        "status": "active",
        "medicationReference": {
          "reference": "Medication/b0a10661-5592-4491-a3a6-e7231fb1081a",
          "display": "aspirin 81 MG Oral Tablet"
        },
        "subject": {
          "reference": "Patient/c91535d3-f657-423c-98cc-14f2b91d1459",
          "display": "Bent Bertelsen"
        }
      }
    },
    {
      "fullUrl": "urn:uuid:14fd98bb-7e91-4743-b2d6-9cb88a87c1fd",
      "resource": {
        "resourceType": "Medication",
        "id": "14fd98bb-7e91-4743-b2d6-9cb88a87c1fd",
        "meta": {
          "profile": [
            "http://hl7.org/fhir/uv/ips/StructureDefinition/Medication-uv-ips"
          ]
        },
        "code": {
          "coding": [
            {
              "code": "855812",
              "system": "http://www.nlm.nih.gov/research/umls/rxnorm",
              "display": "prasugrel 10 MG Oral Tablet"
            },
            {
              "code": "783368008",
              "system": "http://snomed.info/sct",
              "display": "Product containing precisely prasugrel (as prasugrel hydrochloride) 10 milligram/1 each conventional release oral tablet (clinical drug)"
            }
          ],
          "text": "Prasugrel (as prasugrel hydrochloride) 10 mg oral tablet"
        },
        "form": {
          "coding": [
            {
              "code": "421026006",
              "system": "http://snomed.info/sct",
              "display": "Oral tablet"
            }
          ]
        },
        "ingredient": [
          {
            "itemCodeableConcept": {
              "coding": [
                {
                  "code": "735166002",
                  "system": "http://snomed.info/sct",
                  "display": "Prasugrel hydrochloride"
                }
              ]
            },
            "isActive": true
          }
        ]
      }
    },
    {
      "fullUrl": "urn:uuid:f534acd7-af9e-4321-a93e-ad965968ab9d",
      "resource": {
        "resourceType": "MedicationStatement",
        "id": "f534acd7-af9e-4321-a93e-ad965968ab9d",
        "effectivePeriod": {
          "start": "2012-10-12"
        },
        "dosage": [
          {
            "doseAndRate": [
              {
                "doseQuantity": {
                  "value": 1,
                  "unit": "{tbl}",
                  "code": "{tbl}"
                }
              }
            ],
            "timing": {
              "repeat": {
                "frequency": 1,
                "period": 1,
                "periodUnit": "d"
              }
            },
            "text": "1 tablet (10 mg) once daily",
            "asNeededBoolean": false
          }
        ],
        "status": "active",
        "medicationReference": {
          "reference": "Medication/14fd98bb-7e91-4743-b2d6-9cb88a87c1fd",
          "display": "Prasugrel (as prasugrel hydrochloride) 10 mg oral tablet"
        },
        "subject": {
          "reference": "Patient/c91535d3-f657-423c-98cc-14f2b91d1459",
          "display": "Bent Bertelsen"
        }
      }
    },
    {
      "fullUrl": "urn:uuid:8c416afd-615e-4ab6-a0fe-e781a7917fde",
      "resource": {
        "resourceType": "Medication",
        "id": "8c416afd-615e-4ab6-a0fe-e781a7917fde",
        "meta": {
          "profile": [
            "http://hl7.org/fhir/uv/ips/StructureDefinition/Medication-uv-ips"
          ]
        },
        "code": {
          "coding": [
            {
              "code": "866514",
              "system": "http://www.nlm.nih.gov/research/umls/rxnorm",
              "display": "metoprolol tartrate 50 MG Oral Tablet"
            },
            {
              "code": "318475005",
              "system": "http://snomed.info/sct",
              "display": "Product containing precisely metoprolol tartrate 50 milligram/1 each conventional release oral tablet (clinical drug)"
            }
          ],
          "text": "Metoprolol tartrate 50 mg oral tablet"
        },
        "form": {
          "coding": [
            {
              "code": "421026006",
              "system": "http://snomed.info/sct",
              "display": "Oral tablet"
            }
          ]
        },
        "ingredient": [
          {
            "itemCodeableConcept": {
              "coding": [
                {
                  "code": "72770009",
                  "system": "http://snomed.info/sct",
                  "display": "Metoprolol tartrate"
                }
              ]
            },
            "isActive": true
          }
        ]
      }
    },
    {
      "fullUrl": "urn:uuid:b3e50460-1b16-4582-9269-f67f379c8e6a",
      "resource": {
        "resourceType": "MedicationStatement",
        "id": "b3e50460-1b16-4582-9269-f67f379c8e6a",
        "effectivePeriod": {
          "start": "2012-10-12"
        },
        "dosage": [
          {
            "doseAndRate": [
              {
                "doseQuantity": {
                  "value": 1,
                  "unit": "{tbl}",
                  "code": "{tbl}"
                }
              }
            ],
            "timing": {
              "repeat": {
                "frequency": 2,
                "period": 1,
                "periodUnit": "d"
              }
            },
            "text": "1 tablet (50 mg) by mouth twice daily",
            "asNeededBoolean": false
          }
        ],
        "status": "active",
        "medicationReference": {
          "reference": "Medication/8c416afd-615e-4ab6-a0fe-e781a7917fde",
          "display": "Metoprolol tartrate 50 mg oral tablet"
        },
        "subject": {
          "reference": "Patient/c91535d3-f657-423c-98cc-14f2b91d1459",
          "display": "Bent Bertelsen"
        }
      }
    },
    {
      "fullUrl": "urn:uuid:2afcedc2-0cd4-4af1-89da-6fc9e0c7fcbe",
      "resource": {
        "resourceType": "Medication",
        "id": "2afcedc2-0cd4-4af1-89da-6fc9e0c7fcbe",
        "meta": {
          "profile": [
            "http://hl7.org/fhir/uv/ips/StructureDefinition/Medication-uv-ips"
          ]
        },
        "code": {
          "coding": [
            {
              "code": "904467",
              "system": "http://www.nlm.nih.gov/research/umls/rxnorm",
              "display": "pravastatin sodium 20 MG Oral Tablet"
            },
            {
              "code": "320013003",
              "system": "http://snomed.info/sct",
              "display": "Product containing precisely pravastatin sodium 20 milligram/1 each conventional release oral tablet (clinical drug)"
            }
          ],
          "text": "Pravastatin sodium 20 mg oral tablet"
        },
        "form": {
          "coding": [
            {
              "code": "421026006",
              "system": "http://snomed.info/sct",
              "display": "Oral tablet"
            }
          ]
        },
        "ingredient": [
          {
            "itemCodeableConcept": {
              "coding": [
                {
                  "code": "96306007",
                  "system": "http://snomed.info/sct",
                  "display": "Pravastatin sodium"
                }
              ]
            },
            "isActive": true
          }
        ]
      }
    },
    {
      "fullUrl": "urn:uuid:b089b3d3-9dfd-46d1-b37d-46d8e105efe6",
      "resource": {
        "resourceType": "MedicationStatement",
        "id": "b089b3d3-9dfd-46d1-b37d-46d8e105efe6",
        "effectivePeriod": {
          "start": "2012-10-12"
        },
        "dosage": [
          {
            "doseAndRate": [
              {
                "doseQuantity": {
                  "value": 1,
                  "unit": "{tbl}",
                  "code": "{tbl}"
                }
              }
            ],
            "timing": {
              "repeat": {
                "frequency": 1,
                "period": 1,
                "periodUnit": "d"
              }
            },
            "text": "1 tablet (20 mg) by mouth once daily",
            "asNeededBoolean": false
          }
        ],
        "status": "active",
        "medicationReference": {
          "reference": "Medication/2afcedc2-0cd4-4af1-89da-6fc9e0c7fcbe",
          "display": "Pravastatin sodium 20 mg oral tablet"
        },
        "subject": {
          "reference": "Patient/c91535d3-f657-423c-98cc-14f2b91d1459",
          "display": "Bent Bertelsen"
        }
      }
    },
    {
      "fullUrl": "urn:uuid:06005c46-3c57-4851-af95-69bcaf3c469d",
      "resource": {
        "resourceType": "Medication",
        "id": "06005c46-3c57-4851-af95-69bcaf3c469d",
        "meta": {
          "profile": [
            "http://hl7.org/fhir/uv/ips/StructureDefinition/Medication-uv-ips"
          ]
        },
        "code": {
          "coding": [
            {
              "code": "309362",
              "system": "http://www.nlm.nih.gov/research/umls/rxnorm",
              "display": "clopidogrel 75 MG Oral Tablet"
            },
            {
              "code": "783586007",
              "system": "http://snomed.info/sct",
              "display": "Product containing precisely clopidogrel (as clopidogrel bisulfate) 75 milligram/1 each conventional release oral tablet (clinical drug)"
            }
          ],
          "text": "Clopidogrel (as clopidogrel bisulfate) 75 mg oral tablet"
        },
        "form": {
          "coding": [
            {
              "code": "421026006",
              "system": "http://snomed.info/sct",
              "display": "Oral tablet"
            }
          ]
        },
        "ingredient": [
          {
            "itemCodeableConcept": {
              "coding": [
                {
                  "code": "412354008",
                  "system": "http://snomed.info/sct",
                  "display": "Clopidogrel bisulfate"
                }
              ]
            },
            "isActive": true
          }
        ]
      }
    },
    {
      "fullUrl": "urn:uuid:2659f93c-8fcc-418b-a484-e9e089d05f16",
      "resource": {
        "resourceType": "MedicationStatement",
        "id": "2659f93c-8fcc-418b-a484-e9e089d05f16",
        "effectivePeriod": {
          "start": "2002-01-20"
        },
        "dosage": [
          {
            "doseAndRate": [
              {
                "doseQuantity": {
                  "value": 1,
                  "unit": "{tbl}",
                  "code": "{tbl}"
                }
              }
            ],
            "timing": {
              "repeat": {
                "frequency": 1,
                "period": 1,
                "periodUnit": "d"
              }
            },
            "text": "1 tablet (75 mg) by mouth once daily",
            "asNeededBoolean": false
          }
        ],
        "status": "active",
        "medicationReference": {
          "reference": "Medication/06005c46-3c57-4851-af95-69bcaf3c469d",
          "display": "Clopidogrel (as clopidogrel bisulfate) 75 mg oral tablet"
        },
        "subject": {
          "reference": "Patient/c91535d3-f657-423c-98cc-14f2b91d1459",
          "display": "Bent Bertelsen"
        }
      }
    },
    {
      "fullUrl": "urn:uuid:a98a8a05-16a0-45e2-9452-882763a28820",
      "resource": {
        "resourceType": "Medication",
        "id": "a98a8a05-16a0-45e2-9452-882763a28820",
        "meta": {
          "profile": [
            "http://hl7.org/fhir/uv/ips/StructureDefinition/Medication-uv-ips"
          ]
        },
        "code": {
          "coding": [
            {
              "code": "312961",
              "system": "http://www.nlm.nih.gov/research/umls/rxnorm",
              "display": "simvastatin 20 MG Oral Tablet"
            },
            {
              "code": "319997009",
              "system": "http://snomed.info/sct",
              "display": "Product containing precisely simvastatin 20 milligram/1 each conventional release oral tablet (clinical drug)"
            }
          ],
          "text": "Simvastatin 20 mg oral tablet"
        },
        "form": {
          "coding": [
            {
              "code": "421026006",
              "system": "http://snomed.info/sct",
              "display": "Oral tablet"
            }
          ]
        },
        "ingredient": [
          {
            "itemCodeableConcept": {
              "coding": [
                {
                  "code": "387584000",
                  "system": "http://snomed.info/sct",
                  "display": "Simvastatin"
                }
              ]
            },
            "isActive": true
          }
        ]
      }
    },
    {
      "fullUrl": "urn:uuid:19b580e0-e9e0-45aa-af7e-4df804635339",
      "resource": {
        "resourceType": "MedicationStatement",
        "id": "19b580e0-e9e0-45aa-af7e-4df804635339",
        "effectivePeriod": {
          "start": "2002-01-20"
        },
        "dosage": [
          {
            "doseAndRate": [
              {
                "doseQuantity": {
                  "value": 1,
                  "unit": "{tbl}",
                  "code": "{tbl}"
                }
              }
            ],
            "timing": {
              "repeat": {
                "frequency": 1,
                "period": 1,
                "periodUnit": "d"
              }
            },
            "text": "1 tablet (20 mg) by mouth once daily",
            "asNeededBoolean": false
          }
        ],
        "status": "active",
        "medicationReference": {
          "reference": "Medication/a98a8a05-16a0-45e2-9452-882763a28820",
          "display": "Simvastatin 20 mg oral tablet"
        },
        "subject": {
          "reference": "Patient/c91535d3-f657-423c-98cc-14f2b91d1459",
          "display": "Bent Bertelsen"
        }
      }
    },
    {
      "fullUrl": "urn:uuid:dfd6ba52-8a06-40ae-b151-0f966c7116b2",
      "resource": {
        "resourceType": "Medication",
        "id": "dfd6ba52-8a06-40ae-b151-0f966c7116b2",
        "meta": {
          "profile": [
            "http://hl7.org/fhir/uv/ips/StructureDefinition/Medication-uv-ips"
          ]
        },
        "code": {
          "coding": [
            {
              "code": "705129",
              "system": "http://www.nlm.nih.gov/research/umls/rxnorm",
              "display": "nitroglycerin 0.4 MG/ACTUAT Mucosal Spray"
            },
            {
              "code": "425176000",
              "system": "http://snomed.info/sct",
              "display": "Product containing precisely glyceryl trinitrate 400 microgram/1 actuation conventional release sublingual spray (clinical drug)"
            }
          ],
          "text": "Nitroglycerin 400 microgram/actuation sublingual spray"
        },
        "form": {
          "coding": [
            {
              "code": "385074009",
              "system": "http://snomed.info/sct",
              "display": "Sublingual spray"
            }
          ]
        },
        "ingredient": [
          {
            "itemCodeableConcept": {
              "coding": [
                {
                  "code": "387404004",
                  "system": "http://snomed.info/sct",
                  "display": "Glyceryl trinitrate"
                }
              ]
            },
            "isActive": true
          }
        ]
      }
    },
    {
      "fullUrl": "urn:uuid:27aa36b4-60f1-4b95-a211-0b310e6ea13d",
      "resource": {
        "resourceType": "MedicationStatement",
        "id": "27aa36b4-60f1-4b95-a211-0b310e6ea13d",
        "effectivePeriod": {
          "start": "2002-01-20"
        },
        "dosage": [
          {
            "doseAndRate": [
              {
                "doseQuantity": {
                  "value": 400,
                  "unit": "microgram",
                  "code": "ug"
                }
              }
            ],
            "timing": {
              "repeat": {
                "frequency": 1,
                "period": 5,
                "periodUnit": "min"
              }
            },
            "text": "400 micrograms per spray, may repeat every 5 minutes as needed for chest pain, up to 3 sprays in 15 minutes",
            "asNeededBoolean": true
          }
        ],
        "status": "active",
        "medicationReference": {
          "reference": "Medication/dfd6ba52-8a06-40ae-b151-0f966c7116b2",
          "display": "Nitroglycerin 400 microgram/actuation sublingual spray"
        },
        "subject": {
          "reference": "Patient/c91535d3-f657-423c-98cc-14f2b91d1459",
          "display": "Bent Bertelsen"
        }
      }
    },
    {
      "fullUrl": "urn:uuid:bd8b8a82-d981-46b8-9c48-80f61f5b0694",
      "resource": {
        "resourceType": "Medication",
        "id": "bd8b8a82-d981-46b8-9c48-80f61f5b0694",
        "meta": {
          "profile": [
            "http://hl7.org/fhir/uv/ips/StructureDefinition/Medication-uv-ips"
          ]
        },
        "code": {
          "coding": [
            {
              "code": "866412",
              "system": "http://www.nlm.nih.gov/research/umls/rxnorm",
              "display": "24 HR metoprolol succinate 100 MG Extended Release Oral Tablet"
            },
            {
              "code": "879980009",
              "system": "http://snomed.info/sct",
              "display": "Product containing precisely metoprolol tartrate (as metoprolol succinate) 100 milligram/1 each prolonged-release oral tablet (clinical drug)"
            }
          ],
          "text": "Metoprolol tartrate (as metoprolol succinate) 100 mg prolonged-release oral tablet"
        },
        "form": {
          "coding": [
            {
              "code": "385060002",
              "system": "http://snomed.info/sct",
              "display": "Prolonged-release oral tablet"
            }
          ]
        },
        "ingredient": [
          {
            "itemCodeableConcept": {
              "coding": [
                {
                  "code": "412432007",
                  "system": "http://snomed.info/sct",
                  "display": "Metoprolol succinate"
                }
              ]
            },
            "isActive": true
          }
        ]
      }
    },
    {
      "fullUrl": "urn:uuid:ebf32b15-29e3-47d0-85a5-ddabe36e1ce6",
      "resource": {
        "resourceType": "MedicationStatement",
        "id": "ebf32b15-29e3-47d0-85a5-ddabe36e1ce6",
        "effectivePeriod": {
          "start": "2002-01-20"
        },
        "dosage": [
          {
            "doseAndRate": [
              {
                "doseQuantity": {
                  "value": 1,
                  "unit": "{tbl}",
                  "code": "{tbl}"
                }
              }
            ],
            "timing": {
              "repeat": {
                "frequency": 1,
                "period": 1,
                "periodUnit": "d"
              }
            },
            "text": "1 tablet (100 mg) once daily",
            "asNeededBoolean": false
          }
        ],
        "status": "active",
        "medicationReference": {
          "reference": "Medication/bd8b8a82-d981-46b8-9c48-80f61f5b0694",
          "display": "Metoprolol tartrate (as metoprolol succinate) 100 mg prolonged-release oral tablet"
        },
        "subject": {
          "reference": "Patient/c91535d3-f657-423c-98cc-14f2b91d1459",
          "display": "Bent Bertelsen"
        }
      }
    },
    {
      "fullUrl": "urn:uuid:1ecf7657-f41e-456a-b3d3-cb769c846471",
      "resource": {
        "resourceType": "AllergyIntolerance",
        "id": "1ecf7657-f41e-456a-b3d3-cb769c846471",
        "meta": {
          "profile": [
            "http://hl7.eu/fhir/eps/StructureDefinition/allergyIntolerance-eu-eps"
          ]
        },
        "code": {
          "coding": [
            {
              "code": "716186003",
              "system": "http://snomed.info/sct",
              "display": "No known allergy (situation)"
            }
          ]
        },
        "patient": {
          "reference": "Patient/c91535d3-f657-423c-98cc-14f2b91d1459",
          "display": "Bent Bertelsen"
        },
        "_onsetDateTime": {
          "extension": [
            {
              "url": "http://hl7.org/fhir/StructureDefinition/data-absent-reason",
              "valueCode": "unknown"
            }
          ]
        }
      }
    },
    {
      "fullUrl": "urn:uuid:4c599cec-a738-491a-997a-8ca6e98f67fc",
      "resource": {
        "resourceType": "Procedure",
        "id": "4c599cec-a738-491a-997a-8ca6e98f67fc",
        "meta": {
          "profile": [
            "http://hl7.org/fhir/uv/ips/StructureDefinition/Procedure-uv-ips"
          ]
        },
        "code": {
          "coding": [
            {
              "code": "58000006",
              "system": "http://snomed.info/sct",
              "display": "Patient discharge (procedure)"
            }
          ],
          "text": "Patient discharge"
        },
        "status": "completed",
        "subject": {
          "reference": "Patient/c91535d3-f657-423c-98cc-14f2b91d1459",
          "display": "Bent Bertelsen"
        },
        "performedDateTime": "2024-12-19"
      }
    },
    {
      "fullUrl": "urn:uuid:15e9d22a-147d-4156-8357-55736e4aa2aa",
      "resource": {
        "resourceType": "Procedure",
        "id": "15e9d22a-147d-4156-8357-55736e4aa2aa",
        "meta": {
          "profile": [
            "http://hl7.org/fhir/uv/ips/StructureDefinition/Procedure-uv-ips"
          ]
        },
        "code": {
          "coding": [
            {
              "code": "385763009",
              "system": "http://snomed.info/sct",
              "display": "Hospice care (regime/therapy)"
            }
          ],
          "text": "Hospice care"
        },
        "status": "completed",
        "subject": {
          "reference": "Patient/c91535d3-f657-423c-98cc-14f2b91d1459",
          "display": "Bent Bertelsen"
        },
        "performedDateTime": "2024-12-18"
      }
    },
    {
      "fullUrl": "urn:uuid:c71b0ca2-76fc-4d3f-849d-9750e6194854",
      "resource": {
        "resourceType": "Procedure",
        "id": "c71b0ca2-76fc-4d3f-849d-9750e6194854",
        "meta": {
          "profile": [
            "http://hl7.org/fhir/uv/ips/StructureDefinition/Procedure-uv-ips"
          ]
        },
        "code": {
          "coding": [
            {
              "code": "185087000",
              "system": "http://snomed.info/sct",
              "display": "Notifications (procedure)"
            }
          ],
          "text": "Notifications"
        },
        "status": "completed",
        "subject": {
          "reference": "Patient/c91535d3-f657-423c-98cc-14f2b91d1459",
          "display": "Bent Bertelsen"
        },
        "performedDateTime": "2024-11-10"
      }
    },
    {
      "fullUrl": "urn:uuid:104d3e8b-6ed7-492b-8fab-2cf8d97db491",
      "resource": {
        "resourceType": "Procedure",
        "id": "104d3e8b-6ed7-492b-8fab-2cf8d97db491",
        "meta": {
          "profile": [
            "http://hl7.org/fhir/uv/ips/StructureDefinition/Procedure-uv-ips"
          ]
        },
        "code": {
          "coding": [
            {
              "code": "310417005",
              "system": "http://snomed.info/sct",
              "display": "Certification procedure (procedure)"
            }
          ],
          "text": "Certification procedure"
        },
        "status": "completed",
        "subject": {
          "reference": "Patient/c91535d3-f657-423c-98cc-14f2b91d1459",
          "display": "Bent Bertelsen"
        },
        "performedDateTime": "2024-11-10"
      }
    },
    {
      "fullUrl": "urn:uuid:e551e34f-5c63-4b9d-a98c-c2f11e370467",
      "resource": {
        "resourceType": "Procedure",
        "id": "e551e34f-5c63-4b9d-a98c-c2f11e370467",
        "meta": {
          "profile": [
            "http://hl7.org/fhir/uv/ips/StructureDefinition/Procedure-uv-ips"
          ]
        },
        "code": {
          "coding": [
            {
              "code": "315639002",
              "system": "http://snomed.info/sct",
              "display": "Initial patient assessment (procedure)"
            }
          ],
          "text": "Initial patient assessment"
        },
        "status": "completed",
        "subject": {
          "reference": "Patient/c91535d3-f657-423c-98cc-14f2b91d1459",
          "display": "Bent Bertelsen"
        },
        "performedDateTime": "2024-11-10"
      }
    },
    {
      "fullUrl": "urn:uuid:e7b4568d-1f9b-417b-8ff7-1fa26e456387",
      "resource": {
        "resourceType": "Procedure",
        "id": "e7b4568d-1f9b-417b-8ff7-1fa26e456387",
        "meta": {
          "profile": [
            "http://hl7.org/fhir/uv/ips/StructureDefinition/Procedure-uv-ips"
          ]
        },
        "code": {
          "coding": [
            {
              "code": "370789001",
              "system": "http://snomed.info/sct",
              "display": "Development of individualized plan of care (procedure)"
            }
          ],
          "text": "Development of individualized plan of care"
        },
        "status": "completed",
        "subject": {
          "reference": "Patient/c91535d3-f657-423c-98cc-14f2b91d1459",
          "display": "Bent Bertelsen"
        },
        "performedDateTime": "2024-11-10"
      }
    },
    {
      "fullUrl": "urn:uuid:7bbe24ad-2527-4101-8c53-ea8487672166",
      "resource": {
        "resourceType": "Immunization",
        "id": "7bbe24ad-2527-4101-8c53-ea8487672166",
        "meta": {
          "profile": [
            "http://hl7.org/fhir/uv/ips/StructureDefinition/Immunization-uv-ips"
          ]
        },
        "vaccineCode": {
          "coding": [
            {
              "code": "1181000221105",
              "system": "http://snomed.info/sct",
              "display": "Vaccine product containing Influenza virus antigen"
            },
            {
              "code": "J07BB02",
              "system": "http://www.whocc.no/atc",
              "display": "Influenza, inactivated, split virus"
            },
            {
              "code": "140",
              "system": "http://hl7.org/fhir/sid/cvx",
              "display": "Influenza  seasonal  injectable  preservative free"
            }
          ],
          "text": "Influenza virus antigen only vaccine product"
        },
        "site": {
          "coding": [
            {
              "code": "73776007",
              "system": "http://snomed.info/sct",
              "display": "Structure of muscle of upper arm"
            }
          ],
          "text": "Structure of muscle of upper arm"
        },
        "route": {
          "coding": [
            {
              "code": "78421000",
              "system": "http://snomed.info/sct",
              "display": "Intramuscular route"
            }
          ],
          "text": "Intramuscular route"
        },
        "status": "completed",
        "patient": {
          "reference": "Patient/c91535d3-f657-423c-98cc-14f2b91d1459",
          "display": "Bent Bertelsen"
        },
        "occurrenceDateTime": "2024-05-19",
        "lotNumber": "ZV-xFX2dl2g4",
        "expirationDate": "2025-04-14"
      }
    },
    {
      "fullUrl": "urn:uuid:7ad9f240-4b87-4141-85a1-a7efcfde65af",
      "resource": {
        "resourceType": "Immunization",
        "id": "7ad9f240-4b87-4141-85a1-a7efcfde65af",
        "meta": {
          "profile": [
            "http://hl7.org/fhir/uv/ips/StructureDefinition/Immunization-uv-ips"
          ]
        },
        "vaccineCode": {
          "coding": [
            {
              "code": "777725002",
              "system": "http://snomed.info/sct",
              "display": "Vaccine product containing only Clostridium tetani toxoid antigen adsorbed"
            },
            {
              "code": "J07AM51",
              "system": "http://www.whocc.no/atc",
              "display": "Diphtheria-tetanus vaccines, adult type"
            },
            {
              "code": "113",
              "system": "http://hl7.org/fhir/sid/cvx",
              "display": "Td (adult)  5 Lf tetanus toxoid  preservative free  adsorbed"
            }
          ],
          "text": "Clostridium tetani toxoid antigen adsorbed only vaccine product"
        },
        "site": {
          "coding": [
            {
              "code": "73776007",
              "system": "http://snomed.info/sct",
              "display": "Structure of muscle of upper arm"
            }
          ],
          "text": "Structure of muscle of upper arm"
        },
        "route": {
          "coding": [
            {
              "code": "78421000",
              "system": "http://snomed.info/sct",
              "display": "Intramuscular route"
            }
          ],
          "text": "Intramuscular route"
        },
        "status": "completed",
        "patient": {
          "reference": "Patient/c91535d3-f657-423c-98cc-14f2b91d1459",
          "display": "Bent Bertelsen"
        },
        "occurrenceDateTime": "2021-05-02",
        "lotNumber": "LQ-uuC814uMZ",
        "expirationDate": "2022-03-09"
      }
    },
    {
      "fullUrl": "urn:uuid:1e1e38a8-5a7c-4098-b246-ae85d6a6f25c",
      "resource": {
        "resourceType": "Immunization",
        "id": "1e1e38a8-5a7c-4098-b246-ae85d6a6f25c",
        "meta": {
          "profile": [
            "http://hl7.org/fhir/uv/ips/StructureDefinition/Immunization-uv-ips"
          ]
        },
        "vaccineCode": {
          "coding": [
            {
              "code": "1119349007",
              "system": "http://snomed.info/sct",
              "display": "Vaccine product containing SARS-CoV-2 mRNA"
            },
            {
              "code": "J07BX03",
              "system": "http://www.whocc.no/atc",
              "display": "COVID-19 mRNA vaccines"
            },
            {
              "code": "207",
              "system": "http://hl7.org/fhir/sid/cvx",
              "display": "COVID-19  mRNA  LNP-S  PF  100 mcg/0.5mL dose or 50 mcg/0.25mL dose"
            }
          ],
          "text": "SARS-CoV-2 mRNA vaccine"
        },
        "site": {
          "coding": [
            {
              "code": "73776007",
              "system": "http://snomed.info/sct",
              "display": "Structure of muscle of upper arm"
            }
          ],
          "text": "Structure of muscle of upper arm"
        },
        "route": {
          "coding": [
            {
              "code": "78421000",
              "system": "http://snomed.info/sct",
              "display": "Intramuscular route"
            }
          ],
          "text": "Intramuscular route"
        },
        "status": "completed",
        "patient": {
          "reference": "Patient/c91535d3-f657-423c-98cc-14f2b91d1459",
          "display": "Bent Bertelsen"
        },
        "occurrenceDateTime": "2021-02-21",
        "lotNumber": "FA-6gTsk",
        "expirationDate": "2021-10-13"
      }
    }
  ],
  "type": "document",
  "timestamp": "2025-06-16T17:19:49Z"
}
