{
  "resourceType": "Bundle",
  "id": "Instance-Bundle-00463f17-5036-4997-ad97-717d376f637f",
  "meta": {
    "profile": [
      "http://hl7.eu/fhir/eps/StructureDefinition/bundle-eu-eps"
    ]
  },
  "identifier": {
    "assigner": {
      "display": "HL7 Europe"
    },
    "system": "urn:oid:2.16.840.1.113883.2.51.999",
    "value": "07abd9e3-b1dd-486a-ad42-6f4d98c1a4bb"
  },
  "entry": [
    {
      "fullUrl": "urn:uuid:098b33c0-903a-49bf-9860-fbf5552f6e00",
      "resource": {
        "resourceType": "Composition",
        "id": "098b33c0-903a-49bf-9860-fbf5552f6e00",
        "meta": {
          "profile": [
            "http://hl7.eu/fhir/eps/StructureDefinition/composition-eu-eps"
          ]
        },
        "identifier": {
          "assigner": {
            "display": "HL7 Europe"
          },
          "system": "urn:oid:2.16.840.1.113883.2.51.999",
          "value": "e4aa6cef-bdb1-47b7-97b9-d9b591047d9b"
        },
        "type": {
          "coding": [
            {
              "system": "http://loinc.org",
              "code": "60591-5",
              "display": "European Patient Summary"
            }
          ],
          "text": "European Patient Summary"
        },
        "author": [
          {
            "reference": "urn:uuid:5b36ab94-ad7c-42c4-8280-2df5a61cba8c"
          }
        ],
        "section": [
          {
            "text": {
              "status": "generated",
              "div": "<div xmlns=\"http://www.w3.org/1999/xhtml\"><table class=\"hl7__ips\"><tr><th>Condition</th><th>Onset Date</th><th>Status</th></tr><tr><td>Ischemic heart disease</td><td><span class=\"nb\">2024-12-01</span></td><td>active</td></tr><tr><td>Hyperlipidemia</td><td><span class=\"nb\">2018-12-09</span></td><td>active</td></tr><tr><td>Sepsis</td><td><span class=\"nb\">2016-01-28</span></td><td>active</td></tr><tr><td>Malignant neoplasm of breast</td><td><span class=\"nb\">2012-10-03</span></td><td>active</td></tr><tr><td><span class=\"grayedout\">Gingivitis</span></td><td><span class=\"nb\">2024-12-01</span></td><td><span class=\"grayedout\">inactive</span></td></tr><tr><td><span class=\"grayedout\">Streptococcal sore throat</span></td><td><span class=\"nb\">2023-03-03</span></td><td><span class=\"grayedout\">inactive</span></td></tr><tr><td><span class=\"grayedout\">Acute bronchitis</span></td><td><span class=\"nb\">2020-10-16</span></td><td><span class=\"grayedout\">inactive</span></td></tr><tr><td><span class=\"grayedout\">Viral sinusitis</span></td><td><span class=\"nb\">2020-03-11</span></td><td><span class=\"grayedout\">inactive</span></td></tr><tr><td><span class=\"grayedout\">Acute bronchitis</span></td><td><span class=\"nb\">2015-05-31</span></td><td><span class=\"grayedout\">inactive</span></td></tr><tr><td><span class=\"grayedout\">Acute viral pharyngitis</span></td><td><span class=\"nb\">2015-05-02</span></td><td><span class=\"grayedout\">inactive</span></td></tr></table></div>"
            },
            "entry": [
              {
                "reference": "urn:uuid:57336675-511e-41b6-bcce-28477b32a08e"
              },
              {
                "reference": "urn:uuid:ab208de3-61f2-4e95-a903-e468a453504d"
              },
              {
                "reference": "urn:uuid:cc4f716b-0bc8-45f2-91ff-00800a83498f"
              },
              {
                "reference": "urn:uuid:6bbae610-7d07-4c5e-9001-63ea6086ea04"
              },
              {
                "reference": "urn:uuid:9999e760-3fae-4a74-99bc-1df89cd16404"
              },
              {
                "reference": "urn:uuid:f9dae687-a6a9-43ab-b123-c7bb62c27ed4"
              },
              {
                "reference": "urn:uuid:55702724-d49d-4e01-9848-a376fcf27654"
              },
              {
                "reference": "urn:uuid:ae158bb3-6119-4ab0-99be-7180af17fd69"
              },
              {
                "reference": "urn:uuid:744f77ee-7adf-442b-b9f8-56bfe8000e12"
              },
              {
                "reference": "urn:uuid:cddb0b81-7cc3-4505-a566-8ab8d55f0bf5"
              }
            ],
            "code": {
              "coding": [
                {
                  "system": "http://loinc.org",
                  "code": "11450-4",
                  "display": "Problem list - Reported"
                }
              ]
            },
            "title": "Problem list"
          },
          {
            "text": {
              "status": "generated",
              "div": "<div xmlns=\"http://www.w3.org/1999/xhtml\"><table class=\"hl7__ips\"><tr><th>Medication</th><th>Since</th><th>Form</th><th>Dosage</th><th>Reason</th></tr><tr><td>Simvastatin 10 mg oral tablet</td><td><span class=\"nb\">2025-01-12</span></td><td>Oral tablet</td><td>1 tablet (10 mg) by mouth once daily</td><td>Hyperlipidemia (disorder)</td></tr><tr><td>Clopidogrel (as clopidogrel bisulfate) 75 mg oral tablet</td><td><span class=\"nb\">2024-12-08</span></td><td>Oral tablet</td><td>1 tablet (75 mg) once daily</td><td></td></tr><tr><td>Simvastatin 20 mg oral tablet</td><td><span class=\"nb\">2024-12-08</span></td><td>Oral tablet</td><td>1 tablet (20 mg) by mouth once daily</td><td></td></tr><tr><td>Nitroglycerin 400 microgram/actuation sublingual spray</td><td><span class=\"nb\">2024-12-08</span></td><td>Sublingual spray</td><td>400 micrograms per spray, spray one dose under the tongue as needed for chest pain, repeat every 5 minutes as needed, up to 3 sprays in 15 minutes</td><td></td></tr><tr><td>Metoprolol tartrate (as metoprolol succinate) 100 mg prolonged-release oral tablet</td><td><span class=\"nb\">2024-12-08</span></td><td>Prolonged-release oral tablet</td><td>1 tablet (100 mg) once daily</td><td></td></tr></table></div>"
            },
            "entry": [
              {
                "reference": "urn:uuid:c9d59165-8fb0-4f2b-82fb-a854985bb9ba"
              },
              {
                "reference": "urn:uuid:c35404a5-ec50-4cb6-8ef0-1446238914d0"
              },
              {
                "reference": "urn:uuid:2f9a9a6f-c93d-44d1-b1a6-6482b55f275b"
              },
              {
                "reference": "urn:uuid:82ca357b-7fd2-457a-93b5-1702414f14eb"
              },
              {
                "reference": "urn:uuid:2c2792c6-4bc7-4be2-84e4-7a7c1cbeadb9"
              }
            ],
            "code": {
              "coding": [
                {
                  "system": "http://loinc.org",
                  "code": "10160-0",
                  "display": "History of Medication use Narrative"
                }
              ]
            },
            "title": "Medication list"
          },
          {
            "text": {
              "status": "generated",
              "div": "<div xmlns=\"http://www.w3.org/1999/xhtml\"><table class=\"hl7__ips\"><tr><td>No known allergies or intolerances</td></tr></table></div>"
            },
            "entry": [
              {
                "reference": "urn:uuid:478c5d2f-9897-4f48-918e-2f4f82537092"
              }
            ],
            "code": {
              "coding": [
                {
                  "system": "http://loinc.org",
                  "code": "48765-2",
                  "display": "Allergies and adverse reactions Document"
                }
              ]
            },
            "title": "Allergies and Intolerances"
          },
          {
            "text": {
              "status": "generated",
              "div": "<div xmlns=\"http://www.w3.org/1999/xhtml\"><table class=\"hl7__ips\"><tr><th>Procedure</th><th>Date</th><th>Reason</th></tr><tr><td>Postoperative procedure education</td><td><span class=\"nb\">2025-01-12</span></td><td>History of coronary artery bypass grafting (situation)</td></tr><tr><td>Stair-climbing test</td><td><span class=\"nb\">2025-01-12</span></td><td>History of coronary artery bypass grafting (situation)</td></tr><tr><td>Walking exercise test</td><td><span class=\"nb\">2025-01-12</span></td><td>History of coronary artery bypass grafting (situation)</td></tr><tr><td>Discharge to ward</td><td><span class=\"nb\">2025-01-12</span></td><td>-</td></tr><tr><td>Discharge from hospital</td><td><span class=\"nb\">2025-01-12</span></td><td>History of coronary artery bypass grafting (situation)</td></tr><tr><td>Electrocardiographic procedure</td><td><span class=\"nb\">2025-01-11</span></td><td>-</td></tr><tr><td>Plain X-ray of chest</td><td><span class=\"nb\">2025-01-11</span></td><td>-</td></tr><tr><td>Transfusion of packed red blood cells</td><td><span class=\"nb\">2025-01-10</span></td><td>-</td></tr><tr><td>Removal of endotracheal tube</td><td><span class=\"nb\">2025-01-09</span></td><td>-</td></tr><tr><td>Resuscitation using intravenous fluid</td><td><span class=\"nb\">2016-01-28</span></td><td>Sepsis (disorder)</td></tr><tr><td>Transfer to stepdown unit</td><td><span class=\"nb\">2016-01-28</span></td><td>Sepsis (disorder)</td></tr></table></div>"
            },
            "entry": [
              {
                "reference": "urn:uuid:e49e12ff-77b4-442f-9605-6319ca602db8"
              },
              {
                "reference": "urn:uuid:5555efbf-fbe5-4d14-9387-fff3eb1f091c"
              },
              {
                "reference": "urn:uuid:7f0594a7-1a3d-465a-a332-98551e575034"
              },
              {
                "reference": "urn:uuid:a1daedaa-29fc-49b4-b665-5ff748e84864"
              },
              {
                "reference": "urn:uuid:39d8a250-9cc0-478d-a026-54e559fa9de5"
              },
              {
                "reference": "urn:uuid:6b61a547-2d94-4959-a1e0-96f75b83ce72"
              },
              {
                "reference": "urn:uuid:d7190d31-b71b-401e-853e-92ac3ba928b7"
              },
              {
                "reference": "urn:uuid:dfa2a343-6ccc-411e-87e5-764b4a985bf6"
              },
              {
                "reference": "urn:uuid:953a52d0-352a-48f7-af97-c823f7a8e3f8"
              },
              {
                "reference": "urn:uuid:8a1e49ff-ab26-47ae-b3cb-4415c54be459"
              },
              {
                "reference": "urn:uuid:6a7136b2-ea97-4cf8-99bb-32e177b3f3f2"
              }
            ],
            "code": {
              "coding": [
                {
                  "system": "http://loinc.org",
                  "code": "47519-4",
                  "display": "History of Procedures Document"
                }
              ]
            },
            "title": "Procedure History list"
          },
          {
            "text": {
              "status": "generated",
              "div": "<div xmlns=\"http://www.w3.org/1999/xhtml\"><table class=\"hl7__ips\"><tr><th>Vaccine</th><th>Date</th></tr><tr><td>Influenza virus antigen only vaccine product</td><td><span class=\"nb\">2024-12-01</span></td></tr><tr><td>Clostridium tetani toxoid antigen adsorbed only vaccine product</td><td><span class=\"nb\">2023-11-26</span></td></tr><tr><td>Live attenuated Human alphaherpesvirus 3 only vaccine product</td><td><span class=\"nb\">2023-11-26</span></td></tr><tr><td>SARS-CoV-2 mRNA vaccine</td><td><span class=\"nb\">2021-08-15</span></td></tr></table></div>"
            },
            "entry": [
              {
                "reference": "urn:uuid:a5877066-e335-4cda-b9f6-4a407ffff525"
              },
              {
                "reference": "urn:uuid:d80cb2f8-2ccb-4b12-ae81-6acc0e1a7fb0"
              },
              {
                "reference": "urn:uuid:618ca002-f3ce-4790-aa6c-f020b9338b20"
              },
              {
                "reference": "urn:uuid:f1891d78-fa2c-40a8-b3b0-25f606456d5e"
              }
            ],
            "code": {
              "coding": [
                {
                  "system": "http://loinc.org",
                  "code": "11369-6",
                  "display": "History of Immunization Narrative"
                }
              ]
            },
            "title": "Immunizations list"
          }
        ],
        "title": "European Patient Summary",
        "status": "final",
        "subject": {
          "reference": "urn:uuid:72064507-08eb-4d59-a3ba-482f7b90846e"
        },
        "custodian": {
          "reference": "urn:uuid:1578f10f-19a4-427c-a1fb-3234a2813e06"
        },
        "date": "2025-06-17T11:26:49Z",
        "confidentiality": "N"
      }
    },
    {
      "fullUrl": "urn:uuid:72064507-08eb-4d59-a3ba-482f7b90846e",
      "resource": {
        "resourceType": "Patient",
        "id": "72064507-08eb-4d59-a3ba-482f7b90846e",
        "meta": {
          "profile": [
            "http://hl7.eu/fhir/eps/StructureDefinition/patient-eu-eps"
          ]
        },
        "identifier": [
          {
            "type": {
              "coding": [
                {
                  "code": "NI",
                  "system": "http://terminology.hl7.org/CodeSystem/v2-0203"
                }
              ]
            },
            "system": "http://ec.europa.eu/identifier/eci",
            "value": "6132-571926-0"
          },
          {
            "type": {
              "coding": [
                {
                  "code": "MR",
                  "system": "http://terminology.hl7.org/CodeSystem/v2-0203"
                }
              ]
            },
            "system": "http://local.setting.eu/identifier",
            "value": "f952d41f-c3ee-717c-4185-e02cd757ad7e"
          }
        ],
        "name": [
          {
            "given": [
              "Eliane"
            ],
            "family": "Rijneveld",
            "text": "Eliane Rijneveld"
          }
        ],
        "address": [
          {
            "line": [
              "Taille Maréchal 477"
            ],
            "use": "home",
            "type": "physical",
            "city": "Ganshoren",
            "postalCode": "1083",
            "country": "Belgium"
          }
        ],
        "telecom": [
          {
            "system": "phone",
            "value": "+32 0499 89 61 55"
          }
        ],
        "gender": "female",
        "birthDate": "1969-02-25"
      }
    },
    {
      "fullUrl": "urn:uuid:5b36ab94-ad7c-42c4-8280-2df5a61cba8c",
      "resource": {
        "resourceType": "PractitionerRole",
        "id": "5b36ab94-ad7c-42c4-8280-2df5a61cba8c",
        "meta": {
          "profile": [
            "http://hl7.eu/fhir/base/StructureDefinition/practitionerRole-eu"
          ]
        },
        "practitioner": {
          "reference": "urn:uuid:e7c5b1ac-193f-415c-94ca-6a520bbf4b33"
        },
        "organization": {
          "reference": "urn:uuid:1578f10f-19a4-427c-a1fb-3234a2813e06"
        }
      }
    },
    {
      "fullUrl": "urn:uuid:e7c5b1ac-193f-415c-94ca-6a520bbf4b33",
      "resource": {
        "resourceType": "Practitioner",
        "id": "e7c5b1ac-193f-415c-94ca-6a520bbf4b33",
        "meta": {
          "profile": [
            "http://hl7.eu/fhir/base/StructureDefinition/practitioner-eu"
          ]
        },
        "name": [
          {
            "prefix": [
              "Dr."
            ],
            "given": [
              "Hel"
            ],
            "family": "Ping"
          }
        ]
      }
    },
    {
      "fullUrl": "urn:uuid:57336675-511e-41b6-bcce-28477b32a08e",
      "resource": {
        "resourceType": "Condition",
        "id": "57336675-511e-41b6-bcce-28477b32a08e",
        "meta": {
          "profile": [
            "http://hl7.org/fhir/uv/ips/StructureDefinition/Condition-uv-ips"
          ]
        },
        "category": [
          {
            "coding": [
              {
                "code": "problem-list-item",
                "system": "http://terminology.hl7.org/CodeSystem/condition-category",
                "display": "Problem List Item"
              }
            ]
          }
        ],
        "code": {
          "coding": [
            {
              "code": "414545008",
              "system": "http://snomed.info/sct",
              "display": "Ischemic heart disease (disorder)"
            }
          ],
          "text": "Ischemic heart disease"
        },
        "onsetDateTime": "2024-12-01",
        "clinicalStatus": {
          "coding": [
            {
              "code": "active",
              "system": "http://terminology.hl7.org/CodeSystem/condition-clinical"
            }
          ]
        },
        "subject": {
          "reference": "Patient/72064507-08eb-4d59-a3ba-482f7b90846e",
          "display": "Eliane Rijneveld"
        },
        "asserter": {
          "reference": "Practitioner/e7c5b1ac-193f-415c-94ca-6a520bbf4b33",
          "display": "Dr. Hel Ping"
        }
      }
    },
    {
      "fullUrl": "urn:uuid:ab208de3-61f2-4e95-a903-e468a453504d",
      "resource": {
        "resourceType": "Condition",
        "id": "ab208de3-61f2-4e95-a903-e468a453504d",
        "meta": {
          "profile": [
            "http://hl7.org/fhir/uv/ips/StructureDefinition/Condition-uv-ips"
          ]
        },
        "category": [
          {
            "coding": [
              {
                "code": "problem-list-item",
                "system": "http://terminology.hl7.org/CodeSystem/condition-category",
                "display": "Problem List Item"
              }
            ]
          }
        ],
        "code": {
          "coding": [
            {
              "code": "55822004",
              "system": "http://snomed.info/sct",
              "display": "Hyperlipidemia (disorder)"
            }
          ],
          "text": "Hyperlipidemia"
        },
        "onsetDateTime": "2018-12-09",
        "clinicalStatus": {
          "coding": [
            {
              "code": "active",
              "system": "http://terminology.hl7.org/CodeSystem/condition-clinical"
            }
          ]
        },
        "subject": {
          "reference": "Patient/72064507-08eb-4d59-a3ba-482f7b90846e",
          "display": "Eliane Rijneveld"
        },
        "asserter": {
          "reference": "Practitioner/e7c5b1ac-193f-415c-94ca-6a520bbf4b33",
          "display": "Dr. Hel Ping"
        }
      }
    },
    {
      "fullUrl": "urn:uuid:cc4f716b-0bc8-45f2-91ff-00800a83498f",
      "resource": {
        "resourceType": "Condition",
        "id": "cc4f716b-0bc8-45f2-91ff-00800a83498f",
        "meta": {
          "profile": [
            "http://hl7.org/fhir/uv/ips/StructureDefinition/Condition-uv-ips"
          ]
        },
        "category": [
          {
            "coding": [
              {
                "code": "problem-list-item",
                "system": "http://terminology.hl7.org/CodeSystem/condition-category",
                "display": "Problem List Item"
              }
            ]
          }
        ],
        "code": {
          "coding": [
            {
              "code": "91302008",
              "system": "http://snomed.info/sct",
              "display": "Sepsis (disorder)"
            }
          ],
          "text": "Sepsis"
        },
        "onsetDateTime": "2016-01-28",
        "clinicalStatus": {
          "coding": [
            {
              "code": "active",
              "system": "http://terminology.hl7.org/CodeSystem/condition-clinical"
            }
          ]
        },
        "subject": {
          "reference": "Patient/72064507-08eb-4d59-a3ba-482f7b90846e",
          "display": "Eliane Rijneveld"
        },
        "asserter": {
          "reference": "Practitioner/e7c5b1ac-193f-415c-94ca-6a520bbf4b33",
          "display": "Dr. Hel Ping"
        }
      }
    },
    {
      "fullUrl": "urn:uuid:6bbae610-7d07-4c5e-9001-63ea6086ea04",
      "resource": {
        "resourceType": "Condition",
        "id": "6bbae610-7d07-4c5e-9001-63ea6086ea04",
        "meta": {
          "profile": [
            "http://hl7.org/fhir/uv/ips/StructureDefinition/Condition-uv-ips"
          ]
        },
        "category": [
          {
            "coding": [
              {
                "code": "problem-list-item",
                "system": "http://terminology.hl7.org/CodeSystem/condition-category",
                "display": "Problem List Item"
              }
            ]
          }
        ],
        "code": {
          "coding": [
            {
              "code": "254837009",
              "system": "http://snomed.info/sct",
              "display": "Malignant neoplasm of breast (disorder)"
            }
          ],
          "text": "Malignant neoplasm of breast"
        },
        "onsetDateTime": "2012-10-03",
        "clinicalStatus": {
          "coding": [
            {
              "code": "active",
              "system": "http://terminology.hl7.org/CodeSystem/condition-clinical"
            }
          ]
        },
        "subject": {
          "reference": "Patient/72064507-08eb-4d59-a3ba-482f7b90846e",
          "display": "Eliane Rijneveld"
        },
        "asserter": {
          "reference": "Practitioner/e7c5b1ac-193f-415c-94ca-6a520bbf4b33",
          "display": "Dr. Hel Ping"
        }
      }
    },
    {
      "fullUrl": "urn:uuid:9999e760-3fae-4a74-99bc-1df89cd16404",
      "resource": {
        "resourceType": "Condition",
        "id": "9999e760-3fae-4a74-99bc-1df89cd16404",
        "meta": {
          "profile": [
            "http://hl7.org/fhir/uv/ips/StructureDefinition/Condition-uv-ips"
          ]
        },
        "category": [
          {
            "coding": [
              {
                "code": "problem-list-item",
                "system": "http://terminology.hl7.org/CodeSystem/condition-category",
                "display": "Problem List Item"
              }
            ]
          }
        ],
        "code": {
          "coding": [
            {
              "code": "66383009",
              "system": "http://snomed.info/sct",
              "display": "Gingivitis (disorder)"
            }
          ],
          "text": "Gingivitis"
        },
        "onsetDateTime": "2024-12-01",
        "clinicalStatus": {
          "coding": [
            {
              "code": "inactive",
              "system": "http://terminology.hl7.org/CodeSystem/condition-clinical"
            }
          ]
        },
        "subject": {
          "reference": "Patient/72064507-08eb-4d59-a3ba-482f7b90846e",
          "display": "Eliane Rijneveld"
        },
        "asserter": {
          "reference": "Practitioner/e7c5b1ac-193f-415c-94ca-6a520bbf4b33",
          "display": "Dr. Hel Ping"
        }
      }
    },
    {
      "fullUrl": "urn:uuid:f9dae687-a6a9-43ab-b123-c7bb62c27ed4",
      "resource": {
        "resourceType": "Condition",
        "id": "f9dae687-a6a9-43ab-b123-c7bb62c27ed4",
        "meta": {
          "profile": [
            "http://hl7.org/fhir/uv/ips/StructureDefinition/Condition-uv-ips"
          ]
        },
        "category": [
          {
            "coding": [
              {
                "code": "problem-list-item",
                "system": "http://terminology.hl7.org/CodeSystem/condition-category",
                "display": "Problem List Item"
              }
            ]
          }
        ],
        "code": {
          "coding": [
            {
              "code": "43878008",
              "system": "http://snomed.info/sct",
              "display": "Streptococcal sore throat (disorder)"
            }
          ],
          "text": "Streptococcal sore throat"
        },
        "onsetDateTime": "2023-03-03",
        "clinicalStatus": {
          "coding": [
            {
              "code": "inactive",
              "system": "http://terminology.hl7.org/CodeSystem/condition-clinical"
            }
          ]
        },
        "subject": {
          "reference": "Patient/72064507-08eb-4d59-a3ba-482f7b90846e",
          "display": "Eliane Rijneveld"
        },
        "asserter": {
          "reference": "Practitioner/e7c5b1ac-193f-415c-94ca-6a520bbf4b33",
          "display": "Dr. Hel Ping"
        }
      }
    },
    {
      "fullUrl": "urn:uuid:55702724-d49d-4e01-9848-a376fcf27654",
      "resource": {
        "resourceType": "Condition",
        "id": "55702724-d49d-4e01-9848-a376fcf27654",
        "meta": {
          "profile": [
            "http://hl7.org/fhir/uv/ips/StructureDefinition/Condition-uv-ips"
          ]
        },
        "category": [
          {
            "coding": [
              {
                "code": "problem-list-item",
                "system": "http://terminology.hl7.org/CodeSystem/condition-category",
                "display": "Problem List Item"
              }
            ]
          }
        ],
        "code": {
          "coding": [
            {
              "code": "10509002",
              "system": "http://snomed.info/sct",
              "display": "Acute bronchitis (disorder)"
            }
          ],
          "text": "Acute bronchitis"
        },
        "onsetDateTime": "2020-10-16",
        "clinicalStatus": {
          "coding": [
            {
              "code": "inactive",
              "system": "http://terminology.hl7.org/CodeSystem/condition-clinical"
            }
          ]
        },
        "subject": {
          "reference": "Patient/72064507-08eb-4d59-a3ba-482f7b90846e",
          "display": "Eliane Rijneveld"
        },
        "asserter": {
          "reference": "Practitioner/e7c5b1ac-193f-415c-94ca-6a520bbf4b33",
          "display": "Dr. Hel Ping"
        }
      }
    },
    {
      "fullUrl": "urn:uuid:ae158bb3-6119-4ab0-99be-7180af17fd69",
      "resource": {
        "resourceType": "Condition",
        "id": "ae158bb3-6119-4ab0-99be-7180af17fd69",
        "meta": {
          "profile": [
            "http://hl7.org/fhir/uv/ips/StructureDefinition/Condition-uv-ips"
          ]
        },
        "category": [
          {
            "coding": [
              {
                "code": "problem-list-item",
                "system": "http://terminology.hl7.org/CodeSystem/condition-category",
                "display": "Problem List Item"
              }
            ]
          }
        ],
        "code": {
          "coding": [
            {
              "code": "444814009",
              "system": "http://snomed.info/sct",
              "display": "Viral sinusitis (disorder)"
            }
          ],
          "text": "Viral sinusitis"
        },
        "onsetDateTime": "2020-03-11",
        "clinicalStatus": {
          "coding": [
            {
              "code": "inactive",
              "system": "http://terminology.hl7.org/CodeSystem/condition-clinical"
            }
          ]
        },
        "subject": {
          "reference": "Patient/72064507-08eb-4d59-a3ba-482f7b90846e",
          "display": "Eliane Rijneveld"
        },
        "asserter": {
          "reference": "Practitioner/e7c5b1ac-193f-415c-94ca-6a520bbf4b33",
          "display": "Dr. Hel Ping"
        }
      }
    },
    {
      "fullUrl": "urn:uuid:744f77ee-7adf-442b-b9f8-56bfe8000e12",
      "resource": {
        "resourceType": "Condition",
        "id": "744f77ee-7adf-442b-b9f8-56bfe8000e12",
        "meta": {
          "profile": [
            "http://hl7.org/fhir/uv/ips/StructureDefinition/Condition-uv-ips"
          ]
        },
        "category": [
          {
            "coding": [
              {
                "code": "problem-list-item",
                "system": "http://terminology.hl7.org/CodeSystem/condition-category",
                "display": "Problem List Item"
              }
            ]
          }
        ],
        "code": {
          "coding": [
            {
              "code": "10509002",
              "system": "http://snomed.info/sct",
              "display": "Acute bronchitis (disorder)"
            }
          ],
          "text": "Acute bronchitis"
        },
        "onsetDateTime": "2015-05-31",
        "clinicalStatus": {
          "coding": [
            {
              "code": "inactive",
              "system": "http://terminology.hl7.org/CodeSystem/condition-clinical"
            }
          ]
        },
        "subject": {
          "reference": "Patient/72064507-08eb-4d59-a3ba-482f7b90846e",
          "display": "Eliane Rijneveld"
        },
        "asserter": {
          "reference": "Practitioner/e7c5b1ac-193f-415c-94ca-6a520bbf4b33",
          "display": "Dr. Hel Ping"
        }
      }
    },
    {
      "fullUrl": "urn:uuid:cddb0b81-7cc3-4505-a566-8ab8d55f0bf5",
      "resource": {
        "resourceType": "Condition",
        "id": "cddb0b81-7cc3-4505-a566-8ab8d55f0bf5",
        "meta": {
          "profile": [
            "http://hl7.org/fhir/uv/ips/StructureDefinition/Condition-uv-ips"
          ]
        },
        "category": [
          {
            "coding": [
              {
                "code": "problem-list-item",
                "system": "http://terminology.hl7.org/CodeSystem/condition-category",
                "display": "Problem List Item"
              }
            ]
          }
        ],
        "code": {
          "coding": [
            {
              "code": "195662009",
              "system": "http://snomed.info/sct",
              "display": "Acute viral pharyngitis (disorder)"
            }
          ],
          "text": "Acute viral pharyngitis"
        },
        "onsetDateTime": "2015-05-02",
        "clinicalStatus": {
          "coding": [
            {
              "code": "inactive",
              "system": "http://terminology.hl7.org/CodeSystem/condition-clinical"
            }
          ]
        },
        "subject": {
          "reference": "Patient/72064507-08eb-4d59-a3ba-482f7b90846e",
          "display": "Eliane Rijneveld"
        },
        "asserter": {
          "reference": "Practitioner/e7c5b1ac-193f-415c-94ca-6a520bbf4b33",
          "display": "Dr. Hel Ping"
        }
      }
    },
    {
      "fullUrl": "urn:uuid:2b98f9d2-a61a-4219-9033-f358431d40e3",
      "resource": {
        "resourceType": "Medication",
        "id": "2b98f9d2-a61a-4219-9033-f358431d40e3",
        "meta": {
          "profile": [
            "http://hl7.org/fhir/uv/ips/StructureDefinition/Medication-uv-ips"
          ]
        },
        "code": {
          "coding": [
            {
              "code": "314231",
              "system": "http://www.nlm.nih.gov/research/umls/rxnorm",
              "display": "simvastatin 10 MG Oral Tablet"
            },
            {
              "code": "319996000",
              "system": "http://snomed.info/sct",
              "display": "Product containing precisely simvastatin 10 milligram/1 each conventional release oral tablet (clinical drug)"
            }
          ],
          "text": "Simvastatin 10 mg oral tablet"
        },
        "form": {
          "coding": [
            {
              "code": "421026006",
              "system": "http://snomed.info/sct",
              "display": "Oral tablet"
            }
          ]
        },
        "ingredient": [
          {
            "itemCodeableConcept": {
              "coding": [
                {
                  "code": "387584000",
                  "system": "http://snomed.info/sct",
                  "display": "Simvastatin"
                }
              ]
            },
            "isActive": true
          }
        ]
      }
    },
    {
      "fullUrl": "urn:uuid:c9d59165-8fb0-4f2b-82fb-a854985bb9ba",
      "resource": {
        "resourceType": "MedicationStatement",
        "id": "c9d59165-8fb0-4f2b-82fb-a854985bb9ba",
        "meta": {
          "profile": [
            "http://hl7.org/fhir/uv/ips/StructureDefinition/MedicationStatement-uv-ips"
          ]
        },
        "effectivePeriod": {
          "start": "2025-01-12"
        },
        "dosage": [
          {
            "doseAndRate": [
              {
                "doseQuantity": {
                  "value": 1,
                  "unit": "{tbl}",
                  "code": "{tbl}"
                }
              }
            ],
            "timing": {
              "repeat": {
                "frequency": 1,
                "period": 1,
                "periodUnit": "d"
              }
            },
            "text": "1 tablet (10 mg) by mouth once daily",
            "asNeededBoolean": false
          }
        ],
        "reasonCode": [
          {
            "coding": [
              {
                "code": "55822004",
                "system": "http://snomed.info/sct",
                "display": "Hyperlipidemia (disorder)"
              }
            ]
          }
        ],
        "status": "active",
        "medicationReference": {
          "reference": "Medication/2b98f9d2-a61a-4219-9033-f358431d40e3",
          "display": "Simvastatin 10 mg oral tablet"
        },
        "subject": {
          "reference": "Patient/72064507-08eb-4d59-a3ba-482f7b90846e",
          "display": "Eliane Rijneveld"
        }
      }
    },
    {
      "fullUrl": "urn:uuid:228da3cb-9a6a-4e80-9b99-988b6182e514",
      "resource": {
        "resourceType": "Medication",
        "id": "228da3cb-9a6a-4e80-9b99-988b6182e514",
        "meta": {
          "profile": [
            "http://hl7.org/fhir/uv/ips/StructureDefinition/Medication-uv-ips"
          ]
        },
        "code": {
          "coding": [
            {
              "code": "309362",
              "system": "http://www.nlm.nih.gov/research/umls/rxnorm",
              "display": "clopidogrel 75 MG Oral Tablet"
            },
            {
              "code": "783586007",
              "system": "http://snomed.info/sct",
              "display": "Product containing precisely clopidogrel (as clopidogrel bisulfate) 75 milligram/1 each conventional release oral tablet (clinical drug)"
            }
          ],
          "text": "Clopidogrel (as clopidogrel bisulfate) 75 mg oral tablet"
        },
        "form": {
          "coding": [
            {
              "code": "421026006",
              "system": "http://snomed.info/sct",
              "display": "Oral tablet"
            }
          ]
        },
        "ingredient": [
          {
            "itemCodeableConcept": {
              "coding": [
                {
                  "code": "412354008",
                  "system": "http://snomed.info/sct",
                  "display": "Clopidogrel bisulfate"
                }
              ]
            },
            "isActive": true
          }
        ]
      }
    },
    {
      "fullUrl": "urn:uuid:c35404a5-ec50-4cb6-8ef0-1446238914d0",
      "resource": {
        "resourceType": "MedicationStatement",
        "id": "c35404a5-ec50-4cb6-8ef0-1446238914d0",
        "meta": {
          "profile": [
            "http://hl7.org/fhir/uv/ips/StructureDefinition/MedicationStatement-uv-ips"
          ]
        },
        "effectivePeriod": {
          "start": "2024-12-08"
        },
        "dosage": [
          {
            "doseAndRate": [
              {
                "doseQuantity": {
                  "value": 1,
                  "unit": "{tbl}",
                  "code": "{tbl}"
                }
              }
            ],
            "timing": {
              "repeat": {
                "frequency": 1,
                "period": 1,
                "periodUnit": "d"
              }
            },
            "text": "1 tablet (75 mg) once daily",
            "asNeededBoolean": false
          }
        ],
        "status": "active",
        "medicationReference": {
          "reference": "Medication/228da3cb-9a6a-4e80-9b99-988b6182e514",
          "display": "Clopidogrel (as clopidogrel bisulfate) 75 mg oral tablet"
        },
        "subject": {
          "reference": "Patient/72064507-08eb-4d59-a3ba-482f7b90846e",
          "display": "Eliane Rijneveld"
        }
      }
    },
    {
      "fullUrl": "urn:uuid:040ffa86-83a4-4b66-abb3-496b93e13ba9",
      "resource": {
        "resourceType": "Medication",
        "id": "040ffa86-83a4-4b66-abb3-496b93e13ba9",
        "meta": {
          "profile": [
            "http://hl7.org/fhir/uv/ips/StructureDefinition/Medication-uv-ips"
          ]
        },
        "code": {
          "coding": [
            {
              "code": "312961",
              "system": "http://www.nlm.nih.gov/research/umls/rxnorm",
              "display": "simvastatin 20 MG Oral Tablet"
            },
            {
              "code": "319997009",
              "system": "http://snomed.info/sct",
              "display": "Product containing precisely simvastatin 20 milligram/1 each conventional release oral tablet (clinical drug)"
            }
          ],
          "text": "Simvastatin 20 mg oral tablet"
        },
        "form": {
          "coding": [
            {
              "code": "421026006",
              "system": "http://snomed.info/sct",
              "display": "Oral tablet"
            }
          ]
        },
        "ingredient": [
          {
            "itemCodeableConcept": {
              "coding": [
                {
                  "code": "387584000",
                  "system": "http://snomed.info/sct",
                  "display": "Simvastatin"
                }
              ]
            },
            "isActive": true
          }
        ]
      }
    },
    {
      "fullUrl": "urn:uuid:2f9a9a6f-c93d-44d1-b1a6-6482b55f275b",
      "resource": {
        "resourceType": "MedicationStatement",
        "id": "2f9a9a6f-c93d-44d1-b1a6-6482b55f275b",
        "meta": {
          "profile": [
            "http://hl7.org/fhir/uv/ips/StructureDefinition/MedicationStatement-uv-ips"
          ]
        },
        "effectivePeriod": {
          "start": "2024-12-08"
        },
        "dosage": [
          {
            "doseAndRate": [
              {
                "doseQuantity": {
                  "value": 1,
                  "unit": "{tbl}",
                  "code": "{tbl}"
                }
              }
            ],
            "timing": {
              "repeat": {
                "frequency": 1,
                "period": 1,
                "periodUnit": "d"
              }
            },
            "text": "1 tablet (20 mg) by mouth once daily",
            "asNeededBoolean": false
          }
        ],
        "status": "active",
        "medicationReference": {
          "reference": "Medication/040ffa86-83a4-4b66-abb3-496b93e13ba9",
          "display": "Simvastatin 20 mg oral tablet"
        },
        "subject": {
          "reference": "Patient/72064507-08eb-4d59-a3ba-482f7b90846e",
          "display": "Eliane Rijneveld"
        }
      }
    },
    {
      "fullUrl": "urn:uuid:d9a4fcd1-2178-4d9f-8233-00e0818e2b40",
      "resource": {
        "resourceType": "Medication",
        "id": "d9a4fcd1-2178-4d9f-8233-00e0818e2b40",
        "meta": {
          "profile": [
            "http://hl7.org/fhir/uv/ips/StructureDefinition/Medication-uv-ips"
          ]
        },
        "code": {
          "coding": [
            {
              "code": "705129",
              "system": "http://www.nlm.nih.gov/research/umls/rxnorm",
              "display": "nitroglycerin 0.4 MG/ACTUAT Mucosal Spray"
            },
            {
              "code": "425176000",
              "system": "http://snomed.info/sct",
              "display": "Product containing precisely glyceryl trinitrate 400 microgram/1 actuation conventional release sublingual spray (clinical drug)"
            }
          ],
          "text": "Nitroglycerin 400 microgram/actuation sublingual spray"
        },
        "form": {
          "coding": [
            {
              "code": "385074009",
              "system": "http://snomed.info/sct",
              "display": "Sublingual spray"
            }
          ]
        },
        "ingredient": [
          {
            "itemCodeableConcept": {
              "coding": [
                {
                  "code": "387404004",
                  "system": "http://snomed.info/sct",
                  "display": "Glyceryl trinitrate"
                }
              ]
            },
            "isActive": true
          }
        ]
      }
    },
    {
      "fullUrl": "urn:uuid:82ca357b-7fd2-457a-93b5-1702414f14eb",
      "resource": {
        "resourceType": "MedicationStatement",
        "id": "82ca357b-7fd2-457a-93b5-1702414f14eb",
        "meta": {
          "profile": [
            "http://hl7.org/fhir/uv/ips/StructureDefinition/MedicationStatement-uv-ips"
          ]
        },
        "effectivePeriod": {
          "start": "2024-12-08"
        },
        "dosage": [
          {
            "doseAndRate": [
              {
                "doseQuantity": {
                  "value": 400,
                  "unit": "microgram",
                  "code": "ug"
                }
              }
            ],
            "timing": {
              "repeat": {
                "frequency": 1,
                "period": 5,
                "periodUnit": "min"
              }
            },
            "text": "400 micrograms per spray, spray one dose under the tongue as needed for chest pain, repeat every 5 minutes as needed, up to 3 sprays in 15 minutes",
            "asNeededBoolean": true
          }
        ],
        "status": "active",
        "medicationReference": {
          "reference": "Medication/d9a4fcd1-2178-4d9f-8233-00e0818e2b40",
          "display": "Nitroglycerin 400 microgram/actuation sublingual spray"
        },
        "subject": {
          "reference": "Patient/72064507-08eb-4d59-a3ba-482f7b90846e",
          "display": "Eliane Rijneveld"
        }
      }
    },
    {
      "fullUrl": "urn:uuid:3cb9c9d9-5d30-4cd1-98a6-551ee7a3d70c",
      "resource": {
        "resourceType": "Medication",
        "id": "3cb9c9d9-5d30-4cd1-98a6-551ee7a3d70c",
        "meta": {
          "profile": [
            "http://hl7.org/fhir/uv/ips/StructureDefinition/Medication-uv-ips"
          ]
        },
        "code": {
          "coding": [
            {
              "code": "866412",
              "system": "http://www.nlm.nih.gov/research/umls/rxnorm",
              "display": "24 HR metoprolol succinate 100 MG Extended Release Oral Tablet"
            },
            {
              "code": "879980009",
              "system": "http://snomed.info/sct",
              "display": "Product containing precisely metoprolol tartrate (as metoprolol succinate) 100 milligram/1 each prolonged-release oral tablet (clinical drug)"
            }
          ],
          "text": "Metoprolol tartrate (as metoprolol succinate) 100 mg prolonged-release oral tablet"
        },
        "form": {
          "coding": [
            {
              "code": "385060002",
              "system": "http://snomed.info/sct",
              "display": "Prolonged-release oral tablet"
            }
          ]
        },
        "ingredient": [
          {
            "itemCodeableConcept": {
              "coding": [
                {
                  "code": "412432007",
                  "system": "http://snomed.info/sct",
                  "display": "Metoprolol succinate"
                }
              ]
            },
            "isActive": true
          }
        ]
      }
    },
    {
      "fullUrl": "urn:uuid:2c2792c6-4bc7-4be2-84e4-7a7c1cbeadb9",
      "resource": {
        "resourceType": "MedicationStatement",
        "id": "2c2792c6-4bc7-4be2-84e4-7a7c1cbeadb9",
        "meta": {
          "profile": [
            "http://hl7.org/fhir/uv/ips/StructureDefinition/MedicationStatement-uv-ips"
          ]
        },
        "effectivePeriod": {
          "start": "2024-12-08"
        },
        "dosage": [
          {
            "doseAndRate": [
              {
                "doseQuantity": {
                  "value": 1,
                  "unit": "{tbl}",
                  "code": "{tbl}"
                }
              }
            ],
            "timing": {
              "repeat": {
                "frequency": 1,
                "period": 1,
                "periodUnit": "d"
              }
            },
            "text": "1 tablet (100 mg) once daily",
            "asNeededBoolean": false
          }
        ],
        "status": "active",
        "medicationReference": {
          "reference": "Medication/3cb9c9d9-5d30-4cd1-98a6-551ee7a3d70c",
          "display": "Metoprolol tartrate (as metoprolol succinate) 100 mg prolonged-release oral tablet"
        },
        "subject": {
          "reference": "Patient/72064507-08eb-4d59-a3ba-482f7b90846e",
          "display": "Eliane Rijneveld"
        }
      }
    },
    {
      "fullUrl": "urn:uuid:478c5d2f-9897-4f48-918e-2f4f82537092",
      "resource": {
        "resourceType": "AllergyIntolerance",
        "id": "478c5d2f-9897-4f48-918e-2f4f82537092",
        "meta": {
          "profile": [
            "http://hl7.eu/fhir/eps/StructureDefinition/allergyIntolerance-eu-eps"
          ]
        },
        "code": {
          "coding": [
            {
              "code": "716186003",
              "system": "http://snomed.info/sct",
              "display": "No known allergy (situation)"
            }
          ]
        },
        "patient": {
          "reference": "Patient/72064507-08eb-4d59-a3ba-482f7b90846e",
          "display": "Eliane Rijneveld"
        },
        "_onsetDateTime": {
          "extension": [
            {
              "url": "http://hl7.org/fhir/StructureDefinition/data-absent-reason",
              "valueCode": "unknown"
            }
          ]
        }
      }
    },
    {
      "fullUrl": "urn:uuid:e49e12ff-77b4-442f-9605-6319ca602db8",
      "resource": {
        "resourceType": "Procedure",
        "id": "e49e12ff-77b4-442f-9605-6319ca602db8",
        "meta": {
          "profile": [
            "http://hl7.org/fhir/uv/ips/StructureDefinition/Procedure-uv-ips"
          ]
        },
        "code": {
          "coding": [
            {
              "code": "243063003",
              "system": "http://snomed.info/sct",
              "display": "Postoperative procedure education (procedure)"
            }
          ],
          "text": "Postoperative procedure education"
        },
        "reasonCode": [
          {
            "coding": [
              {
                "code": "399261000",
                "system": "http://snomed.info/sct",
                "display": "History of coronary artery bypass grafting (situation)"
              }
            ]
          }
        ],
        "status": "completed",
        "subject": {
          "reference": "Patient/72064507-08eb-4d59-a3ba-482f7b90846e",
          "display": "Eliane Rijneveld"
        },
        "performedDateTime": "2025-01-12"
      }
    },
    {
      "fullUrl": "urn:uuid:5555efbf-fbe5-4d14-9387-fff3eb1f091c",
      "resource": {
        "resourceType": "Procedure",
        "id": "5555efbf-fbe5-4d14-9387-fff3eb1f091c",
        "meta": {
          "profile": [
            "http://hl7.org/fhir/uv/ips/StructureDefinition/Procedure-uv-ips"
          ]
        },
        "code": {
          "coding": [
            {
              "code": "252482003",
              "system": "http://snomed.info/sct",
              "display": "Stair-climbing test (procedure)"
            }
          ],
          "text": "Stair-climbing test"
        },
        "reasonCode": [
          {
            "coding": [
              {
                "code": "399261000",
                "system": "http://snomed.info/sct",
                "display": "History of coronary artery bypass grafting (situation)"
              }
            ]
          }
        ],
        "status": "completed",
        "subject": {
          "reference": "Patient/72064507-08eb-4d59-a3ba-482f7b90846e",
          "display": "Eliane Rijneveld"
        },
        "performedDateTime": "2025-01-12"
      }
    },
    {
      "fullUrl": "urn:uuid:7f0594a7-1a3d-465a-a332-98551e575034",
      "resource": {
        "resourceType": "Procedure",
        "id": "7f0594a7-1a3d-465a-a332-98551e575034",
        "meta": {
          "profile": [
            "http://hl7.org/fhir/uv/ips/StructureDefinition/Procedure-uv-ips"
          ]
        },
        "code": {
          "coding": [
            {
              "code": "302761001",
              "system": "http://snomed.info/sct",
              "display": "Walking exercise test (procedure)"
            }
          ],
          "text": "Walking exercise test"
        },
        "reasonCode": [
          {
            "coding": [
              {
                "code": "399261000",
                "system": "http://snomed.info/sct",
                "display": "History of coronary artery bypass grafting (situation)"
              }
            ]
          }
        ],
        "status": "completed",
        "subject": {
          "reference": "Patient/72064507-08eb-4d59-a3ba-482f7b90846e",
          "display": "Eliane Rijneveld"
        },
        "performedDateTime": "2025-01-12"
      }
    },
    {
      "fullUrl": "urn:uuid:a1daedaa-29fc-49b4-b665-5ff748e84864",
      "resource": {
        "resourceType": "Procedure",
        "id": "a1daedaa-29fc-49b4-b665-5ff748e84864",
        "meta": {
          "profile": [
            "http://hl7.org/fhir/uv/ips/StructureDefinition/Procedure-uv-ips"
          ]
        },
        "code": {
          "coding": [
            {
              "code": "306706006",
              "system": "http://snomed.info/sct",
              "display": "Discharge to ward (procedure)"
            }
          ],
          "text": "Discharge to ward"
        },
        "status": "completed",
        "subject": {
          "reference": "Patient/72064507-08eb-4d59-a3ba-482f7b90846e",
          "display": "Eliane Rijneveld"
        },
        "performedDateTime": "2025-01-12"
      }
    },
    {
      "fullUrl": "urn:uuid:39d8a250-9cc0-478d-a026-54e559fa9de5",
      "resource": {
        "resourceType": "Procedure",
        "id": "39d8a250-9cc0-478d-a026-54e559fa9de5",
        "meta": {
          "profile": [
            "http://hl7.org/fhir/uv/ips/StructureDefinition/Procedure-uv-ips"
          ]
        },
        "code": {
          "coding": [
            {
              "code": "308283009",
              "system": "http://snomed.info/sct",
              "display": "Discharge from hospital (procedure)"
            }
          ],
          "text": "Discharge from hospital"
        },
        "reasonCode": [
          {
            "coding": [
              {
                "code": "399261000",
                "system": "http://snomed.info/sct",
                "display": "History of coronary artery bypass grafting (situation)"
              }
            ]
          }
        ],
        "status": "completed",
        "subject": {
          "reference": "Patient/72064507-08eb-4d59-a3ba-482f7b90846e",
          "display": "Eliane Rijneveld"
        },
        "performedDateTime": "2025-01-12"
      }
    },
    {
      "fullUrl": "urn:uuid:6b61a547-2d94-4959-a1e0-96f75b83ce72",
      "resource": {
        "resourceType": "Procedure",
        "id": "6b61a547-2d94-4959-a1e0-96f75b83ce72",
        "meta": {
          "profile": [
            "http://hl7.org/fhir/uv/ips/StructureDefinition/Procedure-uv-ips"
          ]
        },
        "code": {
          "coding": [
            {
              "code": "29303009",
              "system": "http://snomed.info/sct",
              "display": "Electrocardiographic procedure (procedure)"
            }
          ],
          "text": "Electrocardiographic procedure"
        },
        "status": "completed",
        "subject": {
          "reference": "Patient/72064507-08eb-4d59-a3ba-482f7b90846e",
          "display": "Eliane Rijneveld"
        },
        "performedDateTime": "2025-01-11"
      }
    },
    {
      "fullUrl": "urn:uuid:d7190d31-b71b-401e-853e-92ac3ba928b7",
      "resource": {
        "resourceType": "Procedure",
        "id": "d7190d31-b71b-401e-853e-92ac3ba928b7",
        "meta": {
          "profile": [
            "http://hl7.org/fhir/uv/ips/StructureDefinition/Procedure-uv-ips"
          ]
        },
        "code": {
          "coding": [
            {
              "code": "399208008",
              "system": "http://snomed.info/sct",
              "display": "Plain X-ray of chest (procedure)"
            }
          ],
          "text": "Plain X-ray of chest"
        },
        "status": "completed",
        "subject": {
          "reference": "Patient/72064507-08eb-4d59-a3ba-482f7b90846e",
          "display": "Eliane Rijneveld"
        },
        "performedDateTime": "2025-01-11"
      }
    },
    {
      "fullUrl": "urn:uuid:dfa2a343-6ccc-411e-87e5-764b4a985bf6",
      "resource": {
        "resourceType": "Procedure",
        "id": "dfa2a343-6ccc-411e-87e5-764b4a985bf6",
        "meta": {
          "profile": [
            "http://hl7.org/fhir/uv/ips/StructureDefinition/Procedure-uv-ips"
          ]
        },
        "code": {
          "coding": [
            {
              "code": "71493000",
              "system": "http://snomed.info/sct",
              "display": "Transfusion of packed red blood cells (procedure)"
            }
          ],
          "text": "Transfusion of packed red blood cells"
        },
        "status": "completed",
        "subject": {
          "reference": "Patient/72064507-08eb-4d59-a3ba-482f7b90846e",
          "display": "Eliane Rijneveld"
        },
        "performedDateTime": "2025-01-10"
      }
    },
    {
      "fullUrl": "urn:uuid:953a52d0-352a-48f7-af97-c823f7a8e3f8",
      "resource": {
        "resourceType": "Procedure",
        "id": "953a52d0-352a-48f7-af97-c823f7a8e3f8",
        "meta": {
          "profile": [
            "http://hl7.org/fhir/uv/ips/StructureDefinition/Procedure-uv-ips"
          ]
        },
        "code": {
          "coding": [
            {
              "code": "271280005",
              "system": "http://snomed.info/sct",
              "display": "Removal of endotracheal tube (procedure)"
            }
          ],
          "text": "Removal of endotracheal tube"
        },
        "status": "completed",
        "subject": {
          "reference": "Patient/72064507-08eb-4d59-a3ba-482f7b90846e",
          "display": "Eliane Rijneveld"
        },
        "performedDateTime": "2025-01-09"
      }
    },
    {
      "fullUrl": "urn:uuid:8a1e49ff-ab26-47ae-b3cb-4415c54be459",
      "resource": {
        "resourceType": "Procedure",
        "id": "8a1e49ff-ab26-47ae-b3cb-4415c54be459",
        "meta": {
          "profile": [
            "http://hl7.org/fhir/uv/ips/StructureDefinition/Procedure-uv-ips"
          ]
        },
        "code": {
          "coding": [
            {
              "code": "430701006",
              "system": "http://snomed.info/sct",
              "display": "Resuscitation using intravenous fluid (procedure)"
            }
          ],
          "text": "Resuscitation using intravenous fluid"
        },
        "reasonCode": [
          {
            "coding": [
              {
                "code": "91302008",
                "system": "http://snomed.info/sct",
                "display": "Sepsis (disorder)"
              }
            ]
          }
        ],
        "status": "completed",
        "subject": {
          "reference": "Patient/72064507-08eb-4d59-a3ba-482f7b90846e",
          "display": "Eliane Rijneveld"
        },
        "performedDateTime": "2016-01-28"
      }
    },
    {
      "fullUrl": "urn:uuid:6a7136b2-ea97-4cf8-99bb-32e177b3f3f2",
      "resource": {
        "resourceType": "Procedure",
        "id": "6a7136b2-ea97-4cf8-99bb-32e177b3f3f2",
        "meta": {
          "profile": [
            "http://hl7.org/fhir/uv/ips/StructureDefinition/Procedure-uv-ips"
          ]
        },
        "code": {
          "coding": [
            {
              "code": "449214001",
              "system": "http://snomed.info/sct",
              "display": "Transfer to stepdown unit (procedure)"
            }
          ],
          "text": "Transfer to stepdown unit"
        },
        "reasonCode": [
          {
            "coding": [
              {
                "code": "91302008",
                "system": "http://snomed.info/sct",
                "display": "Sepsis (disorder)"
              }
            ]
          }
        ],
        "status": "completed",
        "subject": {
          "reference": "Patient/72064507-08eb-4d59-a3ba-482f7b90846e",
          "display": "Eliane Rijneveld"
        },
        "performedDateTime": "2016-01-28"
      }
    },
    {
      "fullUrl": "urn:uuid:a5877066-e335-4cda-b9f6-4a407ffff525",
      "resource": {
        "resourceType": "Immunization",
        "id": "a5877066-e335-4cda-b9f6-4a407ffff525",
        "meta": {
          "profile": [
            "http://hl7.org/fhir/uv/ips/StructureDefinition/Immunization-uv-ips"
          ]
        },
        "vaccineCode": {
          "coding": [
            {
              "code": "1181000221105",
              "system": "http://snomed.info/sct",
              "display": "Vaccine product containing Influenza virus antigen"
            },
            {
              "code": "J07BB02",
              "system": "http://www.whocc.no/atc",
              "display": "Influenza, inactivated, split virus"
            },
            {
              "code": "140",
              "system": "http://hl7.org/fhir/sid/cvx",
              "display": "Influenza  seasonal  injectable  preservative free"
            }
          ],
          "text": "Influenza virus antigen only vaccine product"
        },
        "site": {
          "coding": [
            {
              "code": "73776007",
              "system": "http://snomed.info/sct",
              "display": "Structure of muscle of upper arm"
            }
          ],
          "text": "Structure of muscle of upper arm"
        },
        "route": {
          "coding": [
            {
              "code": "78421000",
              "system": "http://snomed.info/sct",
              "display": "Intramuscular route"
            }
          ],
          "text": "Intramuscular route"
        },
        "status": "completed",
        "patient": {
          "reference": "Patient/72064507-08eb-4d59-a3ba-482f7b90846e",
          "display": "Eliane Rijneveld"
        },
        "occurrenceDateTime": "2024-12-01",
        "lotNumber": "UN-XoVAd2",
        "expirationDate": "2025-11-20"
      }
    },
    {
      "fullUrl": "urn:uuid:d80cb2f8-2ccb-4b12-ae81-6acc0e1a7fb0",
      "resource": {
        "resourceType": "Immunization",
        "id": "d80cb2f8-2ccb-4b12-ae81-6acc0e1a7fb0",
        "meta": {
          "profile": [
            "http://hl7.org/fhir/uv/ips/StructureDefinition/Immunization-uv-ips"
          ]
        },
        "vaccineCode": {
          "coding": [
            {
              "code": "777725002",
              "system": "http://snomed.info/sct",
              "display": "Vaccine product containing only Clostridium tetani toxoid antigen adsorbed"
            },
            {
              "code": "J07AM51",
              "system": "http://www.whocc.no/atc",
              "display": "Diphtheria-tetanus vaccines, adult type"
            },
            {
              "code": "113",
              "system": "http://hl7.org/fhir/sid/cvx",
              "display": "Td (adult)  5 Lf tetanus toxoid  preservative free  adsorbed"
            }
          ],
          "text": "Clostridium tetani toxoid antigen adsorbed only vaccine product"
        },
        "site": {
          "coding": [
            {
              "code": "73776007",
              "system": "http://snomed.info/sct",
              "display": "Structure of muscle of upper arm"
            }
          ],
          "text": "Structure of muscle of upper arm"
        },
        "route": {
          "coding": [
            {
              "code": "78421000",
              "system": "http://snomed.info/sct",
              "display": "Intramuscular route"
            }
          ],
          "text": "Intramuscular route"
        },
        "status": "completed",
        "patient": {
          "reference": "Patient/72064507-08eb-4d59-a3ba-482f7b90846e",
          "display": "Eliane Rijneveld"
        },
        "occurrenceDateTime": "2023-11-26",
        "lotNumber": "FK-SCma",
        "expirationDate": "2024-08-26"
      }
    },
    {
      "fullUrl": "urn:uuid:618ca002-f3ce-4790-aa6c-f020b9338b20",
      "resource": {
        "resourceType": "Immunization",
        "id": "618ca002-f3ce-4790-aa6c-f020b9338b20",
        "meta": {
          "profile": [
            "http://hl7.org/fhir/uv/ips/StructureDefinition/Immunization-uv-ips"
          ]
        },
        "vaccineCode": {
          "coding": [
            {
              "code": "2221000221107",
              "system": "http://snomed.info/sct",
              "display": "Live attenuated Varicella-zoster vaccine"
            },
            {
              "code": "J07BK02",
              "system": "http://www.whocc.no/atc",
              "display": "Varicella-zoster vaccines"
            },
            {
              "code": "121",
              "system": "http://hl7.org/fhir/sid/cvx",
              "display": "zoster vaccine  live"
            }
          ],
          "text": "Live attenuated Human alphaherpesvirus 3 only vaccine product"
        },
        "site": {
          "coding": [
            {
              "code": "368208006",
              "system": "http://snomed.info/sct",
              "display": "Structure of skin of upper arm"
            }
          ],
          "text": "Structure of skin of upper arm"
        },
        "route": {
          "coding": [
            {
              "code": "34206005",
              "system": "http://snomed.info/sct",
              "display": "Subcutaneous route"
            }
          ],
          "text": "Subcutaneous route"
        },
        "status": "completed",
        "patient": {
          "reference": "Patient/72064507-08eb-4d59-a3ba-482f7b90846e",
          "display": "Eliane Rijneveld"
        },
        "occurrenceDateTime": "2023-11-26",
        "lotNumber": "AR-42wW73B",
        "expirationDate": "2024-03-11"
      }
    },
    {
      "fullUrl": "urn:uuid:f1891d78-fa2c-40a8-b3b0-25f606456d5e",
      "resource": {
        "resourceType": "Immunization",
        "id": "f1891d78-fa2c-40a8-b3b0-25f606456d5e",
        "meta": {
          "profile": [
            "http://hl7.org/fhir/uv/ips/StructureDefinition/Immunization-uv-ips"
          ]
        },
        "vaccineCode": {
          "coding": [
            {
              "code": "1119349007",
              "system": "http://snomed.info/sct",
              "display": "Vaccine product containing SARS-CoV-2 mRNA"
            },
            {
              "code": "J07BX03",
              "system": "http://www.whocc.no/atc",
              "display": "COVID-19 mRNA vaccines"
            },
            {
              "code": "207",
              "system": "http://hl7.org/fhir/sid/cvx",
              "display": "COVID-19  mRNA  LNP-S  PF  100 mcg/0.5mL dose or 50 mcg/0.25mL dose"
            }
          ],
          "text": "SARS-CoV-2 mRNA vaccine"
        },
        "site": {
          "coding": [
            {
              "code": "73776007",
              "system": "http://snomed.info/sct",
              "display": "Structure of muscle of upper arm"
            }
          ],
          "text": "Structure of muscle of upper arm"
        },
        "route": {
          "coding": [
            {
              "code": "78421000",
              "system": "http://snomed.info/sct",
              "display": "Intramuscular route"
            }
          ],
          "text": "Intramuscular route"
        },
        "status": "completed",
        "patient": {
          "reference": "Patient/72064507-08eb-4d59-a3ba-482f7b90846e",
          "display": "Eliane Rijneveld"
        },
        "occurrenceDateTime": "2021-08-15",
        "lotNumber": "SR-xVyFJqD",
        "expirationDate": "2021-11-12"
      }
    }
  ],
  "type": "document",
  "timestamp": "2025-06-17T11:26:49Z"
}
