{
  "resourceType": "Bundle",
  "id": "Instance-Bundle-7df19a0d-f338-42d7-bdc0-2fd8d1f5835b",
  "meta": {
    "profile": [
      "http://hl7.eu/fhir/eps/StructureDefinition/bundle-eu-eps"
    ]
  },
  "identifier": {
    "assigner": {
      "display": "HL7 Europe"
    },
    "system": "urn:oid:2.16.840.1.113883.2.51.999",
    "value": "58bf2e7e-b4c6-4542-9ec8-eb20bf9c48ee"
  },
  "entry": [
    {
      "fullUrl": "urn:uuid:8884f69e-6787-49cd-a2c7-70ee7a4f816f",
      "resource": {
        "resourceType": "Composition",
        "id": "8884f69e-6787-49cd-a2c7-70ee7a4f816f",
        "meta": {
          "profile": [
            "http://hl7.eu/fhir/eps/StructureDefinition/composition-eu-eps"
          ]
        },
        "identifier": {
          "assigner": {
            "display": "HL7 Europe"
          },
          "system": "urn:oid:2.16.840.1.113883.2.51.999",
          "value": "e7f92cb1-a30e-4391-9fb5-221c819a49c4"
        },
        "type": {
          "coding": [
            {
              "system": "http://loinc.org",
              "code": "60591-5",
              "display": "European Patient Summary"
            }
          ],
          "text": "European Patient Summary"
        },
        "author": [
          {
            "reference": "urn:uuid:76faa18b-777e-4edd-bff1-726e3801d862"
          }
        ],
        "section": [
          {
            "text": {
              "status": "generated",
              "div": "<div xmlns=\"http://www.w3.org/1999/xhtml\"><table class=\"hl7__ips\"><tr><th>Condition</th><th>Onset Date</th><th>Status</th></tr><tr><td>Osteoporosis</td><td><span class=\"nb\">2018-07-06</span></td><td>active</td></tr><tr><td>Hyperlipidemia</td><td><span class=\"nb\">2000-03-24</span></td><td>active</td></tr><tr><td>Impacted molars</td><td><span class=\"nb\">2000-01-26</span></td><td>active</td></tr><tr><td>Septic shock</td><td><span class=\"nb\">1988-04-27</span></td><td>active</td></tr><tr><td>Sepsis</td><td><span class=\"nb\">1988-04-27</span></td><td>active</td></tr><tr><td>Bleeding from anus</td><td><span class=\"nb\">1980-12-15</span></td><td>active</td></tr><tr><td>Anemia</td><td><span class=\"nb\">1972-03-31</span></td><td>active</td></tr><tr><td>Seizure disorder</td><td><span class=\"nb\">1945-01-27</span></td><td>active</td></tr><tr><td>Aortic valve stenosis</td><td><span class=\"nb\">1943-01-13</span></td><td>active</td></tr><tr><td><span class=\"grayedout\">Gingivitis</span></td><td><span class=\"nb\">2024-08-09</span></td><td><span class=\"grayedout\">inactive</span></td></tr><tr><td><span class=\"grayedout\">Viral sinusitis</span></td><td><span class=\"nb\">2024-02-21</span></td><td><span class=\"grayedout\">inactive</span></td></tr><tr><td><span class=\"grayedout\">Viral sinusitis</span></td><td><span class=\"nb\">2023-11-30</span></td><td><span class=\"grayedout\">inactive</span></td></tr><tr><td><span class=\"grayedout\">Gingivitis</span></td><td><span class=\"nb\">2023-08-04</span></td><td><span class=\"grayedout\">inactive</span></td></tr><tr><td><span class=\"grayedout\">Acute bronchitis</span></td><td><span class=\"nb\">2023-04-19</span></td><td><span class=\"grayedout\">inactive</span></td></tr><tr><td><span class=\"grayedout\">Gingivitis</span></td><td><span class=\"nb\">2021-07-23</span></td><td><span class=\"grayedout\">inactive</span></td></tr><tr><td><span class=\"grayedout\">Primary dental caries</span></td><td><span class=\"nb\">2018-07-20</span></td><td><span class=\"grayedout\">inactive</span></td></tr></table></div>"
            },
            "entry": [
              {
                "reference": "urn:uuid:660ccb1b-af06-4da8-a110-751f5b05e132"
              },
              {
                "reference": "urn:uuid:cdbb6e9c-f16e-4fa3-8d54-62ce82e635f4"
              },
              {
                "reference": "urn:uuid:abb8533a-1fd8-40fd-a16a-295d29cb74d4"
              },
              {
                "reference": "urn:uuid:51b776a6-6689-472f-a2d1-d618b66b6383"
              },
              {
                "reference": "urn:uuid:e7c65378-6493-4277-8b0f-be3fa1fd1183"
              },
              {
                "reference": "urn:uuid:5778c4f8-8cf5-4ab2-84c3-8dd42baab9ff"
              },
              {
                "reference": "urn:uuid:5a6b49cc-c714-4fdd-b79f-5d2ac11fb701"
              },
              {
                "reference": "urn:uuid:15c71449-b07c-4c01-ad3d-cf5c10650947"
              },
              {
                "reference": "urn:uuid:77b4642b-f218-4ecf-a85b-f26218fc32ac"
              },
              {
                "reference": "urn:uuid:68a42dcc-a240-4753-85c6-5f6978c5abe3"
              },
              {
                "reference": "urn:uuid:927001a1-58d2-417b-9dd4-cce489b6eab2"
              },
              {
                "reference": "urn:uuid:1882c4b7-9acd-4852-8d74-42190f105a46"
              },
              {
                "reference": "urn:uuid:2d9061cb-9db0-427b-bd3e-70b729b12db9"
              },
              {
                "reference": "urn:uuid:c12c272c-6855-4819-a2cd-1eee7aed06e8"
              },
              {
                "reference": "urn:uuid:d6e716f1-a4f9-485b-9d6e-094870f92e00"
              },
              {
                "reference": "urn:uuid:cedad1df-70b9-4e95-8981-b98610ba913f"
              }
            ],
            "code": {
              "coding": [
                {
                  "system": "http://loinc.org",
                  "code": "11450-4",
                  "display": "Problem list - Reported"
                }
              ]
            },
            "title": "Problem list"
          },
          {
            "text": {
              "status": "generated",
              "div": "<div xmlns=\"http://www.w3.org/1999/xhtml\"><table class=\"hl7__ips\"><tr><th>Medication</th><th>Since</th><th>Form</th><th>Dosage</th><th>Reason</th></tr><tr><td>Simvastatin 10 mg oral tablet</td><td><span class=\"nb\">2024-08-16</span></td><td>Oral tablet</td><td>1 tablet (10 mg) by mouth once daily</td><td>Hyperlipidemia (disorder)</td></tr><tr><td>Alendronic acid (as alendronate sodium) 10 mg oral tablet</td><td><span class=\"nb\">2024-08-09</span></td><td>Oral tablet</td><td>1 tablet (10 mg) once daily</td><td>Osteoporosis (disorder)</td></tr><tr><td>aspirin 81 MG Oral Capsule</td><td><span class=\"nb\">2024-08-09</span></td><td></td><td>1 tablet (81 mg) by mouth once daily</td><td></td></tr></table></div>"
            },
            "entry": [
              {
                "reference": "urn:uuid:96ca51b7-80eb-4d47-ba4a-28f33af9ed5e"
              },
              {
                "reference": "urn:uuid:212bcdfe-7a29-419e-b50b-c35e65e811ed"
              },
              {
                "reference": "urn:uuid:f485a4b3-5061-44b5-8c2e-26886af257eb"
              }
            ],
            "code": {
              "coding": [
                {
                  "system": "http://loinc.org",
                  "code": "10160-0",
                  "display": "History of Medication use Narrative"
                }
              ]
            },
            "title": "Medication list"
          },
          {
            "text": {
              "status": "generated",
              "div": "<div xmlns=\"http://www.w3.org/1999/xhtml\"><table class=\"hl7__ips\"><tr><td>No known allergies or intolerances</td></tr></table></div>"
            },
            "entry": [
              {
                "reference": "urn:uuid:ef099f7e-4ab7-4d2e-a2c3-c331c2cf27f1"
              }
            ],
            "code": {
              "coding": [
                {
                  "system": "http://loinc.org",
                  "code": "48765-2",
                  "display": "Allergies and adverse reactions Document"
                }
              ]
            },
            "title": "Allergies and Intolerances"
          },
          {
            "text": {
              "status": "generated",
              "div": "<div xmlns=\"http://www.w3.org/1999/xhtml\"><table class=\"hl7__ips\"><tr><th>Procedure</th><th>Date</th><th>Reason</th></tr><tr><td>Patient discharge</td><td><span class=\"nb\">2023-02-19</span></td><td>-</td></tr><tr><td>Hospice care</td><td><span class=\"nb\">2023-02-18</span></td><td>-</td></tr><tr><td>Notifications</td><td><span class=\"nb\">2023-01-20</span></td><td>-</td></tr><tr><td>Certification procedure</td><td><span class=\"nb\">2023-01-20</span></td><td>-</td></tr><tr><td>Initial patient assessment</td><td><span class=\"nb\">2023-01-20</span></td><td>-</td></tr><tr><td>Development of individualized plan of care</td><td><span class=\"nb\">2023-01-20</span></td><td>-</td></tr></table></div>"
            },
            "entry": [
              {
                "reference": "urn:uuid:7507f23e-6ce1-4253-b266-2e4515b21893"
              },
              {
                "reference": "urn:uuid:ee381573-7896-40a9-be28-3d64f45e6063"
              },
              {
                "reference": "urn:uuid:41208132-f363-4c36-aff0-39d88cd155c9"
              },
              {
                "reference": "urn:uuid:36c5f3ca-3f4f-42e0-9f6b-e6398cb04b30"
              },
              {
                "reference": "urn:uuid:88c41d67-06c9-4f93-a4ba-35e2a390253c"
              },
              {
                "reference": "urn:uuid:e22a9b51-52f5-4643-9958-7c30c56f0bf3"
              }
            ],
            "code": {
              "coding": [
                {
                  "system": "http://loinc.org",
                  "code": "47519-4",
                  "display": "History of Procedures Document"
                }
              ]
            },
            "title": "Procedure History list"
          },
          {
            "text": {
              "status": "generated",
              "div": "<div xmlns=\"http://www.w3.org/1999/xhtml\"><table class=\"hl7__ips\"><tr><th>Vaccine</th><th>Date</th></tr><tr><td>Influenza virus antigen only vaccine product</td><td><span class=\"nb\">2024-08-09</span></td></tr><tr><td>SARS-CoV-2 mRNA vaccine</td><td><span class=\"nb\">2021-04-02</span></td></tr><tr><td>Clostridium tetani toxoid antigen adsorbed only vaccine product</td><td><span class=\"nb\">2019-07-12</span></td></tr></table></div>"
            },
            "entry": [
              {
                "reference": "urn:uuid:501acbcf-bcd9-4e42-9801-880404048bc8"
              },
              {
                "reference": "urn:uuid:2bfb32c0-43d5-4f3d-95ab-94eb5bb8f223"
              },
              {
                "reference": "urn:uuid:655a77c5-0706-4e3e-b22b-e7275df903b6"
              }
            ],
            "code": {
              "coding": [
                {
                  "system": "http://loinc.org",
                  "code": "11369-6",
                  "display": "History of Immunization Narrative"
                }
              ]
            },
            "title": "Immunizations list"
          }
        ],
        "title": "European Patient Summary",
        "status": "final",
        "subject": {
          "reference": "urn:uuid:c8430f60-3db1-4297-b2e4-eb0dc73d75f9"
        },
        "custodian": {
          "reference": "urn:uuid:0f1876c8-7748-43ff-bc42-8df6cf0067ca"
        },
        "date": "2025-06-17T11:26:49Z",
        "confidentiality": "N"
      }
    },
    {
      "fullUrl": "urn:uuid:c8430f60-3db1-4297-b2e4-eb0dc73d75f9",
      "resource": {
        "resourceType": "Patient",
        "id": "c8430f60-3db1-4297-b2e4-eb0dc73d75f9",
        "meta": {
          "profile": [
            "http://hl7.eu/fhir/eps/StructureDefinition/patient-eu-eps"
          ]
        },
        "identifier": [
          {
            "type": {
              "coding": [
                {
                  "code": "NI",
                  "system": "http://terminology.hl7.org/CodeSystem/v2-0203"
                }
              ]
            },
            "system": "http://ec.europa.eu/identifier/eci",
            "value": "3133-085052-5"
          },
          {
            "type": {
              "coding": [
                {
                  "code": "MR",
                  "system": "http://terminology.hl7.org/CodeSystem/v2-0203"
                }
              ]
            },
            "system": "http://local.setting.eu/identifier",
            "value": "59be6f33-cd77-774a-8e0f-3286eff96d1c"
          }
        ],
        "name": [
          {
            "given": [
              "Obrad"
            ],
            "family": "Roršek",
            "text": "Obrad Roršek"
          }
        ],
        "address": [
          {
            "line": [
              "Kolodvorska 77"
            ],
            "use": "home",
            "type": "physical",
            "city": "Lesično",
            "postalCode": "3261",
            "country": "Slovenia"
          }
        ],
        "telecom": [
          {
            "system": "phone",
            "value": "+386 040-942-440"
          }
        ],
        "gender": "male",
        "birthDate": "1940-08-25"
      }
    },
    {
      "fullUrl": "urn:uuid:76faa18b-777e-4edd-bff1-726e3801d862",
      "resource": {
        "resourceType": "PractitionerRole",
        "id": "76faa18b-777e-4edd-bff1-726e3801d862",
        "meta": {
          "profile": [
            "http://hl7.eu/fhir/base/StructureDefinition/practitionerRole-eu"
          ]
        },
        "practitioner": {
          "reference": "urn:uuid:e906a452-367a-4d53-a72e-d8ece4f94481"
        },
        "organization": {
          "reference": "urn:uuid:0f1876c8-7748-43ff-bc42-8df6cf0067ca"
        }
      }
    },
    {
      "fullUrl": "urn:uuid:e906a452-367a-4d53-a72e-d8ece4f94481",
      "resource": {
        "resourceType": "Practitioner",
        "id": "e906a452-367a-4d53-a72e-d8ece4f94481",
        "meta": {
          "profile": [
            "http://hl7.eu/fhir/base/StructureDefinition/practitioner-eu"
          ]
        },
        "name": [
          {
            "prefix": [
              "Dr."
            ],
            "given": [
              "Hel"
            ],
            "family": "Ping"
          }
        ]
      }
    },
    {
      "fullUrl": "urn:uuid:660ccb1b-af06-4da8-a110-751f5b05e132",
      "resource": {
        "resourceType": "Condition",
        "id": "660ccb1b-af06-4da8-a110-751f5b05e132",
        "meta": {
          "profile": [
            "http://hl7.org/fhir/uv/ips/StructureDefinition/Condition-uv-ips"
          ]
        },
        "category": [
          {
            "coding": [
              {
                "code": "problem-list-item",
                "system": "http://terminology.hl7.org/CodeSystem/condition-category",
                "display": "Problem List Item"
              }
            ]
          }
        ],
        "code": {
          "coding": [
            {
              "code": "64859006",
              "system": "http://snomed.info/sct",
              "display": "Osteoporosis (disorder)"
            }
          ],
          "text": "Osteoporosis"
        },
        "onsetDateTime": "2018-07-06",
        "clinicalStatus": {
          "coding": [
            {
              "code": "active",
              "system": "http://terminology.hl7.org/CodeSystem/condition-clinical"
            }
          ]
        },
        "subject": {
          "reference": "Patient/c8430f60-3db1-4297-b2e4-eb0dc73d75f9",
          "display": "Obrad Roršek"
        },
        "asserter": {
          "reference": "Practitioner/e906a452-367a-4d53-a72e-d8ece4f94481",
          "display": "Dr. Hel Ping"
        }
      }
    },
    {
      "fullUrl": "urn:uuid:cdbb6e9c-f16e-4fa3-8d54-62ce82e635f4",
      "resource": {
        "resourceType": "Condition",
        "id": "cdbb6e9c-f16e-4fa3-8d54-62ce82e635f4",
        "meta": {
          "profile": [
            "http://hl7.org/fhir/uv/ips/StructureDefinition/Condition-uv-ips"
          ]
        },
        "category": [
          {
            "coding": [
              {
                "code": "problem-list-item",
                "system": "http://terminology.hl7.org/CodeSystem/condition-category",
                "display": "Problem List Item"
              }
            ]
          }
        ],
        "code": {
          "coding": [
            {
              "code": "55822004",
              "system": "http://snomed.info/sct",
              "display": "Hyperlipidemia (disorder)"
            }
          ],
          "text": "Hyperlipidemia"
        },
        "onsetDateTime": "2000-03-24",
        "clinicalStatus": {
          "coding": [
            {
              "code": "active",
              "system": "http://terminology.hl7.org/CodeSystem/condition-clinical"
            }
          ]
        },
        "subject": {
          "reference": "Patient/c8430f60-3db1-4297-b2e4-eb0dc73d75f9",
          "display": "Obrad Roršek"
        },
        "asserter": {
          "reference": "Practitioner/e906a452-367a-4d53-a72e-d8ece4f94481",
          "display": "Dr. Hel Ping"
        }
      }
    },
    {
      "fullUrl": "urn:uuid:abb8533a-1fd8-40fd-a16a-295d29cb74d4",
      "resource": {
        "resourceType": "Condition",
        "id": "abb8533a-1fd8-40fd-a16a-295d29cb74d4",
        "meta": {
          "profile": [
            "http://hl7.org/fhir/uv/ips/StructureDefinition/Condition-uv-ips"
          ]
        },
        "category": [
          {
            "coding": [
              {
                "code": "problem-list-item",
                "system": "http://terminology.hl7.org/CodeSystem/condition-category",
                "display": "Problem List Item"
              }
            ]
          }
        ],
        "code": {
          "coding": [
            {
              "code": "196416002",
              "system": "http://snomed.info/sct",
              "display": "Impacted molars (disorder)"
            }
          ],
          "text": "Impacted molars"
        },
        "onsetDateTime": "2000-01-26",
        "clinicalStatus": {
          "coding": [
            {
              "code": "active",
              "system": "http://terminology.hl7.org/CodeSystem/condition-clinical"
            }
          ]
        },
        "subject": {
          "reference": "Patient/c8430f60-3db1-4297-b2e4-eb0dc73d75f9",
          "display": "Obrad Roršek"
        },
        "asserter": {
          "reference": "Practitioner/e906a452-367a-4d53-a72e-d8ece4f94481",
          "display": "Dr. Hel Ping"
        }
      }
    },
    {
      "fullUrl": "urn:uuid:51b776a6-6689-472f-a2d1-d618b66b6383",
      "resource": {
        "resourceType": "Condition",
        "id": "51b776a6-6689-472f-a2d1-d618b66b6383",
        "meta": {
          "profile": [
            "http://hl7.org/fhir/uv/ips/StructureDefinition/Condition-uv-ips"
          ]
        },
        "category": [
          {
            "coding": [
              {
                "code": "problem-list-item",
                "system": "http://terminology.hl7.org/CodeSystem/condition-category",
                "display": "Problem List Item"
              }
            ]
          }
        ],
        "code": {
          "coding": [
            {
              "code": "76571007",
              "system": "http://snomed.info/sct",
              "display": "Septic shock (disorder)"
            }
          ],
          "text": "Septic shock"
        },
        "onsetDateTime": "1988-04-27",
        "clinicalStatus": {
          "coding": [
            {
              "code": "active",
              "system": "http://terminology.hl7.org/CodeSystem/condition-clinical"
            }
          ]
        },
        "subject": {
          "reference": "Patient/c8430f60-3db1-4297-b2e4-eb0dc73d75f9",
          "display": "Obrad Roršek"
        },
        "asserter": {
          "reference": "Practitioner/e906a452-367a-4d53-a72e-d8ece4f94481",
          "display": "Dr. Hel Ping"
        }
      }
    },
    {
      "fullUrl": "urn:uuid:e7c65378-6493-4277-8b0f-be3fa1fd1183",
      "resource": {
        "resourceType": "Condition",
        "id": "e7c65378-6493-4277-8b0f-be3fa1fd1183",
        "meta": {
          "profile": [
            "http://hl7.org/fhir/uv/ips/StructureDefinition/Condition-uv-ips"
          ]
        },
        "category": [
          {
            "coding": [
              {
                "code": "problem-list-item",
                "system": "http://terminology.hl7.org/CodeSystem/condition-category",
                "display": "Problem List Item"
              }
            ]
          }
        ],
        "code": {
          "coding": [
            {
              "code": "91302008",
              "system": "http://snomed.info/sct",
              "display": "Sepsis (disorder)"
            }
          ],
          "text": "Sepsis"
        },
        "onsetDateTime": "1988-04-27",
        "clinicalStatus": {
          "coding": [
            {
              "code": "active",
              "system": "http://terminology.hl7.org/CodeSystem/condition-clinical"
            }
          ]
        },
        "subject": {
          "reference": "Patient/c8430f60-3db1-4297-b2e4-eb0dc73d75f9",
          "display": "Obrad Roršek"
        },
        "asserter": {
          "reference": "Practitioner/e906a452-367a-4d53-a72e-d8ece4f94481",
          "display": "Dr. Hel Ping"
        }
      }
    },
    {
      "fullUrl": "urn:uuid:5778c4f8-8cf5-4ab2-84c3-8dd42baab9ff",
      "resource": {
        "resourceType": "Condition",
        "id": "5778c4f8-8cf5-4ab2-84c3-8dd42baab9ff",
        "meta": {
          "profile": [
            "http://hl7.org/fhir/uv/ips/StructureDefinition/Condition-uv-ips"
          ]
        },
        "category": [
          {
            "coding": [
              {
                "code": "problem-list-item",
                "system": "http://terminology.hl7.org/CodeSystem/condition-category",
                "display": "Problem List Item"
              }
            ]
          }
        ],
        "code": {
          "coding": [
            {
              "code": "6072007",
              "system": "http://snomed.info/sct",
              "display": "Bleeding from anus (disorder)"
            }
          ],
          "text": "Bleeding from anus"
        },
        "onsetDateTime": "1980-12-15",
        "clinicalStatus": {
          "coding": [
            {
              "code": "active",
              "system": "http://terminology.hl7.org/CodeSystem/condition-clinical"
            }
          ]
        },
        "subject": {
          "reference": "Patient/c8430f60-3db1-4297-b2e4-eb0dc73d75f9",
          "display": "Obrad Roršek"
        },
        "asserter": {
          "reference": "Practitioner/e906a452-367a-4d53-a72e-d8ece4f94481",
          "display": "Dr. Hel Ping"
        }
      }
    },
    {
      "fullUrl": "urn:uuid:5a6b49cc-c714-4fdd-b79f-5d2ac11fb701",
      "resource": {
        "resourceType": "Condition",
        "id": "5a6b49cc-c714-4fdd-b79f-5d2ac11fb701",
        "meta": {
          "profile": [
            "http://hl7.org/fhir/uv/ips/StructureDefinition/Condition-uv-ips"
          ]
        },
        "category": [
          {
            "coding": [
              {
                "code": "problem-list-item",
                "system": "http://terminology.hl7.org/CodeSystem/condition-category",
                "display": "Problem List Item"
              }
            ]
          }
        ],
        "code": {
          "coding": [
            {
              "code": "271737000",
              "system": "http://snomed.info/sct",
              "display": "Anemia (disorder)"
            }
          ],
          "text": "Anemia"
        },
        "onsetDateTime": "1972-03-31",
        "clinicalStatus": {
          "coding": [
            {
              "code": "active",
              "system": "http://terminology.hl7.org/CodeSystem/condition-clinical"
            }
          ]
        },
        "subject": {
          "reference": "Patient/c8430f60-3db1-4297-b2e4-eb0dc73d75f9",
          "display": "Obrad Roršek"
        },
        "asserter": {
          "reference": "Practitioner/e906a452-367a-4d53-a72e-d8ece4f94481",
          "display": "Dr. Hel Ping"
        }
      }
    },
    {
      "fullUrl": "urn:uuid:15c71449-b07c-4c01-ad3d-cf5c10650947",
      "resource": {
        "resourceType": "Condition",
        "id": "15c71449-b07c-4c01-ad3d-cf5c10650947",
        "meta": {
          "profile": [
            "http://hl7.org/fhir/uv/ips/StructureDefinition/Condition-uv-ips"
          ]
        },
        "category": [
          {
            "coding": [
              {
                "code": "problem-list-item",
                "system": "http://terminology.hl7.org/CodeSystem/condition-category",
                "display": "Problem List Item"
              }
            ]
          }
        ],
        "code": {
          "coding": [
            {
              "code": "128613002",
              "system": "http://snomed.info/sct",
              "display": "Seizure disorder (disorder)"
            }
          ],
          "text": "Seizure disorder"
        },
        "onsetDateTime": "1945-01-27",
        "clinicalStatus": {
          "coding": [
            {
              "code": "active",
              "system": "http://terminology.hl7.org/CodeSystem/condition-clinical"
            }
          ]
        },
        "subject": {
          "reference": "Patient/c8430f60-3db1-4297-b2e4-eb0dc73d75f9",
          "display": "Obrad Roršek"
        },
        "asserter": {
          "reference": "Practitioner/e906a452-367a-4d53-a72e-d8ece4f94481",
          "display": "Dr. Hel Ping"
        }
      }
    },
    {
      "fullUrl": "urn:uuid:77b4642b-f218-4ecf-a85b-f26218fc32ac",
      "resource": {
        "resourceType": "Condition",
        "id": "77b4642b-f218-4ecf-a85b-f26218fc32ac",
        "meta": {
          "profile": [
            "http://hl7.org/fhir/uv/ips/StructureDefinition/Condition-uv-ips"
          ]
        },
        "category": [
          {
            "coding": [
              {
                "code": "problem-list-item",
                "system": "http://terminology.hl7.org/CodeSystem/condition-category",
                "display": "Problem List Item"
              }
            ]
          }
        ],
        "code": {
          "coding": [
            {
              "code": "60573004",
              "system": "http://snomed.info/sct",
              "display": "Aortic valve stenosis (disorder)"
            }
          ],
          "text": "Aortic valve stenosis"
        },
        "onsetDateTime": "1943-01-13",
        "clinicalStatus": {
          "coding": [
            {
              "code": "active",
              "system": "http://terminology.hl7.org/CodeSystem/condition-clinical"
            }
          ]
        },
        "subject": {
          "reference": "Patient/c8430f60-3db1-4297-b2e4-eb0dc73d75f9",
          "display": "Obrad Roršek"
        },
        "asserter": {
          "reference": "Practitioner/e906a452-367a-4d53-a72e-d8ece4f94481",
          "display": "Dr. Hel Ping"
        }
      }
    },
    {
      "fullUrl": "urn:uuid:68a42dcc-a240-4753-85c6-5f6978c5abe3",
      "resource": {
        "resourceType": "Condition",
        "id": "68a42dcc-a240-4753-85c6-5f6978c5abe3",
        "meta": {
          "profile": [
            "http://hl7.org/fhir/uv/ips/StructureDefinition/Condition-uv-ips"
          ]
        },
        "category": [
          {
            "coding": [
              {
                "code": "problem-list-item",
                "system": "http://terminology.hl7.org/CodeSystem/condition-category",
                "display": "Problem List Item"
              }
            ]
          }
        ],
        "code": {
          "coding": [
            {
              "code": "66383009",
              "system": "http://snomed.info/sct",
              "display": "Gingivitis (disorder)"
            }
          ],
          "text": "Gingivitis"
        },
        "onsetDateTime": "2024-08-09",
        "clinicalStatus": {
          "coding": [
            {
              "code": "inactive",
              "system": "http://terminology.hl7.org/CodeSystem/condition-clinical"
            }
          ]
        },
        "subject": {
          "reference": "Patient/c8430f60-3db1-4297-b2e4-eb0dc73d75f9",
          "display": "Obrad Roršek"
        },
        "asserter": {
          "reference": "Practitioner/e906a452-367a-4d53-a72e-d8ece4f94481",
          "display": "Dr. Hel Ping"
        }
      }
    },
    {
      "fullUrl": "urn:uuid:927001a1-58d2-417b-9dd4-cce489b6eab2",
      "resource": {
        "resourceType": "Condition",
        "id": "927001a1-58d2-417b-9dd4-cce489b6eab2",
        "meta": {
          "profile": [
            "http://hl7.org/fhir/uv/ips/StructureDefinition/Condition-uv-ips"
          ]
        },
        "category": [
          {
            "coding": [
              {
                "code": "problem-list-item",
                "system": "http://terminology.hl7.org/CodeSystem/condition-category",
                "display": "Problem List Item"
              }
            ]
          }
        ],
        "code": {
          "coding": [
            {
              "code": "444814009",
              "system": "http://snomed.info/sct",
              "display": "Viral sinusitis (disorder)"
            }
          ],
          "text": "Viral sinusitis"
        },
        "onsetDateTime": "2024-02-21",
        "clinicalStatus": {
          "coding": [
            {
              "code": "inactive",
              "system": "http://terminology.hl7.org/CodeSystem/condition-clinical"
            }
          ]
        },
        "subject": {
          "reference": "Patient/c8430f60-3db1-4297-b2e4-eb0dc73d75f9",
          "display": "Obrad Roršek"
        },
        "asserter": {
          "reference": "Practitioner/e906a452-367a-4d53-a72e-d8ece4f94481",
          "display": "Dr. Hel Ping"
        }
      }
    },
    {
      "fullUrl": "urn:uuid:1882c4b7-9acd-4852-8d74-42190f105a46",
      "resource": {
        "resourceType": "Condition",
        "id": "1882c4b7-9acd-4852-8d74-42190f105a46",
        "meta": {
          "profile": [
            "http://hl7.org/fhir/uv/ips/StructureDefinition/Condition-uv-ips"
          ]
        },
        "category": [
          {
            "coding": [
              {
                "code": "problem-list-item",
                "system": "http://terminology.hl7.org/CodeSystem/condition-category",
                "display": "Problem List Item"
              }
            ]
          }
        ],
        "code": {
          "coding": [
            {
              "code": "444814009",
              "system": "http://snomed.info/sct",
              "display": "Viral sinusitis (disorder)"
            }
          ],
          "text": "Viral sinusitis"
        },
        "onsetDateTime": "2023-11-30",
        "clinicalStatus": {
          "coding": [
            {
              "code": "inactive",
              "system": "http://terminology.hl7.org/CodeSystem/condition-clinical"
            }
          ]
        },
        "subject": {
          "reference": "Patient/c8430f60-3db1-4297-b2e4-eb0dc73d75f9",
          "display": "Obrad Roršek"
        },
        "asserter": {
          "reference": "Practitioner/e906a452-367a-4d53-a72e-d8ece4f94481",
          "display": "Dr. Hel Ping"
        }
      }
    },
    {
      "fullUrl": "urn:uuid:2d9061cb-9db0-427b-bd3e-70b729b12db9",
      "resource": {
        "resourceType": "Condition",
        "id": "2d9061cb-9db0-427b-bd3e-70b729b12db9",
        "meta": {
          "profile": [
            "http://hl7.org/fhir/uv/ips/StructureDefinition/Condition-uv-ips"
          ]
        },
        "category": [
          {
            "coding": [
              {
                "code": "problem-list-item",
                "system": "http://terminology.hl7.org/CodeSystem/condition-category",
                "display": "Problem List Item"
              }
            ]
          }
        ],
        "code": {
          "coding": [
            {
              "code": "66383009",
              "system": "http://snomed.info/sct",
              "display": "Gingivitis (disorder)"
            }
          ],
          "text": "Gingivitis"
        },
        "onsetDateTime": "2023-08-04",
        "clinicalStatus": {
          "coding": [
            {
              "code": "inactive",
              "system": "http://terminology.hl7.org/CodeSystem/condition-clinical"
            }
          ]
        },
        "subject": {
          "reference": "Patient/c8430f60-3db1-4297-b2e4-eb0dc73d75f9",
          "display": "Obrad Roršek"
        },
        "asserter": {
          "reference": "Practitioner/e906a452-367a-4d53-a72e-d8ece4f94481",
          "display": "Dr. Hel Ping"
        }
      }
    },
    {
      "fullUrl": "urn:uuid:c12c272c-6855-4819-a2cd-1eee7aed06e8",
      "resource": {
        "resourceType": "Condition",
        "id": "c12c272c-6855-4819-a2cd-1eee7aed06e8",
        "meta": {
          "profile": [
            "http://hl7.org/fhir/uv/ips/StructureDefinition/Condition-uv-ips"
          ]
        },
        "category": [
          {
            "coding": [
              {
                "code": "problem-list-item",
                "system": "http://terminology.hl7.org/CodeSystem/condition-category",
                "display": "Problem List Item"
              }
            ]
          }
        ],
        "code": {
          "coding": [
            {
              "code": "10509002",
              "system": "http://snomed.info/sct",
              "display": "Acute bronchitis (disorder)"
            }
          ],
          "text": "Acute bronchitis"
        },
        "onsetDateTime": "2023-04-19",
        "clinicalStatus": {
          "coding": [
            {
              "code": "inactive",
              "system": "http://terminology.hl7.org/CodeSystem/condition-clinical"
            }
          ]
        },
        "subject": {
          "reference": "Patient/c8430f60-3db1-4297-b2e4-eb0dc73d75f9",
          "display": "Obrad Roršek"
        },
        "asserter": {
          "reference": "Practitioner/e906a452-367a-4d53-a72e-d8ece4f94481",
          "display": "Dr. Hel Ping"
        }
      }
    },
    {
      "fullUrl": "urn:uuid:d6e716f1-a4f9-485b-9d6e-094870f92e00",
      "resource": {
        "resourceType": "Condition",
        "id": "d6e716f1-a4f9-485b-9d6e-094870f92e00",
        "meta": {
          "profile": [
            "http://hl7.org/fhir/uv/ips/StructureDefinition/Condition-uv-ips"
          ]
        },
        "category": [
          {
            "coding": [
              {
                "code": "problem-list-item",
                "system": "http://terminology.hl7.org/CodeSystem/condition-category",
                "display": "Problem List Item"
              }
            ]
          }
        ],
        "code": {
          "coding": [
            {
              "code": "66383009",
              "system": "http://snomed.info/sct",
              "display": "Gingivitis (disorder)"
            }
          ],
          "text": "Gingivitis"
        },
        "onsetDateTime": "2021-07-23",
        "clinicalStatus": {
          "coding": [
            {
              "code": "inactive",
              "system": "http://terminology.hl7.org/CodeSystem/condition-clinical"
            }
          ]
        },
        "subject": {
          "reference": "Patient/c8430f60-3db1-4297-b2e4-eb0dc73d75f9",
          "display": "Obrad Roršek"
        },
        "asserter": {
          "reference": "Practitioner/e906a452-367a-4d53-a72e-d8ece4f94481",
          "display": "Dr. Hel Ping"
        }
      }
    },
    {
      "fullUrl": "urn:uuid:cedad1df-70b9-4e95-8981-b98610ba913f",
      "resource": {
        "resourceType": "Condition",
        "id": "cedad1df-70b9-4e95-8981-b98610ba913f",
        "meta": {
          "profile": [
            "http://hl7.org/fhir/uv/ips/StructureDefinition/Condition-uv-ips"
          ]
        },
        "category": [
          {
            "coding": [
              {
                "code": "problem-list-item",
                "system": "http://terminology.hl7.org/CodeSystem/condition-category",
                "display": "Problem List Item"
              }
            ]
          }
        ],
        "code": {
          "coding": [
            {
              "code": "109570002",
              "system": "http://snomed.info/sct",
              "display": "Primary dental caries (disorder)"
            }
          ],
          "text": "Primary dental caries"
        },
        "onsetDateTime": "2018-07-20",
        "clinicalStatus": {
          "coding": [
            {
              "code": "inactive",
              "system": "http://terminology.hl7.org/CodeSystem/condition-clinical"
            }
          ]
        },
        "subject": {
          "reference": "Patient/c8430f60-3db1-4297-b2e4-eb0dc73d75f9",
          "display": "Obrad Roršek"
        },
        "asserter": {
          "reference": "Practitioner/e906a452-367a-4d53-a72e-d8ece4f94481",
          "display": "Dr. Hel Ping"
        }
      }
    },
    {
      "fullUrl": "urn:uuid:e2b3bf02-da2c-4644-905e-994179e5dec7",
      "resource": {
        "resourceType": "Medication",
        "id": "e2b3bf02-da2c-4644-905e-994179e5dec7",
        "meta": {
          "profile": [
            "http://hl7.org/fhir/uv/ips/StructureDefinition/Medication-uv-ips"
          ]
        },
        "code": {
          "coding": [
            {
              "code": "314231",
              "system": "http://www.nlm.nih.gov/research/umls/rxnorm",
              "display": "simvastatin 10 MG Oral Tablet"
            },
            {
              "code": "319996000",
              "system": "http://snomed.info/sct",
              "display": "Product containing precisely simvastatin 10 milligram/1 each conventional release oral tablet (clinical drug)"
            }
          ],
          "text": "Simvastatin 10 mg oral tablet"
        },
        "form": {
          "coding": [
            {
              "code": "421026006",
              "system": "http://snomed.info/sct",
              "display": "Oral tablet"
            }
          ]
        },
        "ingredient": [
          {
            "itemCodeableConcept": {
              "coding": [
                {
                  "code": "387584000",
                  "system": "http://snomed.info/sct",
                  "display": "Simvastatin"
                }
              ]
            },
            "isActive": true
          }
        ]
      }
    },
    {
      "fullUrl": "urn:uuid:96ca51b7-80eb-4d47-ba4a-28f33af9ed5e",
      "resource": {
        "resourceType": "MedicationStatement",
        "id": "96ca51b7-80eb-4d47-ba4a-28f33af9ed5e",
        "meta": {
          "profile": [
            "http://hl7.org/fhir/uv/ips/StructureDefinition/MedicationStatement-uv-ips"
          ]
        },
        "effectivePeriod": {
          "start": "2024-08-16"
        },
        "dosage": [
          {
            "doseAndRate": [
              {
                "doseQuantity": {
                  "value": 1,
                  "unit": "{tbl}",
                  "code": "{tbl}"
                }
              }
            ],
            "timing": {
              "repeat": {
                "frequency": 1,
                "period": 1,
                "periodUnit": "d"
              }
            },
            "text": "1 tablet (10 mg) by mouth once daily",
            "asNeededBoolean": false
          }
        ],
        "reasonCode": [
          {
            "coding": [
              {
                "code": "55822004",
                "system": "http://snomed.info/sct",
                "display": "Hyperlipidemia (disorder)"
              }
            ]
          }
        ],
        "status": "active",
        "medicationReference": {
          "reference": "Medication/e2b3bf02-da2c-4644-905e-994179e5dec7",
          "display": "Simvastatin 10 mg oral tablet"
        },
        "subject": {
          "reference": "Patient/c8430f60-3db1-4297-b2e4-eb0dc73d75f9",
          "display": "Obrad Roršek"
        }
      }
    },
    {
      "fullUrl": "urn:uuid:af840c02-6a54-49b2-8953-93a0a8ccaeac",
      "resource": {
        "resourceType": "Medication",
        "id": "af840c02-6a54-49b2-8953-93a0a8ccaeac",
        "meta": {
          "profile": [
            "http://hl7.org/fhir/uv/ips/StructureDefinition/Medication-uv-ips"
          ]
        },
        "code": {
          "coding": [
            {
              "code": "904419",
              "system": "http://www.nlm.nih.gov/research/umls/rxnorm",
              "display": "alendronic acid 10 MG Oral Tablet"
            },
            {
              "code": "783144007",
              "system": "http://snomed.info/sct",
              "display": "Product containing precisely alendronic acid (as alendronate sodium) 10 milligram/1 each conventional release oral tablet (clinical drug)"
            }
          ],
          "text": "Alendronic acid (as alendronate sodium) 10 mg oral tablet"
        },
        "form": {
          "coding": [
            {
              "code": "421026006",
              "system": "http://snomed.info/sct",
              "display": "Oral tablet"
            }
          ]
        },
        "ingredient": [
          {
            "itemCodeableConcept": {
              "coding": [
                {
                  "code": "391729003",
                  "system": "http://snomed.info/sct",
                  "display": "Alendronate sodium"
                }
              ]
            },
            "isActive": true
          }
        ]
      }
    },
    {
      "fullUrl": "urn:uuid:212bcdfe-7a29-419e-b50b-c35e65e811ed",
      "resource": {
        "resourceType": "MedicationStatement",
        "id": "212bcdfe-7a29-419e-b50b-c35e65e811ed",
        "meta": {
          "profile": [
            "http://hl7.org/fhir/uv/ips/StructureDefinition/MedicationStatement-uv-ips"
          ]
        },
        "effectivePeriod": {
          "start": "2024-08-09"
        },
        "dosage": [
          {
            "doseAndRate": [
              {
                "doseQuantity": {
                  "value": 1,
                  "unit": "{tbl}",
                  "code": "{tbl}"
                }
              }
            ],
            "timing": {
              "repeat": {
                "frequency": 1,
                "period": 1,
                "periodUnit": "d"
              }
            },
            "text": "1 tablet (10 mg) once daily",
            "asNeededBoolean": false
          }
        ],
        "reasonCode": [
          {
            "coding": [
              {
                "code": "64859006",
                "system": "http://snomed.info/sct",
                "display": "Osteoporosis (disorder)"
              }
            ]
          }
        ],
        "status": "active",
        "medicationReference": {
          "reference": "Medication/af840c02-6a54-49b2-8953-93a0a8ccaeac",
          "display": "Alendronic acid (as alendronate sodium) 10 mg oral tablet"
        },
        "subject": {
          "reference": "Patient/c8430f60-3db1-4297-b2e4-eb0dc73d75f9",
          "display": "Obrad Roršek"
        }
      }
    },
    {
      "fullUrl": "urn:uuid:5ddfa4c9-2838-457c-a0d8-680b9a28069a",
      "resource": {
        "resourceType": "Medication",
        "id": "5ddfa4c9-2838-457c-a0d8-680b9a28069a",
        "meta": {
          "profile": [
            "http://hl7.org/fhir/uv/ips/StructureDefinition/Medication-uv-ips"
          ]
        },
        "code": {
          "coding": [
            {
              "code": "2563431",
              "system": "http://www.nlm.nih.gov/research/umls/rxnorm",
              "display": "aspirin 81 MG Oral Capsule"
            }
          ],
          "text": "aspirin 81 MG Oral Capsule"
        }
      }
    },
    {
      "fullUrl": "urn:uuid:f485a4b3-5061-44b5-8c2e-26886af257eb",
      "resource": {
        "resourceType": "MedicationStatement",
        "id": "f485a4b3-5061-44b5-8c2e-26886af257eb",
        "meta": {
          "profile": [
            "http://hl7.org/fhir/uv/ips/StructureDefinition/MedicationStatement-uv-ips"
          ]
        },
        "effectivePeriod": {
          "start": "2024-08-09"
        },
        "dosage": [
          {
            "doseAndRate": [
              {
                "doseQuantity": {
                  "value": 1,
                  "unit": "{tbl}",
                  "code": "{tbl}"
                }
              }
            ],
            "timing": {
              "repeat": {
                "frequency": 1,
                "period": 1,
                "periodUnit": "d"
              }
            },
            "text": "1 tablet (81 mg) by mouth once daily",
            "asNeededBoolean": false
          }
        ],
        "status": "active",
        "medicationReference": {
          "reference": "Medication/5ddfa4c9-2838-457c-a0d8-680b9a28069a",
          "display": "aspirin 81 MG Oral Capsule"
        },
        "subject": {
          "reference": "Patient/c8430f60-3db1-4297-b2e4-eb0dc73d75f9",
          "display": "Obrad Roršek"
        }
      }
    },
    {
      "fullUrl": "urn:uuid:ef099f7e-4ab7-4d2e-a2c3-c331c2cf27f1",
      "resource": {
        "resourceType": "AllergyIntolerance",
        "id": "ef099f7e-4ab7-4d2e-a2c3-c331c2cf27f1",
        "meta": {
          "profile": [
            "http://hl7.eu/fhir/eps/StructureDefinition/allergyIntolerance-eu-eps"
          ]
        },
        "code": {
          "coding": [
            {
              "code": "716186003",
              "system": "http://snomed.info/sct",
              "display": "No known allergy (situation)"
            }
          ]
        },
        "patient": {
          "reference": "Patient/c8430f60-3db1-4297-b2e4-eb0dc73d75f9",
          "display": "Obrad Roršek"
        },
        "_onsetDateTime": {
          "extension": [
            {
              "url": "http://hl7.org/fhir/StructureDefinition/data-absent-reason",
              "valueCode": "unknown"
            }
          ]
        }
      }
    },
    {
      "fullUrl": "urn:uuid:7507f23e-6ce1-4253-b266-2e4515b21893",
      "resource": {
        "resourceType": "Procedure",
        "id": "7507f23e-6ce1-4253-b266-2e4515b21893",
        "meta": {
          "profile": [
            "http://hl7.org/fhir/uv/ips/StructureDefinition/Procedure-uv-ips"
          ]
        },
        "code": {
          "coding": [
            {
              "code": "58000006",
              "system": "http://snomed.info/sct",
              "display": "Patient discharge (procedure)"
            }
          ],
          "text": "Patient discharge"
        },
        "status": "completed",
        "subject": {
          "reference": "Patient/c8430f60-3db1-4297-b2e4-eb0dc73d75f9",
          "display": "Obrad Roršek"
        },
        "performedDateTime": "2023-02-19"
      }
    },
    {
      "fullUrl": "urn:uuid:ee381573-7896-40a9-be28-3d64f45e6063",
      "resource": {
        "resourceType": "Procedure",
        "id": "ee381573-7896-40a9-be28-3d64f45e6063",
        "meta": {
          "profile": [
            "http://hl7.org/fhir/uv/ips/StructureDefinition/Procedure-uv-ips"
          ]
        },
        "code": {
          "coding": [
            {
              "code": "385763009",
              "system": "http://snomed.info/sct",
              "display": "Hospice care (regime/therapy)"
            }
          ],
          "text": "Hospice care"
        },
        "status": "completed",
        "subject": {
          "reference": "Patient/c8430f60-3db1-4297-b2e4-eb0dc73d75f9",
          "display": "Obrad Roršek"
        },
        "performedDateTime": "2023-02-18"
      }
    },
    {
      "fullUrl": "urn:uuid:41208132-f363-4c36-aff0-39d88cd155c9",
      "resource": {
        "resourceType": "Procedure",
        "id": "41208132-f363-4c36-aff0-39d88cd155c9",
        "meta": {
          "profile": [
            "http://hl7.org/fhir/uv/ips/StructureDefinition/Procedure-uv-ips"
          ]
        },
        "code": {
          "coding": [
            {
              "code": "185087000",
              "system": "http://snomed.info/sct",
              "display": "Notifications (procedure)"
            }
          ],
          "text": "Notifications"
        },
        "status": "completed",
        "subject": {
          "reference": "Patient/c8430f60-3db1-4297-b2e4-eb0dc73d75f9",
          "display": "Obrad Roršek"
        },
        "performedDateTime": "2023-01-20"
      }
    },
    {
      "fullUrl": "urn:uuid:36c5f3ca-3f4f-42e0-9f6b-e6398cb04b30",
      "resource": {
        "resourceType": "Procedure",
        "id": "36c5f3ca-3f4f-42e0-9f6b-e6398cb04b30",
        "meta": {
          "profile": [
            "http://hl7.org/fhir/uv/ips/StructureDefinition/Procedure-uv-ips"
          ]
        },
        "code": {
          "coding": [
            {
              "code": "310417005",
              "system": "http://snomed.info/sct",
              "display": "Certification procedure (procedure)"
            }
          ],
          "text": "Certification procedure"
        },
        "status": "completed",
        "subject": {
          "reference": "Patient/c8430f60-3db1-4297-b2e4-eb0dc73d75f9",
          "display": "Obrad Roršek"
        },
        "performedDateTime": "2023-01-20"
      }
    },
    {
      "fullUrl": "urn:uuid:88c41d67-06c9-4f93-a4ba-35e2a390253c",
      "resource": {
        "resourceType": "Procedure",
        "id": "88c41d67-06c9-4f93-a4ba-35e2a390253c",
        "meta": {
          "profile": [
            "http://hl7.org/fhir/uv/ips/StructureDefinition/Procedure-uv-ips"
          ]
        },
        "code": {
          "coding": [
            {
              "code": "315639002",
              "system": "http://snomed.info/sct",
              "display": "Initial patient assessment (procedure)"
            }
          ],
          "text": "Initial patient assessment"
        },
        "status": "completed",
        "subject": {
          "reference": "Patient/c8430f60-3db1-4297-b2e4-eb0dc73d75f9",
          "display": "Obrad Roršek"
        },
        "performedDateTime": "2023-01-20"
      }
    },
    {
      "fullUrl": "urn:uuid:e22a9b51-52f5-4643-9958-7c30c56f0bf3",
      "resource": {
        "resourceType": "Procedure",
        "id": "e22a9b51-52f5-4643-9958-7c30c56f0bf3",
        "meta": {
          "profile": [
            "http://hl7.org/fhir/uv/ips/StructureDefinition/Procedure-uv-ips"
          ]
        },
        "code": {
          "coding": [
            {
              "code": "370789001",
              "system": "http://snomed.info/sct",
              "display": "Development of individualized plan of care (procedure)"
            }
          ],
          "text": "Development of individualized plan of care"
        },
        "status": "completed",
        "subject": {
          "reference": "Patient/c8430f60-3db1-4297-b2e4-eb0dc73d75f9",
          "display": "Obrad Roršek"
        },
        "performedDateTime": "2023-01-20"
      }
    },
    {
      "fullUrl": "urn:uuid:501acbcf-bcd9-4e42-9801-880404048bc8",
      "resource": {
        "resourceType": "Immunization",
        "id": "501acbcf-bcd9-4e42-9801-880404048bc8",
        "meta": {
          "profile": [
            "http://hl7.org/fhir/uv/ips/StructureDefinition/Immunization-uv-ips"
          ]
        },
        "vaccineCode": {
          "coding": [
            {
              "code": "1181000221105",
              "system": "http://snomed.info/sct",
              "display": "Vaccine product containing Influenza virus antigen"
            },
            {
              "code": "J07BB02",
              "system": "http://www.whocc.no/atc",
              "display": "Influenza, inactivated, split virus"
            },
            {
              "code": "140",
              "system": "http://hl7.org/fhir/sid/cvx",
              "display": "Influenza  seasonal  injectable  preservative free"
            }
          ],
          "text": "Influenza virus antigen only vaccine product"
        },
        "site": {
          "coding": [
            {
              "code": "73776007",
              "system": "http://snomed.info/sct",
              "display": "Structure of muscle of upper arm"
            }
          ],
          "text": "Structure of muscle of upper arm"
        },
        "route": {
          "coding": [
            {
              "code": "78421000",
              "system": "http://snomed.info/sct",
              "display": "Intramuscular route"
            }
          ],
          "text": "Intramuscular route"
        },
        "status": "completed",
        "patient": {
          "reference": "Patient/c8430f60-3db1-4297-b2e4-eb0dc73d75f9",
          "display": "Obrad Roršek"
        },
        "occurrenceDateTime": "2024-08-09",
        "lotNumber": "RL-OpdHI",
        "expirationDate": "2025-06-25"
      }
    },
    {
      "fullUrl": "urn:uuid:2bfb32c0-43d5-4f3d-95ab-94eb5bb8f223",
      "resource": {
        "resourceType": "Immunization",
        "id": "2bfb32c0-43d5-4f3d-95ab-94eb5bb8f223",
        "meta": {
          "profile": [
            "http://hl7.org/fhir/uv/ips/StructureDefinition/Immunization-uv-ips"
          ]
        },
        "vaccineCode": {
          "coding": [
            {
              "code": "1119349007",
              "system": "http://snomed.info/sct",
              "display": "Vaccine product containing SARS-CoV-2 mRNA"
            },
            {
              "code": "J07BX03",
              "system": "http://www.whocc.no/atc",
              "display": "COVID-19 mRNA vaccines"
            },
            {
              "code": "207",
              "system": "http://hl7.org/fhir/sid/cvx",
              "display": "COVID-19  mRNA  LNP-S  PF  100 mcg/0.5mL dose or 50 mcg/0.25mL dose"
            }
          ],
          "text": "SARS-CoV-2 mRNA vaccine"
        },
        "site": {
          "coding": [
            {
              "code": "73776007",
              "system": "http://snomed.info/sct",
              "display": "Structure of muscle of upper arm"
            }
          ],
          "text": "Structure of muscle of upper arm"
        },
        "route": {
          "coding": [
            {
              "code": "78421000",
              "system": "http://snomed.info/sct",
              "display": "Intramuscular route"
            }
          ],
          "text": "Intramuscular route"
        },
        "status": "completed",
        "patient": {
          "reference": "Patient/c8430f60-3db1-4297-b2e4-eb0dc73d75f9",
          "display": "Obrad Roršek"
        },
        "occurrenceDateTime": "2021-04-02",
        "lotNumber": "UQ-IQr9WPC",
        "expirationDate": "2021-08-28"
      }
    },
    {
      "fullUrl": "urn:uuid:655a77c5-0706-4e3e-b22b-e7275df903b6",
      "resource": {
        "resourceType": "Immunization",
        "id": "655a77c5-0706-4e3e-b22b-e7275df903b6",
        "meta": {
          "profile": [
            "http://hl7.org/fhir/uv/ips/StructureDefinition/Immunization-uv-ips"
          ]
        },
        "vaccineCode": {
          "coding": [
            {
              "code": "777725002",
              "system": "http://snomed.info/sct",
              "display": "Vaccine product containing only Clostridium tetani toxoid antigen adsorbed"
            },
            {
              "code": "J07AM51",
              "system": "http://www.whocc.no/atc",
              "display": "Diphtheria-tetanus vaccines, adult type"
            },
            {
              "code": "113",
              "system": "http://hl7.org/fhir/sid/cvx",
              "display": "Td (adult)  5 Lf tetanus toxoid  preservative free  adsorbed"
            }
          ],
          "text": "Clostridium tetani toxoid antigen adsorbed only vaccine product"
        },
        "site": {
          "coding": [
            {
              "code": "73776007",
              "system": "http://snomed.info/sct",
              "display": "Structure of muscle of upper arm"
            }
          ],
          "text": "Structure of muscle of upper arm"
        },
        "route": {
          "coding": [
            {
              "code": "78421000",
              "system": "http://snomed.info/sct",
              "display": "Intramuscular route"
            }
          ],
          "text": "Intramuscular route"
        },
        "status": "completed",
        "patient": {
          "reference": "Patient/c8430f60-3db1-4297-b2e4-eb0dc73d75f9",
          "display": "Obrad Roršek"
        },
        "occurrenceDateTime": "2019-07-12",
        "lotNumber": "XV-xX2rmmrUq",
        "expirationDate": "2019-12-12"
      }
    }
  ],
  "type": "document",
  "timestamp": "2025-06-17T11:26:49Z"
}
