{
  "resourceType": "Bundle",
  "id": "Instance-Bundle-2b618be6-6bce-4991-bf31-d8124ca7bf5e",
  "meta": {
    "profile": [
      "http://hl7.eu/fhir/eps/StructureDefinition/bundle-eu-eps"
    ]
  },
  "identifier": {
    "assigner": {
      "display": "HL7 Europe"
    },
    "system": "urn:oid:2.16.840.1.113883.2.51.999",
    "value": "c8c845da-855c-4583-bd70-61adb91aa40e"
  },
  "entry": [
    {
      "fullUrl": "urn:uuid:0ce7ed0d-25e1-49a1-b5c3-3023cf4445e4",
      "resource": {
        "resourceType": "Composition",
        "id": "0ce7ed0d-25e1-49a1-b5c3-3023cf4445e4",
        "meta": {
          "profile": [
            "http://hl7.eu/fhir/eps/StructureDefinition/composition-eu-eps"
          ]
        },
        "identifier": {
          "assigner": {
            "display": "HL7 Europe"
          },
          "system": "urn:oid:2.16.840.1.113883.2.51.999",
          "value": "fa9e6534-9a35-44cc-bca6-13948b8b4d7d"
        },
        "type": {
          "coding": [
            {
              "system": "http://loinc.org",
              "code": "60591-5",
              "display": "European Patient Summary"
            }
          ],
          "text": "European Patient Summary"
        },
        "author": [
          {
            "reference": "urn:uuid:27110e64-0f3c-4333-bd96-df4e3c8474d2"
          }
        ],
        "section": [
          {
            "text": {
              "status": "generated",
              "div": "<div xmlns=\"http://www.w3.org/1999/xhtml\"><table class=\"hl7__ips\"><tr><th>Condition</th><th>Onset Date</th><th>Status</th></tr><tr><td>Ischemic heart disease</td><td><span class=\"nb\">2024-12-01</span></td><td>active</td></tr><tr><td>Hyperlipidemia</td><td><span class=\"nb\">2018-12-09</span></td><td>active</td></tr><tr><td>Sepsis</td><td><span class=\"nb\">2016-01-28</span></td><td>active</td></tr><tr><td>Malignant neoplasm of breast</td><td><span class=\"nb\">2012-10-03</span></td><td>active</td></tr><tr><td><span class=\"grayedout\">Gingivitis</span></td><td><span class=\"nb\">2024-12-01</span></td><td><span class=\"grayedout\">inactive</span></td></tr><tr><td><span class=\"grayedout\">Streptococcal sore throat</span></td><td><span class=\"nb\">2023-03-03</span></td><td><span class=\"grayedout\">inactive</span></td></tr><tr><td><span class=\"grayedout\">Acute bronchitis</span></td><td><span class=\"nb\">2020-10-16</span></td><td><span class=\"grayedout\">inactive</span></td></tr><tr><td><span class=\"grayedout\">Viral sinusitis</span></td><td><span class=\"nb\">2020-03-11</span></td><td><span class=\"grayedout\">inactive</span></td></tr><tr><td><span class=\"grayedout\">Acute bronchitis</span></td><td><span class=\"nb\">2015-05-31</span></td><td><span class=\"grayedout\">inactive</span></td></tr><tr><td><span class=\"grayedout\">Acute viral pharyngitis</span></td><td><span class=\"nb\">2015-05-02</span></td><td><span class=\"grayedout\">inactive</span></td></tr></table></div>"
            },
            "entry": [
              {
                "reference": "urn:uuid:9054371d-eaec-4708-9721-20c663e84f5c"
              },
              {
                "reference": "urn:uuid:adc89c7b-6f29-4d5f-8b2f-1cbdb6a496c6"
              },
              {
                "reference": "urn:uuid:5afc2a6c-1949-4652-ab78-893831fb6448"
              },
              {
                "reference": "urn:uuid:2a4e4fb2-6d88-452a-8825-cd5ebdb34ca6"
              },
              {
                "reference": "urn:uuid:45cf5af8-502b-4add-8910-518d1988debf"
              },
              {
                "reference": "urn:uuid:6787923f-92e9-47c3-bef0-42914830d789"
              },
              {
                "reference": "urn:uuid:14a072cb-ec16-4a85-9491-86975ea106f9"
              },
              {
                "reference": "urn:uuid:4932191a-9004-423e-8a66-3ee96a8d9c7f"
              },
              {
                "reference": "urn:uuid:e4d3dc0f-7cb0-4cca-b628-6028a0f7aec8"
              },
              {
                "reference": "urn:uuid:d5e35558-fd0a-4665-857b-c2f5de7ff162"
              }
            ],
            "code": {
              "coding": [
                {
                  "system": "http://loinc.org",
                  "code": "11450-4",
                  "display": "Problem list - Reported"
                }
              ]
            },
            "title": "Problem list"
          },
          {
            "text": {
              "status": "generated",
              "div": "<div xmlns=\"http://www.w3.org/1999/xhtml\"><table class=\"hl7__ips\"><tr><th>Medication</th><th>Since</th><th>Form</th><th>Dosage</th><th>Reason</th></tr><tr><td>Simvastatin 10 mg oral tablet</td><td><span class=\"nb\">2025-01-12</span></td><td>Oral tablet</td><td>1 tablet (10 mg) by mouth once daily</td><td>Hyperlipidemia (disorder)</td></tr><tr><td>Clopidogrel (as clopidogrel bisulfate) 75 mg oral tablet</td><td><span class=\"nb\">2024-12-08</span></td><td>Oral tablet</td><td>1 tablet (75 mg) once daily</td><td></td></tr><tr><td>Simvastatin 20 mg oral tablet</td><td><span class=\"nb\">2024-12-08</span></td><td>Oral tablet</td><td>1 tablet (20 mg) by mouth once daily</td><td></td></tr><tr><td>Nitroglycerin 400 microgram/actuation sublingual spray</td><td><span class=\"nb\">2024-12-08</span></td><td>Sublingual spray</td><td>400 micrograms per spray, use 1 spray under the tongue as needed for chest pain, may repeat every 5 minutes as needed, up to 3 sprays in 15 minutes</td><td></td></tr><tr><td>Metoprolol tartrate (as metoprolol succinate) 100 mg prolonged-release oral tablet</td><td><span class=\"nb\">2024-12-08</span></td><td>Prolonged-release oral tablet</td><td>1 tablet (100 mg) once daily</td><td></td></tr></table></div>"
            },
            "entry": [
              {
                "reference": "urn:uuid:e0012e2a-cdf7-4c83-94bc-6803328ed852"
              },
              {
                "reference": "urn:uuid:c25a75a0-19cf-42db-9b77-f31107628e1c"
              },
              {
                "reference": "urn:uuid:4042b539-bd43-4885-abb6-c4218a71d2f3"
              },
              {
                "reference": "urn:uuid:f55531d0-cd53-4c0c-aadc-661bbef6fb42"
              },
              {
                "reference": "urn:uuid:6b1f058f-e55b-4299-8548-220d98d6adef"
              }
            ],
            "code": {
              "coding": [
                {
                  "system": "http://loinc.org",
                  "code": "10160-0",
                  "display": "History of Medication use Narrative"
                }
              ]
            },
            "title": "Medication list"
          },
          {
            "text": {
              "status": "generated",
              "div": "<div xmlns=\"http://www.w3.org/1999/xhtml\"><table class=\"hl7__ips\"><tr><td>No known allergies or intolerances</td></tr></table></div>"
            },
            "entry": [
              {
                "reference": "urn:uuid:efb4b285-710b-4498-bedd-af8fb36e7249"
              }
            ],
            "code": {
              "coding": [
                {
                  "system": "http://loinc.org",
                  "code": "48765-2",
                  "display": "Allergies and adverse reactions Document"
                }
              ]
            },
            "title": "Allergies and Intolerances"
          },
          {
            "text": {
              "status": "generated",
              "div": "<div xmlns=\"http://www.w3.org/1999/xhtml\"><table class=\"hl7__ips\"><tr><th>Procedure</th><th>Date</th><th>Reason</th></tr><tr><td>Postoperative procedure education</td><td><span class=\"nb\">2025-01-12</span></td><td>History of coronary artery bypass grafting (situation)</td></tr><tr><td>Stair-climbing test</td><td><span class=\"nb\">2025-01-12</span></td><td>History of coronary artery bypass grafting (situation)</td></tr><tr><td>Walking exercise test</td><td><span class=\"nb\">2025-01-12</span></td><td>History of coronary artery bypass grafting (situation)</td></tr><tr><td>Discharge to ward</td><td><span class=\"nb\">2025-01-12</span></td><td>-</td></tr><tr><td>Discharge from hospital</td><td><span class=\"nb\">2025-01-12</span></td><td>History of coronary artery bypass grafting (situation)</td></tr><tr><td>Electrocardiographic procedure</td><td><span class=\"nb\">2025-01-11</span></td><td>-</td></tr><tr><td>Plain X-ray of chest</td><td><span class=\"nb\">2025-01-11</span></td><td>-</td></tr><tr><td>Transfusion of packed red blood cells</td><td><span class=\"nb\">2025-01-10</span></td><td>-</td></tr><tr><td>Removal of endotracheal tube</td><td><span class=\"nb\">2025-01-09</span></td><td>-</td></tr><tr><td>Resuscitation using intravenous fluid</td><td><span class=\"nb\">2016-01-28</span></td><td>Sepsis (disorder)</td></tr><tr><td>Transfer to stepdown unit</td><td><span class=\"nb\">2016-01-28</span></td><td>Sepsis (disorder)</td></tr></table></div>"
            },
            "entry": [
              {
                "reference": "urn:uuid:4d8c16f8-ee37-4b72-b4b3-2f38a1955a5f"
              },
              {
                "reference": "urn:uuid:25309eb7-99b6-4d62-ae3d-7ff893c53d12"
              },
              {
                "reference": "urn:uuid:5634efc0-9029-4cfe-80ee-eda6c6e16644"
              },
              {
                "reference": "urn:uuid:c904f2fd-d4e1-40ef-be86-01e74a43db33"
              },
              {
                "reference": "urn:uuid:8ca78d97-f8a1-4c7f-85a2-547ea6339d9c"
              },
              {
                "reference": "urn:uuid:804b1006-34a0-4150-8a60-8ee6bb3d8074"
              },
              {
                "reference": "urn:uuid:3b8e7c82-7697-4cec-a902-7d5bdf48826c"
              },
              {
                "reference": "urn:uuid:188b9fd2-2a17-4074-bff2-97682f09e995"
              },
              {
                "reference": "urn:uuid:3a89ab27-eed9-414e-95b4-32e990e135da"
              },
              {
                "reference": "urn:uuid:eedb694b-5351-4fef-bfef-895cbbb3d99b"
              },
              {
                "reference": "urn:uuid:5fcbb066-df81-49b6-b779-c32af644fce3"
              }
            ],
            "code": {
              "coding": [
                {
                  "system": "http://loinc.org",
                  "code": "47519-4",
                  "display": "History of Procedures Document"
                }
              ]
            },
            "title": "Procedure History list"
          },
          {
            "text": {
              "status": "generated",
              "div": "<div xmlns=\"http://www.w3.org/1999/xhtml\"><table class=\"hl7__ips\"><tr><th>Vaccine</th><th>Date</th></tr><tr><td>Influenza virus antigen only vaccine product</td><td><span class=\"nb\">2024-12-01</span></td></tr><tr><td>Clostridium tetani toxoid antigen adsorbed only vaccine product</td><td><span class=\"nb\">2023-11-26</span></td></tr><tr><td>Live attenuated Human alphaherpesvirus 3 only vaccine product</td><td><span class=\"nb\">2023-11-26</span></td></tr><tr><td>SARS-CoV-2 mRNA vaccine</td><td><span class=\"nb\">2021-08-15</span></td></tr></table></div>"
            },
            "entry": [
              {
                "reference": "urn:uuid:a2bb5b36-c0dd-45ca-9441-4333a0c3e5c8"
              },
              {
                "reference": "urn:uuid:0905d258-9b7c-43d5-914b-632663e0d2c1"
              },
              {
                "reference": "urn:uuid:0f62b517-1b9b-4699-8542-18275a384e91"
              },
              {
                "reference": "urn:uuid:8a9be177-2c09-4f1d-a3b5-cb33fb130a46"
              }
            ],
            "code": {
              "coding": [
                {
                  "system": "http://loinc.org",
                  "code": "11369-6",
                  "display": "History of Immunization Narrative"
                }
              ]
            },
            "title": "Immunizations list"
          }
        ],
        "title": "European Patient Summary",
        "status": "final",
        "subject": {
          "reference": "urn:uuid:cf777324-87d1-482d-bab0-fd553cfd97db"
        },
        "custodian": {
          "reference": "urn:uuid:958d10af-3786-47f2-8312-fb34565ba2b3"
        },
        "date": "2025-06-17T11:26:49Z",
        "confidentiality": "N"
      }
    },
    {
      "fullUrl": "urn:uuid:cf777324-87d1-482d-bab0-fd553cfd97db",
      "resource": {
        "resourceType": "Patient",
        "id": "cf777324-87d1-482d-bab0-fd553cfd97db",
        "meta": {
          "profile": [
            "http://hl7.eu/fhir/eps/StructureDefinition/patient-eu-eps"
          ]
        },
        "identifier": [
          {
            "type": {
              "coding": [
                {
                  "code": "NI",
                  "system": "http://terminology.hl7.org/CodeSystem/v2-0203"
                }
              ]
            },
            "system": "http://ec.europa.eu/identifier/eci",
            "value": "4651-576482-0"
          },
          {
            "type": {
              "coding": [
                {
                  "code": "MR",
                  "system": "http://terminology.hl7.org/CodeSystem/v2-0203"
                }
              ]
            },
            "system": "http://local.setting.eu/identifier",
            "value": "f952d41f-c3ee-717c-4185-e02cd757ad7e"
          }
        ],
        "name": [
          {
            "given": [
              "Eduarda"
            ],
            "family": "Campos",
            "text": "Eduarda Campos"
          }
        ],
        "address": [
          {
            "line": [
              "Strepestraat 280"
            ],
            "use": "home",
            "type": "physical",
            "city": "Lampernisse",
            "postalCode": "8600",
            "country": "Belgium"
          }
        ],
        "telecom": [
          {
            "system": "phone",
            "value": "+32 0473 88 18 21"
          }
        ],
        "gender": "female",
        "birthDate": "1970-12-14"
      }
    },
    {
      "fullUrl": "urn:uuid:27110e64-0f3c-4333-bd96-df4e3c8474d2",
      "resource": {
        "resourceType": "PractitionerRole",
        "id": "27110e64-0f3c-4333-bd96-df4e3c8474d2",
        "meta": {
          "profile": [
            "http://hl7.eu/fhir/base/StructureDefinition/practitionerRole-eu"
          ]
        },
        "practitioner": {
          "reference": "urn:uuid:3f3502c1-4efd-44d1-a89e-f130c83b58c3"
        },
        "organization": {
          "reference": "urn:uuid:958d10af-3786-47f2-8312-fb34565ba2b3"
        }
      }
    },
    {
      "fullUrl": "urn:uuid:3f3502c1-4efd-44d1-a89e-f130c83b58c3",
      "resource": {
        "resourceType": "Practitioner",
        "id": "3f3502c1-4efd-44d1-a89e-f130c83b58c3",
        "meta": {
          "profile": [
            "http://hl7.eu/fhir/base/StructureDefinition/practitioner-eu"
          ]
        },
        "name": [
          {
            "prefix": [
              "Dr."
            ],
            "given": [
              "Hel"
            ],
            "family": "Ping"
          }
        ]
      }
    },
    {
      "fullUrl": "urn:uuid:9054371d-eaec-4708-9721-20c663e84f5c",
      "resource": {
        "resourceType": "Condition",
        "id": "9054371d-eaec-4708-9721-20c663e84f5c",
        "meta": {
          "profile": [
            "http://hl7.org/fhir/uv/ips/StructureDefinition/Condition-uv-ips"
          ]
        },
        "category": [
          {
            "coding": [
              {
                "code": "problem-list-item",
                "system": "http://terminology.hl7.org/CodeSystem/condition-category",
                "display": "Problem List Item"
              }
            ]
          }
        ],
        "code": {
          "coding": [
            {
              "code": "414545008",
              "system": "http://snomed.info/sct",
              "display": "Ischemic heart disease (disorder)"
            }
          ],
          "text": "Ischemic heart disease"
        },
        "onsetDateTime": "2024-12-01",
        "clinicalStatus": {
          "coding": [
            {
              "code": "active",
              "system": "http://terminology.hl7.org/CodeSystem/condition-clinical"
            }
          ]
        },
        "subject": {
          "reference": "Patient/cf777324-87d1-482d-bab0-fd553cfd97db",
          "display": "Eduarda Campos"
        },
        "asserter": {
          "reference": "Practitioner/3f3502c1-4efd-44d1-a89e-f130c83b58c3",
          "display": "Dr. Hel Ping"
        }
      }
    },
    {
      "fullUrl": "urn:uuid:adc89c7b-6f29-4d5f-8b2f-1cbdb6a496c6",
      "resource": {
        "resourceType": "Condition",
        "id": "adc89c7b-6f29-4d5f-8b2f-1cbdb6a496c6",
        "meta": {
          "profile": [
            "http://hl7.org/fhir/uv/ips/StructureDefinition/Condition-uv-ips"
          ]
        },
        "category": [
          {
            "coding": [
              {
                "code": "problem-list-item",
                "system": "http://terminology.hl7.org/CodeSystem/condition-category",
                "display": "Problem List Item"
              }
            ]
          }
        ],
        "code": {
          "coding": [
            {
              "code": "55822004",
              "system": "http://snomed.info/sct",
              "display": "Hyperlipidemia (disorder)"
            }
          ],
          "text": "Hyperlipidemia"
        },
        "onsetDateTime": "2018-12-09",
        "clinicalStatus": {
          "coding": [
            {
              "code": "active",
              "system": "http://terminology.hl7.org/CodeSystem/condition-clinical"
            }
          ]
        },
        "subject": {
          "reference": "Patient/cf777324-87d1-482d-bab0-fd553cfd97db",
          "display": "Eduarda Campos"
        },
        "asserter": {
          "reference": "Practitioner/3f3502c1-4efd-44d1-a89e-f130c83b58c3",
          "display": "Dr. Hel Ping"
        }
      }
    },
    {
      "fullUrl": "urn:uuid:5afc2a6c-1949-4652-ab78-893831fb6448",
      "resource": {
        "resourceType": "Condition",
        "id": "5afc2a6c-1949-4652-ab78-893831fb6448",
        "meta": {
          "profile": [
            "http://hl7.org/fhir/uv/ips/StructureDefinition/Condition-uv-ips"
          ]
        },
        "category": [
          {
            "coding": [
              {
                "code": "problem-list-item",
                "system": "http://terminology.hl7.org/CodeSystem/condition-category",
                "display": "Problem List Item"
              }
            ]
          }
        ],
        "code": {
          "coding": [
            {
              "code": "91302008",
              "system": "http://snomed.info/sct",
              "display": "Sepsis (disorder)"
            }
          ],
          "text": "Sepsis"
        },
        "onsetDateTime": "2016-01-28",
        "clinicalStatus": {
          "coding": [
            {
              "code": "active",
              "system": "http://terminology.hl7.org/CodeSystem/condition-clinical"
            }
          ]
        },
        "subject": {
          "reference": "Patient/cf777324-87d1-482d-bab0-fd553cfd97db",
          "display": "Eduarda Campos"
        },
        "asserter": {
          "reference": "Practitioner/3f3502c1-4efd-44d1-a89e-f130c83b58c3",
          "display": "Dr. Hel Ping"
        }
      }
    },
    {
      "fullUrl": "urn:uuid:2a4e4fb2-6d88-452a-8825-cd5ebdb34ca6",
      "resource": {
        "resourceType": "Condition",
        "id": "2a4e4fb2-6d88-452a-8825-cd5ebdb34ca6",
        "meta": {
          "profile": [
            "http://hl7.org/fhir/uv/ips/StructureDefinition/Condition-uv-ips"
          ]
        },
        "category": [
          {
            "coding": [
              {
                "code": "problem-list-item",
                "system": "http://terminology.hl7.org/CodeSystem/condition-category",
                "display": "Problem List Item"
              }
            ]
          }
        ],
        "code": {
          "coding": [
            {
              "code": "254837009",
              "system": "http://snomed.info/sct",
              "display": "Malignant neoplasm of breast (disorder)"
            }
          ],
          "text": "Malignant neoplasm of breast"
        },
        "onsetDateTime": "2012-10-03",
        "clinicalStatus": {
          "coding": [
            {
              "code": "active",
              "system": "http://terminology.hl7.org/CodeSystem/condition-clinical"
            }
          ]
        },
        "subject": {
          "reference": "Patient/cf777324-87d1-482d-bab0-fd553cfd97db",
          "display": "Eduarda Campos"
        },
        "asserter": {
          "reference": "Practitioner/3f3502c1-4efd-44d1-a89e-f130c83b58c3",
          "display": "Dr. Hel Ping"
        }
      }
    },
    {
      "fullUrl": "urn:uuid:45cf5af8-502b-4add-8910-518d1988debf",
      "resource": {
        "resourceType": "Condition",
        "id": "45cf5af8-502b-4add-8910-518d1988debf",
        "meta": {
          "profile": [
            "http://hl7.org/fhir/uv/ips/StructureDefinition/Condition-uv-ips"
          ]
        },
        "category": [
          {
            "coding": [
              {
                "code": "problem-list-item",
                "system": "http://terminology.hl7.org/CodeSystem/condition-category",
                "display": "Problem List Item"
              }
            ]
          }
        ],
        "code": {
          "coding": [
            {
              "code": "66383009",
              "system": "http://snomed.info/sct",
              "display": "Gingivitis (disorder)"
            }
          ],
          "text": "Gingivitis"
        },
        "onsetDateTime": "2024-12-01",
        "clinicalStatus": {
          "coding": [
            {
              "code": "inactive",
              "system": "http://terminology.hl7.org/CodeSystem/condition-clinical"
            }
          ]
        },
        "subject": {
          "reference": "Patient/cf777324-87d1-482d-bab0-fd553cfd97db",
          "display": "Eduarda Campos"
        },
        "asserter": {
          "reference": "Practitioner/3f3502c1-4efd-44d1-a89e-f130c83b58c3",
          "display": "Dr. Hel Ping"
        }
      }
    },
    {
      "fullUrl": "urn:uuid:6787923f-92e9-47c3-bef0-42914830d789",
      "resource": {
        "resourceType": "Condition",
        "id": "6787923f-92e9-47c3-bef0-42914830d789",
        "meta": {
          "profile": [
            "http://hl7.org/fhir/uv/ips/StructureDefinition/Condition-uv-ips"
          ]
        },
        "category": [
          {
            "coding": [
              {
                "code": "problem-list-item",
                "system": "http://terminology.hl7.org/CodeSystem/condition-category",
                "display": "Problem List Item"
              }
            ]
          }
        ],
        "code": {
          "coding": [
            {
              "code": "43878008",
              "system": "http://snomed.info/sct",
              "display": "Streptococcal sore throat (disorder)"
            }
          ],
          "text": "Streptococcal sore throat"
        },
        "onsetDateTime": "2023-03-03",
        "clinicalStatus": {
          "coding": [
            {
              "code": "inactive",
              "system": "http://terminology.hl7.org/CodeSystem/condition-clinical"
            }
          ]
        },
        "subject": {
          "reference": "Patient/cf777324-87d1-482d-bab0-fd553cfd97db",
          "display": "Eduarda Campos"
        },
        "asserter": {
          "reference": "Practitioner/3f3502c1-4efd-44d1-a89e-f130c83b58c3",
          "display": "Dr. Hel Ping"
        }
      }
    },
    {
      "fullUrl": "urn:uuid:14a072cb-ec16-4a85-9491-86975ea106f9",
      "resource": {
        "resourceType": "Condition",
        "id": "14a072cb-ec16-4a85-9491-86975ea106f9",
        "meta": {
          "profile": [
            "http://hl7.org/fhir/uv/ips/StructureDefinition/Condition-uv-ips"
          ]
        },
        "category": [
          {
            "coding": [
              {
                "code": "problem-list-item",
                "system": "http://terminology.hl7.org/CodeSystem/condition-category",
                "display": "Problem List Item"
              }
            ]
          }
        ],
        "code": {
          "coding": [
            {
              "code": "10509002",
              "system": "http://snomed.info/sct",
              "display": "Acute bronchitis (disorder)"
            }
          ],
          "text": "Acute bronchitis"
        },
        "onsetDateTime": "2020-10-16",
        "clinicalStatus": {
          "coding": [
            {
              "code": "inactive",
              "system": "http://terminology.hl7.org/CodeSystem/condition-clinical"
            }
          ]
        },
        "subject": {
          "reference": "Patient/cf777324-87d1-482d-bab0-fd553cfd97db",
          "display": "Eduarda Campos"
        },
        "asserter": {
          "reference": "Practitioner/3f3502c1-4efd-44d1-a89e-f130c83b58c3",
          "display": "Dr. Hel Ping"
        }
      }
    },
    {
      "fullUrl": "urn:uuid:4932191a-9004-423e-8a66-3ee96a8d9c7f",
      "resource": {
        "resourceType": "Condition",
        "id": "4932191a-9004-423e-8a66-3ee96a8d9c7f",
        "meta": {
          "profile": [
            "http://hl7.org/fhir/uv/ips/StructureDefinition/Condition-uv-ips"
          ]
        },
        "category": [
          {
            "coding": [
              {
                "code": "problem-list-item",
                "system": "http://terminology.hl7.org/CodeSystem/condition-category",
                "display": "Problem List Item"
              }
            ]
          }
        ],
        "code": {
          "coding": [
            {
              "code": "444814009",
              "system": "http://snomed.info/sct",
              "display": "Viral sinusitis (disorder)"
            }
          ],
          "text": "Viral sinusitis"
        },
        "onsetDateTime": "2020-03-11",
        "clinicalStatus": {
          "coding": [
            {
              "code": "inactive",
              "system": "http://terminology.hl7.org/CodeSystem/condition-clinical"
            }
          ]
        },
        "subject": {
          "reference": "Patient/cf777324-87d1-482d-bab0-fd553cfd97db",
          "display": "Eduarda Campos"
        },
        "asserter": {
          "reference": "Practitioner/3f3502c1-4efd-44d1-a89e-f130c83b58c3",
          "display": "Dr. Hel Ping"
        }
      }
    },
    {
      "fullUrl": "urn:uuid:e4d3dc0f-7cb0-4cca-b628-6028a0f7aec8",
      "resource": {
        "resourceType": "Condition",
        "id": "e4d3dc0f-7cb0-4cca-b628-6028a0f7aec8",
        "meta": {
          "profile": [
            "http://hl7.org/fhir/uv/ips/StructureDefinition/Condition-uv-ips"
          ]
        },
        "category": [
          {
            "coding": [
              {
                "code": "problem-list-item",
                "system": "http://terminology.hl7.org/CodeSystem/condition-category",
                "display": "Problem List Item"
              }
            ]
          }
        ],
        "code": {
          "coding": [
            {
              "code": "10509002",
              "system": "http://snomed.info/sct",
              "display": "Acute bronchitis (disorder)"
            }
          ],
          "text": "Acute bronchitis"
        },
        "onsetDateTime": "2015-05-31",
        "clinicalStatus": {
          "coding": [
            {
              "code": "inactive",
              "system": "http://terminology.hl7.org/CodeSystem/condition-clinical"
            }
          ]
        },
        "subject": {
          "reference": "Patient/cf777324-87d1-482d-bab0-fd553cfd97db",
          "display": "Eduarda Campos"
        },
        "asserter": {
          "reference": "Practitioner/3f3502c1-4efd-44d1-a89e-f130c83b58c3",
          "display": "Dr. Hel Ping"
        }
      }
    },
    {
      "fullUrl": "urn:uuid:d5e35558-fd0a-4665-857b-c2f5de7ff162",
      "resource": {
        "resourceType": "Condition",
        "id": "d5e35558-fd0a-4665-857b-c2f5de7ff162",
        "meta": {
          "profile": [
            "http://hl7.org/fhir/uv/ips/StructureDefinition/Condition-uv-ips"
          ]
        },
        "category": [
          {
            "coding": [
              {
                "code": "problem-list-item",
                "system": "http://terminology.hl7.org/CodeSystem/condition-category",
                "display": "Problem List Item"
              }
            ]
          }
        ],
        "code": {
          "coding": [
            {
              "code": "195662009",
              "system": "http://snomed.info/sct",
              "display": "Acute viral pharyngitis (disorder)"
            }
          ],
          "text": "Acute viral pharyngitis"
        },
        "onsetDateTime": "2015-05-02",
        "clinicalStatus": {
          "coding": [
            {
              "code": "inactive",
              "system": "http://terminology.hl7.org/CodeSystem/condition-clinical"
            }
          ]
        },
        "subject": {
          "reference": "Patient/cf777324-87d1-482d-bab0-fd553cfd97db",
          "display": "Eduarda Campos"
        },
        "asserter": {
          "reference": "Practitioner/3f3502c1-4efd-44d1-a89e-f130c83b58c3",
          "display": "Dr. Hel Ping"
        }
      }
    },
    {
      "fullUrl": "urn:uuid:350887be-3418-4c9b-86c4-484f99d9c1f6",
      "resource": {
        "resourceType": "Medication",
        "id": "350887be-3418-4c9b-86c4-484f99d9c1f6",
        "meta": {
          "profile": [
            "http://hl7.org/fhir/uv/ips/StructureDefinition/Medication-uv-ips"
          ]
        },
        "code": {
          "coding": [
            {
              "code": "314231",
              "system": "http://www.nlm.nih.gov/research/umls/rxnorm",
              "display": "simvastatin 10 MG Oral Tablet"
            },
            {
              "code": "319996000",
              "system": "http://snomed.info/sct",
              "display": "Product containing precisely simvastatin 10 milligram/1 each conventional release oral tablet (clinical drug)"
            }
          ],
          "text": "Simvastatin 10 mg oral tablet"
        },
        "form": {
          "coding": [
            {
              "code": "421026006",
              "system": "http://snomed.info/sct",
              "display": "Oral tablet"
            }
          ]
        },
        "ingredient": [
          {
            "itemCodeableConcept": {
              "coding": [
                {
                  "code": "387584000",
                  "system": "http://snomed.info/sct",
                  "display": "Simvastatin"
                }
              ]
            },
            "isActive": true
          }
        ]
      }
    },
    {
      "fullUrl": "urn:uuid:e0012e2a-cdf7-4c83-94bc-6803328ed852",
      "resource": {
        "resourceType": "MedicationStatement",
        "id": "e0012e2a-cdf7-4c83-94bc-6803328ed852",
        "meta": {
          "profile": [
            "http://hl7.org/fhir/uv/ips/StructureDefinition/MedicationStatement-uv-ips"
          ]
        },
        "effectivePeriod": {
          "start": "2025-01-12"
        },
        "dosage": [
          {
            "doseAndRate": [
              {
                "doseQuantity": {
                  "value": 1,
                  "unit": "{tbl}",
                  "code": "{tbl}"
                }
              }
            ],
            "timing": {
              "repeat": {
                "frequency": 1,
                "period": 1,
                "periodUnit": "d"
              }
            },
            "text": "1 tablet (10 mg) by mouth once daily",
            "asNeededBoolean": false
          }
        ],
        "reasonCode": [
          {
            "coding": [
              {
                "code": "55822004",
                "system": "http://snomed.info/sct",
                "display": "Hyperlipidemia (disorder)"
              }
            ]
          }
        ],
        "status": "active",
        "medicationReference": {
          "reference": "Medication/350887be-3418-4c9b-86c4-484f99d9c1f6",
          "display": "Simvastatin 10 mg oral tablet"
        },
        "subject": {
          "reference": "Patient/cf777324-87d1-482d-bab0-fd553cfd97db",
          "display": "Eduarda Campos"
        }
      }
    },
    {
      "fullUrl": "urn:uuid:ee7f6983-d40e-4fdd-837c-51885e669b32",
      "resource": {
        "resourceType": "Medication",
        "id": "ee7f6983-d40e-4fdd-837c-51885e669b32",
        "meta": {
          "profile": [
            "http://hl7.org/fhir/uv/ips/StructureDefinition/Medication-uv-ips"
          ]
        },
        "code": {
          "coding": [
            {
              "code": "309362",
              "system": "http://www.nlm.nih.gov/research/umls/rxnorm",
              "display": "clopidogrel 75 MG Oral Tablet"
            },
            {
              "code": "783586007",
              "system": "http://snomed.info/sct",
              "display": "Product containing precisely clopidogrel (as clopidogrel bisulfate) 75 milligram/1 each conventional release oral tablet (clinical drug)"
            }
          ],
          "text": "Clopidogrel (as clopidogrel bisulfate) 75 mg oral tablet"
        },
        "form": {
          "coding": [
            {
              "code": "421026006",
              "system": "http://snomed.info/sct",
              "display": "Oral tablet"
            }
          ]
        },
        "ingredient": [
          {
            "itemCodeableConcept": {
              "coding": [
                {
                  "code": "412354008",
                  "system": "http://snomed.info/sct",
                  "display": "Clopidogrel bisulfate"
                }
              ]
            },
            "isActive": true
          }
        ]
      }
    },
    {
      "fullUrl": "urn:uuid:c25a75a0-19cf-42db-9b77-f31107628e1c",
      "resource": {
        "resourceType": "MedicationStatement",
        "id": "c25a75a0-19cf-42db-9b77-f31107628e1c",
        "meta": {
          "profile": [
            "http://hl7.org/fhir/uv/ips/StructureDefinition/MedicationStatement-uv-ips"
          ]
        },
        "effectivePeriod": {
          "start": "2024-12-08"
        },
        "dosage": [
          {
            "doseAndRate": [
              {
                "doseQuantity": {
                  "value": 1,
                  "unit": "{tbl}",
                  "code": "{tbl}"
                }
              }
            ],
            "timing": {
              "repeat": {
                "frequency": 1,
                "period": 1,
                "periodUnit": "d"
              }
            },
            "text": "1 tablet (75 mg) once daily",
            "asNeededBoolean": false
          }
        ],
        "status": "active",
        "medicationReference": {
          "reference": "Medication/ee7f6983-d40e-4fdd-837c-51885e669b32",
          "display": "Clopidogrel (as clopidogrel bisulfate) 75 mg oral tablet"
        },
        "subject": {
          "reference": "Patient/cf777324-87d1-482d-bab0-fd553cfd97db",
          "display": "Eduarda Campos"
        }
      }
    },
    {
      "fullUrl": "urn:uuid:5b58d8bf-6d95-4727-98ff-6dd32b9f6a51",
      "resource": {
        "resourceType": "Medication",
        "id": "5b58d8bf-6d95-4727-98ff-6dd32b9f6a51",
        "meta": {
          "profile": [
            "http://hl7.org/fhir/uv/ips/StructureDefinition/Medication-uv-ips"
          ]
        },
        "code": {
          "coding": [
            {
              "code": "312961",
              "system": "http://www.nlm.nih.gov/research/umls/rxnorm",
              "display": "simvastatin 20 MG Oral Tablet"
            },
            {
              "code": "319997009",
              "system": "http://snomed.info/sct",
              "display": "Product containing precisely simvastatin 20 milligram/1 each conventional release oral tablet (clinical drug)"
            }
          ],
          "text": "Simvastatin 20 mg oral tablet"
        },
        "form": {
          "coding": [
            {
              "code": "421026006",
              "system": "http://snomed.info/sct",
              "display": "Oral tablet"
            }
          ]
        },
        "ingredient": [
          {
            "itemCodeableConcept": {
              "coding": [
                {
                  "code": "387584000",
                  "system": "http://snomed.info/sct",
                  "display": "Simvastatin"
                }
              ]
            },
            "isActive": true
          }
        ]
      }
    },
    {
      "fullUrl": "urn:uuid:4042b539-bd43-4885-abb6-c4218a71d2f3",
      "resource": {
        "resourceType": "MedicationStatement",
        "id": "4042b539-bd43-4885-abb6-c4218a71d2f3",
        "meta": {
          "profile": [
            "http://hl7.org/fhir/uv/ips/StructureDefinition/MedicationStatement-uv-ips"
          ]
        },
        "effectivePeriod": {
          "start": "2024-12-08"
        },
        "dosage": [
          {
            "doseAndRate": [
              {
                "doseQuantity": {
                  "value": 1,
                  "unit": "{tbl}",
                  "code": "{tbl}"
                }
              }
            ],
            "timing": {
              "repeat": {
                "frequency": 1,
                "period": 1,
                "periodUnit": "d"
              }
            },
            "text": "1 tablet (20 mg) by mouth once daily",
            "asNeededBoolean": false
          }
        ],
        "status": "active",
        "medicationReference": {
          "reference": "Medication/5b58d8bf-6d95-4727-98ff-6dd32b9f6a51",
          "display": "Simvastatin 20 mg oral tablet"
        },
        "subject": {
          "reference": "Patient/cf777324-87d1-482d-bab0-fd553cfd97db",
          "display": "Eduarda Campos"
        }
      }
    },
    {
      "fullUrl": "urn:uuid:c1938869-a4fd-4741-9262-39d00f79e9e1",
      "resource": {
        "resourceType": "Medication",
        "id": "c1938869-a4fd-4741-9262-39d00f79e9e1",
        "meta": {
          "profile": [
            "http://hl7.org/fhir/uv/ips/StructureDefinition/Medication-uv-ips"
          ]
        },
        "code": {
          "coding": [
            {
              "code": "705129",
              "system": "http://www.nlm.nih.gov/research/umls/rxnorm",
              "display": "nitroglycerin 0.4 MG/ACTUAT Mucosal Spray"
            },
            {
              "code": "425176000",
              "system": "http://snomed.info/sct",
              "display": "Product containing precisely glyceryl trinitrate 400 microgram/1 actuation conventional release sublingual spray (clinical drug)"
            }
          ],
          "text": "Nitroglycerin 400 microgram/actuation sublingual spray"
        },
        "form": {
          "coding": [
            {
              "code": "385074009",
              "system": "http://snomed.info/sct",
              "display": "Sublingual spray"
            }
          ]
        },
        "ingredient": [
          {
            "itemCodeableConcept": {
              "coding": [
                {
                  "code": "387404004",
                  "system": "http://snomed.info/sct",
                  "display": "Glyceryl trinitrate"
                }
              ]
            },
            "isActive": true
          }
        ]
      }
    },
    {
      "fullUrl": "urn:uuid:f55531d0-cd53-4c0c-aadc-661bbef6fb42",
      "resource": {
        "resourceType": "MedicationStatement",
        "id": "f55531d0-cd53-4c0c-aadc-661bbef6fb42",
        "meta": {
          "profile": [
            "http://hl7.org/fhir/uv/ips/StructureDefinition/MedicationStatement-uv-ips"
          ]
        },
        "effectivePeriod": {
          "start": "2024-12-08"
        },
        "dosage": [
          {
            "doseAndRate": [
              {
                "doseQuantity": {
                  "value": 400,
                  "unit": "microgram",
                  "code": "ug"
                }
              }
            ],
            "timing": {
              "repeat": {
                "frequency": 1,
                "period": 5,
                "periodUnit": "min"
              }
            },
            "text": "400 micrograms per spray, use 1 spray under the tongue as needed for chest pain, may repeat every 5 minutes as needed, up to 3 sprays in 15 minutes",
            "asNeededBoolean": true
          }
        ],
        "status": "active",
        "medicationReference": {
          "reference": "Medication/c1938869-a4fd-4741-9262-39d00f79e9e1",
          "display": "Nitroglycerin 400 microgram/actuation sublingual spray"
        },
        "subject": {
          "reference": "Patient/cf777324-87d1-482d-bab0-fd553cfd97db",
          "display": "Eduarda Campos"
        }
      }
    },
    {
      "fullUrl": "urn:uuid:85937184-bb11-43ae-ab41-a0b6aae70fcc",
      "resource": {
        "resourceType": "Medication",
        "id": "85937184-bb11-43ae-ab41-a0b6aae70fcc",
        "meta": {
          "profile": [
            "http://hl7.org/fhir/uv/ips/StructureDefinition/Medication-uv-ips"
          ]
        },
        "code": {
          "coding": [
            {
              "code": "866412",
              "system": "http://www.nlm.nih.gov/research/umls/rxnorm",
              "display": "24 HR metoprolol succinate 100 MG Extended Release Oral Tablet"
            },
            {
              "code": "879980009",
              "system": "http://snomed.info/sct",
              "display": "Product containing precisely metoprolol tartrate (as metoprolol succinate) 100 milligram/1 each prolonged-release oral tablet (clinical drug)"
            }
          ],
          "text": "Metoprolol tartrate (as metoprolol succinate) 100 mg prolonged-release oral tablet"
        },
        "form": {
          "coding": [
            {
              "code": "385060002",
              "system": "http://snomed.info/sct",
              "display": "Prolonged-release oral tablet"
            }
          ]
        },
        "ingredient": [
          {
            "itemCodeableConcept": {
              "coding": [
                {
                  "code": "412432007",
                  "system": "http://snomed.info/sct",
                  "display": "Metoprolol succinate"
                }
              ]
            },
            "isActive": true
          }
        ]
      }
    },
    {
      "fullUrl": "urn:uuid:6b1f058f-e55b-4299-8548-220d98d6adef",
      "resource": {
        "resourceType": "MedicationStatement",
        "id": "6b1f058f-e55b-4299-8548-220d98d6adef",
        "meta": {
          "profile": [
            "http://hl7.org/fhir/uv/ips/StructureDefinition/MedicationStatement-uv-ips"
          ]
        },
        "effectivePeriod": {
          "start": "2024-12-08"
        },
        "dosage": [
          {
            "doseAndRate": [
              {
                "doseQuantity": {
                  "value": 1,
                  "unit": "{tbl}",
                  "code": "{tbl}"
                }
              }
            ],
            "timing": {
              "repeat": {
                "frequency": 1,
                "period": 1,
                "periodUnit": "d"
              }
            },
            "text": "1 tablet (100 mg) once daily",
            "asNeededBoolean": false
          }
        ],
        "status": "active",
        "medicationReference": {
          "reference": "Medication/85937184-bb11-43ae-ab41-a0b6aae70fcc",
          "display": "Metoprolol tartrate (as metoprolol succinate) 100 mg prolonged-release oral tablet"
        },
        "subject": {
          "reference": "Patient/cf777324-87d1-482d-bab0-fd553cfd97db",
          "display": "Eduarda Campos"
        }
      }
    },
    {
      "fullUrl": "urn:uuid:efb4b285-710b-4498-bedd-af8fb36e7249",
      "resource": {
        "resourceType": "AllergyIntolerance",
        "id": "efb4b285-710b-4498-bedd-af8fb36e7249",
        "meta": {
          "profile": [
            "http://hl7.eu/fhir/eps/StructureDefinition/allergyIntolerance-eu-eps"
          ]
        },
        "code": {
          "coding": [
            {
              "code": "716186003",
              "system": "http://snomed.info/sct",
              "display": "No known allergy (situation)"
            }
          ]
        },
        "patient": {
          "reference": "Patient/cf777324-87d1-482d-bab0-fd553cfd97db",
          "display": "Eduarda Campos"
        },
        "_onsetDateTime": {
          "extension": [
            {
              "url": "http://hl7.org/fhir/StructureDefinition/data-absent-reason",
              "valueCode": "unknown"
            }
          ]
        }
      }
    },
    {
      "fullUrl": "urn:uuid:4d8c16f8-ee37-4b72-b4b3-2f38a1955a5f",
      "resource": {
        "resourceType": "Procedure",
        "id": "4d8c16f8-ee37-4b72-b4b3-2f38a1955a5f",
        "meta": {
          "profile": [
            "http://hl7.org/fhir/uv/ips/StructureDefinition/Procedure-uv-ips"
          ]
        },
        "code": {
          "coding": [
            {
              "code": "243063003",
              "system": "http://snomed.info/sct",
              "display": "Postoperative procedure education (procedure)"
            }
          ],
          "text": "Postoperative procedure education"
        },
        "reasonCode": [
          {
            "coding": [
              {
                "code": "399261000",
                "system": "http://snomed.info/sct",
                "display": "History of coronary artery bypass grafting (situation)"
              }
            ]
          }
        ],
        "status": "completed",
        "subject": {
          "reference": "Patient/cf777324-87d1-482d-bab0-fd553cfd97db",
          "display": "Eduarda Campos"
        },
        "performedDateTime": "2025-01-12"
      }
    },
    {
      "fullUrl": "urn:uuid:25309eb7-99b6-4d62-ae3d-7ff893c53d12",
      "resource": {
        "resourceType": "Procedure",
        "id": "25309eb7-99b6-4d62-ae3d-7ff893c53d12",
        "meta": {
          "profile": [
            "http://hl7.org/fhir/uv/ips/StructureDefinition/Procedure-uv-ips"
          ]
        },
        "code": {
          "coding": [
            {
              "code": "252482003",
              "system": "http://snomed.info/sct",
              "display": "Stair-climbing test (procedure)"
            }
          ],
          "text": "Stair-climbing test"
        },
        "reasonCode": [
          {
            "coding": [
              {
                "code": "399261000",
                "system": "http://snomed.info/sct",
                "display": "History of coronary artery bypass grafting (situation)"
              }
            ]
          }
        ],
        "status": "completed",
        "subject": {
          "reference": "Patient/cf777324-87d1-482d-bab0-fd553cfd97db",
          "display": "Eduarda Campos"
        },
        "performedDateTime": "2025-01-12"
      }
    },
    {
      "fullUrl": "urn:uuid:5634efc0-9029-4cfe-80ee-eda6c6e16644",
      "resource": {
        "resourceType": "Procedure",
        "id": "5634efc0-9029-4cfe-80ee-eda6c6e16644",
        "meta": {
          "profile": [
            "http://hl7.org/fhir/uv/ips/StructureDefinition/Procedure-uv-ips"
          ]
        },
        "code": {
          "coding": [
            {
              "code": "302761001",
              "system": "http://snomed.info/sct",
              "display": "Walking exercise test (procedure)"
            }
          ],
          "text": "Walking exercise test"
        },
        "reasonCode": [
          {
            "coding": [
              {
                "code": "399261000",
                "system": "http://snomed.info/sct",
                "display": "History of coronary artery bypass grafting (situation)"
              }
            ]
          }
        ],
        "status": "completed",
        "subject": {
          "reference": "Patient/cf777324-87d1-482d-bab0-fd553cfd97db",
          "display": "Eduarda Campos"
        },
        "performedDateTime": "2025-01-12"
      }
    },
    {
      "fullUrl": "urn:uuid:c904f2fd-d4e1-40ef-be86-01e74a43db33",
      "resource": {
        "resourceType": "Procedure",
        "id": "c904f2fd-d4e1-40ef-be86-01e74a43db33",
        "meta": {
          "profile": [
            "http://hl7.org/fhir/uv/ips/StructureDefinition/Procedure-uv-ips"
          ]
        },
        "code": {
          "coding": [
            {
              "code": "306706006",
              "system": "http://snomed.info/sct",
              "display": "Discharge to ward (procedure)"
            }
          ],
          "text": "Discharge to ward"
        },
        "status": "completed",
        "subject": {
          "reference": "Patient/cf777324-87d1-482d-bab0-fd553cfd97db",
          "display": "Eduarda Campos"
        },
        "performedDateTime": "2025-01-12"
      }
    },
    {
      "fullUrl": "urn:uuid:8ca78d97-f8a1-4c7f-85a2-547ea6339d9c",
      "resource": {
        "resourceType": "Procedure",
        "id": "8ca78d97-f8a1-4c7f-85a2-547ea6339d9c",
        "meta": {
          "profile": [
            "http://hl7.org/fhir/uv/ips/StructureDefinition/Procedure-uv-ips"
          ]
        },
        "code": {
          "coding": [
            {
              "code": "308283009",
              "system": "http://snomed.info/sct",
              "display": "Discharge from hospital (procedure)"
            }
          ],
          "text": "Discharge from hospital"
        },
        "reasonCode": [
          {
            "coding": [
              {
                "code": "399261000",
                "system": "http://snomed.info/sct",
                "display": "History of coronary artery bypass grafting (situation)"
              }
            ]
          }
        ],
        "status": "completed",
        "subject": {
          "reference": "Patient/cf777324-87d1-482d-bab0-fd553cfd97db",
          "display": "Eduarda Campos"
        },
        "performedDateTime": "2025-01-12"
      }
    },
    {
      "fullUrl": "urn:uuid:804b1006-34a0-4150-8a60-8ee6bb3d8074",
      "resource": {
        "resourceType": "Procedure",
        "id": "804b1006-34a0-4150-8a60-8ee6bb3d8074",
        "meta": {
          "profile": [
            "http://hl7.org/fhir/uv/ips/StructureDefinition/Procedure-uv-ips"
          ]
        },
        "code": {
          "coding": [
            {
              "code": "29303009",
              "system": "http://snomed.info/sct",
              "display": "Electrocardiographic procedure (procedure)"
            }
          ],
          "text": "Electrocardiographic procedure"
        },
        "status": "completed",
        "subject": {
          "reference": "Patient/cf777324-87d1-482d-bab0-fd553cfd97db",
          "display": "Eduarda Campos"
        },
        "performedDateTime": "2025-01-11"
      }
    },
    {
      "fullUrl": "urn:uuid:3b8e7c82-7697-4cec-a902-7d5bdf48826c",
      "resource": {
        "resourceType": "Procedure",
        "id": "3b8e7c82-7697-4cec-a902-7d5bdf48826c",
        "meta": {
          "profile": [
            "http://hl7.org/fhir/uv/ips/StructureDefinition/Procedure-uv-ips"
          ]
        },
        "code": {
          "coding": [
            {
              "code": "399208008",
              "system": "http://snomed.info/sct",
              "display": "Plain X-ray of chest (procedure)"
            }
          ],
          "text": "Plain X-ray of chest"
        },
        "status": "completed",
        "subject": {
          "reference": "Patient/cf777324-87d1-482d-bab0-fd553cfd97db",
          "display": "Eduarda Campos"
        },
        "performedDateTime": "2025-01-11"
      }
    },
    {
      "fullUrl": "urn:uuid:188b9fd2-2a17-4074-bff2-97682f09e995",
      "resource": {
        "resourceType": "Procedure",
        "id": "188b9fd2-2a17-4074-bff2-97682f09e995",
        "meta": {
          "profile": [
            "http://hl7.org/fhir/uv/ips/StructureDefinition/Procedure-uv-ips"
          ]
        },
        "code": {
          "coding": [
            {
              "code": "71493000",
              "system": "http://snomed.info/sct",
              "display": "Transfusion of packed red blood cells (procedure)"
            }
          ],
          "text": "Transfusion of packed red blood cells"
        },
        "status": "completed",
        "subject": {
          "reference": "Patient/cf777324-87d1-482d-bab0-fd553cfd97db",
          "display": "Eduarda Campos"
        },
        "performedDateTime": "2025-01-10"
      }
    },
    {
      "fullUrl": "urn:uuid:3a89ab27-eed9-414e-95b4-32e990e135da",
      "resource": {
        "resourceType": "Procedure",
        "id": "3a89ab27-eed9-414e-95b4-32e990e135da",
        "meta": {
          "profile": [
            "http://hl7.org/fhir/uv/ips/StructureDefinition/Procedure-uv-ips"
          ]
        },
        "code": {
          "coding": [
            {
              "code": "271280005",
              "system": "http://snomed.info/sct",
              "display": "Removal of endotracheal tube (procedure)"
            }
          ],
          "text": "Removal of endotracheal tube"
        },
        "status": "completed",
        "subject": {
          "reference": "Patient/cf777324-87d1-482d-bab0-fd553cfd97db",
          "display": "Eduarda Campos"
        },
        "performedDateTime": "2025-01-09"
      }
    },
    {
      "fullUrl": "urn:uuid:eedb694b-5351-4fef-bfef-895cbbb3d99b",
      "resource": {
        "resourceType": "Procedure",
        "id": "eedb694b-5351-4fef-bfef-895cbbb3d99b",
        "meta": {
          "profile": [
            "http://hl7.org/fhir/uv/ips/StructureDefinition/Procedure-uv-ips"
          ]
        },
        "code": {
          "coding": [
            {
              "code": "430701006",
              "system": "http://snomed.info/sct",
              "display": "Resuscitation using intravenous fluid (procedure)"
            }
          ],
          "text": "Resuscitation using intravenous fluid"
        },
        "reasonCode": [
          {
            "coding": [
              {
                "code": "91302008",
                "system": "http://snomed.info/sct",
                "display": "Sepsis (disorder)"
              }
            ]
          }
        ],
        "status": "completed",
        "subject": {
          "reference": "Patient/cf777324-87d1-482d-bab0-fd553cfd97db",
          "display": "Eduarda Campos"
        },
        "performedDateTime": "2016-01-28"
      }
    },
    {
      "fullUrl": "urn:uuid:5fcbb066-df81-49b6-b779-c32af644fce3",
      "resource": {
        "resourceType": "Procedure",
        "id": "5fcbb066-df81-49b6-b779-c32af644fce3",
        "meta": {
          "profile": [
            "http://hl7.org/fhir/uv/ips/StructureDefinition/Procedure-uv-ips"
          ]
        },
        "code": {
          "coding": [
            {
              "code": "449214001",
              "system": "http://snomed.info/sct",
              "display": "Transfer to stepdown unit (procedure)"
            }
          ],
          "text": "Transfer to stepdown unit"
        },
        "reasonCode": [
          {
            "coding": [
              {
                "code": "91302008",
                "system": "http://snomed.info/sct",
                "display": "Sepsis (disorder)"
              }
            ]
          }
        ],
        "status": "completed",
        "subject": {
          "reference": "Patient/cf777324-87d1-482d-bab0-fd553cfd97db",
          "display": "Eduarda Campos"
        },
        "performedDateTime": "2016-01-28"
      }
    },
    {
      "fullUrl": "urn:uuid:a2bb5b36-c0dd-45ca-9441-4333a0c3e5c8",
      "resource": {
        "resourceType": "Immunization",
        "id": "a2bb5b36-c0dd-45ca-9441-4333a0c3e5c8",
        "meta": {
          "profile": [
            "http://hl7.org/fhir/uv/ips/StructureDefinition/Immunization-uv-ips"
          ]
        },
        "vaccineCode": {
          "coding": [
            {
              "code": "1181000221105",
              "system": "http://snomed.info/sct",
              "display": "Vaccine product containing Influenza virus antigen"
            },
            {
              "code": "J07BB02",
              "system": "http://www.whocc.no/atc",
              "display": "Influenza, inactivated, split virus"
            },
            {
              "code": "140",
              "system": "http://hl7.org/fhir/sid/cvx",
              "display": "Influenza  seasonal  injectable  preservative free"
            }
          ],
          "text": "Influenza virus antigen only vaccine product"
        },
        "site": {
          "coding": [
            {
              "code": "73776007",
              "system": "http://snomed.info/sct",
              "display": "Structure of muscle of upper arm"
            }
          ],
          "text": "Structure of muscle of upper arm"
        },
        "route": {
          "coding": [
            {
              "code": "78421000",
              "system": "http://snomed.info/sct",
              "display": "Intramuscular route"
            }
          ],
          "text": "Intramuscular route"
        },
        "status": "completed",
        "patient": {
          "reference": "Patient/cf777324-87d1-482d-bab0-fd553cfd97db",
          "display": "Eduarda Campos"
        },
        "occurrenceDateTime": "2024-12-01",
        "lotNumber": "GE-R40kOrM",
        "expirationDate": "2025-03-01"
      }
    },
    {
      "fullUrl": "urn:uuid:0905d258-9b7c-43d5-914b-632663e0d2c1",
      "resource": {
        "resourceType": "Immunization",
        "id": "0905d258-9b7c-43d5-914b-632663e0d2c1",
        "meta": {
          "profile": [
            "http://hl7.org/fhir/uv/ips/StructureDefinition/Immunization-uv-ips"
          ]
        },
        "vaccineCode": {
          "coding": [
            {
              "code": "777725002",
              "system": "http://snomed.info/sct",
              "display": "Vaccine product containing only Clostridium tetani toxoid antigen adsorbed"
            },
            {
              "code": "J07AM51",
              "system": "http://www.whocc.no/atc",
              "display": "Diphtheria-tetanus vaccines, adult type"
            },
            {
              "code": "113",
              "system": "http://hl7.org/fhir/sid/cvx",
              "display": "Td (adult)  5 Lf tetanus toxoid  preservative free  adsorbed"
            }
          ],
          "text": "Clostridium tetani toxoid antigen adsorbed only vaccine product"
        },
        "site": {
          "coding": [
            {
              "code": "73776007",
              "system": "http://snomed.info/sct",
              "display": "Structure of muscle of upper arm"
            }
          ],
          "text": "Structure of muscle of upper arm"
        },
        "route": {
          "coding": [
            {
              "code": "78421000",
              "system": "http://snomed.info/sct",
              "display": "Intramuscular route"
            }
          ],
          "text": "Intramuscular route"
        },
        "status": "completed",
        "patient": {
          "reference": "Patient/cf777324-87d1-482d-bab0-fd553cfd97db",
          "display": "Eduarda Campos"
        },
        "occurrenceDateTime": "2023-11-26",
        "lotNumber": "NM-SsaXnhmRE",
        "expirationDate": "2024-01-05"
      }
    },
    {
      "fullUrl": "urn:uuid:0f62b517-1b9b-4699-8542-18275a384e91",
      "resource": {
        "resourceType": "Immunization",
        "id": "0f62b517-1b9b-4699-8542-18275a384e91",
        "meta": {
          "profile": [
            "http://hl7.org/fhir/uv/ips/StructureDefinition/Immunization-uv-ips"
          ]
        },
        "vaccineCode": {
          "coding": [
            {
              "code": "2221000221107",
              "system": "http://snomed.info/sct",
              "display": "Live attenuated Varicella-zoster vaccine"
            },
            {
              "code": "J07BK02",
              "system": "http://www.whocc.no/atc",
              "display": "Varicella-zoster vaccines"
            },
            {
              "code": "121",
              "system": "http://hl7.org/fhir/sid/cvx",
              "display": "zoster vaccine  live"
            }
          ],
          "text": "Live attenuated Human alphaherpesvirus 3 only vaccine product"
        },
        "site": {
          "coding": [
            {
              "code": "368208006",
              "system": "http://snomed.info/sct",
              "display": "Structure of skin of upper arm"
            }
          ],
          "text": "Structure of skin of upper arm"
        },
        "route": {
          "coding": [
            {
              "code": "34206005",
              "system": "http://snomed.info/sct",
              "display": "Subcutaneous route"
            }
          ],
          "text": "Subcutaneous route"
        },
        "status": "completed",
        "patient": {
          "reference": "Patient/cf777324-87d1-482d-bab0-fd553cfd97db",
          "display": "Eduarda Campos"
        },
        "occurrenceDateTime": "2023-11-26",
        "lotNumber": "WP-08SOD",
        "expirationDate": "2024-01-24"
      }
    },
    {
      "fullUrl": "urn:uuid:8a9be177-2c09-4f1d-a3b5-cb33fb130a46",
      "resource": {
        "resourceType": "Immunization",
        "id": "8a9be177-2c09-4f1d-a3b5-cb33fb130a46",
        "meta": {
          "profile": [
            "http://hl7.org/fhir/uv/ips/StructureDefinition/Immunization-uv-ips"
          ]
        },
        "vaccineCode": {
          "coding": [
            {
              "code": "1119349007",
              "system": "http://snomed.info/sct",
              "display": "Vaccine product containing SARS-CoV-2 mRNA"
            },
            {
              "code": "J07BX03",
              "system": "http://www.whocc.no/atc",
              "display": "COVID-19 mRNA vaccines"
            },
            {
              "code": "207",
              "system": "http://hl7.org/fhir/sid/cvx",
              "display": "COVID-19  mRNA  LNP-S  PF  100 mcg/0.5mL dose or 50 mcg/0.25mL dose"
            }
          ],
          "text": "SARS-CoV-2 mRNA vaccine"
        },
        "site": {
          "coding": [
            {
              "code": "73776007",
              "system": "http://snomed.info/sct",
              "display": "Structure of muscle of upper arm"
            }
          ],
          "text": "Structure of muscle of upper arm"
        },
        "route": {
          "coding": [
            {
              "code": "78421000",
              "system": "http://snomed.info/sct",
              "display": "Intramuscular route"
            }
          ],
          "text": "Intramuscular route"
        },
        "status": "completed",
        "patient": {
          "reference": "Patient/cf777324-87d1-482d-bab0-fd553cfd97db",
          "display": "Eduarda Campos"
        },
        "occurrenceDateTime": "2021-08-15",
        "lotNumber": "SR-X40Fxx",
        "expirationDate": "2022-06-13"
      }
    }
  ],
  "type": "document",
  "timestamp": "2025-06-17T11:26:49Z"
}
