{
  "resourceType": "Bundle",
  "id": "Instance-Bundle-3507957f-b74a-4e84-870e-cec8504b5863",
  "meta": {
    "profile": [
      "http://hl7.eu/fhir/eps/StructureDefinition/bundle-eu-eps"
    ]
  },
  "identifier": {
    "assigner": {
      "display": "HL7 Europe"
    },
    "system": "urn:oid:2.16.840.1.113883.2.51.999",
    "value": "9a092d28-ffb0-4f28-b4cd-b260d553ed46"
  },
  "entry": [
    {
      "fullUrl": "urn:uuid:043133ed-ddb1-4f57-be95-0b14f1382579",
      "resource": {
        "resourceType": "Composition",
        "id": "043133ed-ddb1-4f57-be95-0b14f1382579",
        "meta": {
          "profile": [
            "http://hl7.eu/fhir/eps/StructureDefinition/composition-eu-eps"
          ]
        },
        "identifier": {
          "assigner": {
            "display": "HL7 Europe"
          },
          "system": "urn:oid:2.16.840.1.113883.2.51.999",
          "value": "73629963-fe7e-4ccf-aa9a-5de41027c892"
        },
        "type": {
          "coding": [
            {
              "system": "http://loinc.org",
              "code": "60591-5",
              "display": "European Patient Summary"
            }
          ],
          "text": "European Patient Summary"
        },
        "author": [
          {
            "reference": "urn:uuid:fd5a8a54-2ffe-49e7-8ac8-d6f7a62a3d22"
          }
        ],
        "section": [
          {
            "text": {
              "status": "generated",
              "div": "<div xmlns=\"http://www.w3.org/1999/xhtml\"><table class=\"hl7__ips\"><tr><td>Hyperlipidemia</td><td>2019-09-09</td><td>active</td></tr><tr><td>Ischemic heart disease</td><td>2014-08-11</td><td>active</td></tr><tr><td>Osteoporosis</td><td>2008-07-07</td><td>active</td></tr><tr><td>Recurrent urinary tract infection</td><td>1968-05-17</td><td>active</td></tr><tr><td>Primary dental caries</td><td>2024-10-21</td><td>inactive</td></tr><tr><td>Gingivitis</td><td>2024-10-07</td><td>inactive</td></tr><tr><td>Viral sinusitis</td><td>2024-02-28</td><td>inactive</td></tr><tr><td>Polyp of colon</td><td>2023-06-05</td><td>inactive</td></tr><tr><td>Fracture of ankle</td><td>2022-12-06</td><td>inactive</td></tr><tr><td>Fracture of bone</td><td>2022-12-06</td><td>inactive</td></tr><tr><td>Osteoporotic fracture</td><td>2022-12-06</td><td>inactive</td></tr><tr><td>Gingivitis</td><td>2021-09-20</td><td>inactive</td></tr><tr><td>Epidermal burn of skin</td><td>2020-10-05</td><td>inactive</td></tr><tr><td>Gingival disease</td><td>2020-09-28</td><td>inactive</td></tr><tr><td>Gingivitis</td><td>2020-09-14</td><td>inactive</td></tr><tr><td>Fracture of bone</td><td>2019-05-22</td><td>inactive</td></tr><tr><td>Closed fracture of hip</td><td>2019-05-22</td><td>inactive</td></tr><tr><td>Osteoporotic fracture</td><td>2019-05-22</td><td>inactive</td></tr><tr><td>Primary dental caries</td><td>2017-09-11</td><td>inactive</td></tr></table></div>"
            },
            "entry": [
              {
                "reference": "urn:uuid:575bb67f-1731-4dc3-a6d1-cbf1fd3344ef"
              },
              {
                "reference": "urn:uuid:f02f4af1-f619-4e45-a3f1-2e264bd75115"
              },
              {
                "reference": "urn:uuid:96df40cb-d5d4-409d-b8ee-865f2cf02fef"
              },
              {
                "reference": "urn:uuid:33597425-5327-4222-b74e-55bd7dd2ab2e"
              },
              {
                "reference": "urn:uuid:34fb369d-8c09-43c0-a08c-f7bc6b96dd7f"
              },
              {
                "reference": "urn:uuid:55700e3d-6d3b-4d95-8e28-ba12240f1c62"
              },
              {
                "reference": "urn:uuid:ec29fb58-2711-4726-8076-b0f12db8bece"
              },
              {
                "reference": "urn:uuid:b517866c-a073-479d-8da2-977865d62ab6"
              },
              {
                "reference": "urn:uuid:03708f2b-26fa-4445-8ae8-8d10eea76002"
              },
              {
                "reference": "urn:uuid:42b93b25-1d2e-4363-b5af-97e4cfc71899"
              },
              {
                "reference": "urn:uuid:62837e75-c88f-478f-b976-b2f1f72ce8a0"
              },
              {
                "reference": "urn:uuid:932a2bc5-e004-49b2-a7ae-c196c4646e67"
              },
              {
                "reference": "urn:uuid:e552c2d3-9558-450c-bd36-913984014750"
              },
              {
                "reference": "urn:uuid:f60f781b-bb71-4487-acee-efa88d06befa"
              },
              {
                "reference": "urn:uuid:7b735f06-d012-4607-b9b5-165f77a26ed5"
              },
              {
                "reference": "urn:uuid:00607867-a83b-4f53-afcf-f2971249f8d8"
              },
              {
                "reference": "urn:uuid:c311abfd-baa8-4c93-84a4-300c78771453"
              },
              {
                "reference": "urn:uuid:231cfd42-2856-45f0-bdaa-e891e3b00212"
              },
              {
                "reference": "urn:uuid:3b531148-4208-4f0b-bbe1-0dd06d33efdd"
              }
            ],
            "code": {
              "coding": [
                {
                  "system": "http://loinc.org",
                  "code": "11450-4",
                  "display": "Problem list - Reported"
                }
              ]
            },
            "title": "Problem list"
          },
          {
            "text": {
              "status": "generated",
              "div": "<div xmlns=\"http://www.w3.org/1999/xhtml\"><table class=\"hl7__ips\"><tr><td>Simvastatin 10 mg oral tablet</td><td>2024-10-28</td><td>Oral tablet</td><td>1 tablet (10 mg) by mouth once daily\"</td><td>Reason: Hyperlipidemia (disorder)</td></tr><tr><td>Alendronic acid (as alendronate sodium) 10 mg oral tablet</td><td>2024-10-07</td><td>Oral tablet</td><td>1 tablet (10 mg) once daily\"</td><td>Reason: Osteoporosis (disorder)</td></tr><tr><td>Clopidogrel (as clopidogrel bisulfate) 75 mg oral tablet</td><td>2014-08-18</td><td>Oral tablet</td><td>1 tablet (75 mg) by mouth once daily\"</td><td></td></tr><tr><td>Simvastatin 20 mg oral tablet</td><td>2014-08-18</td><td>Oral tablet</td><td>1 tablet (20 mg) by mouth once daily\"</td><td></td></tr><tr><td>Nitroglycerin 400 microgram/actuation sublingual spray</td><td>2014-08-18</td><td>Sublingual spray</td><td>400 micrograms (1 spray) sublingually as needed for chest pain, may repeat every 5 minutes as needed, up to 3 sprays in 15 minutes\"</td><td></td></tr><tr><td>Metoprolol tartrate (as metoprolol succinate) 100 mg prolonged-release oral tablet</td><td>2014-08-18</td><td>Prolonged-release oral tablet</td><td>1 tablet (100 mg) once daily\"</td><td></td></tr></table></div>"
            },
            "entry": [
              {
                "reference": "urn:uuid:c3eaa79c-c6b5-4dd9-aa45-d59b074406cc"
              },
              {
                "reference": "urn:uuid:d1db07e2-003b-4daf-874a-20dbea86dd84"
              },
              {
                "reference": "urn:uuid:0978c446-8882-49c1-bf48-a3d4f5d46f47"
              },
              {
                "reference": "urn:uuid:159abb82-e200-4ecf-9b12-b506f050b1f8"
              },
              {
                "reference": "urn:uuid:e6c64bce-421a-452c-9419-00741cf17839"
              },
              {
                "reference": "urn:uuid:1b4e9107-5cf3-461e-8bd5-4d2982cfc1da"
              }
            ],
            "code": {
              "coding": [
                {
                  "system": "http://loinc.org",
                  "code": "10160-0",
                  "display": "History of Medication use Narrative"
                }
              ]
            },
            "title": "Medication list"
          },
          {
            "text": {
              "status": "generated",
              "div": "<div xmlns=\"http://www.w3.org/1999/xhtml\"><table class=\"hl7__ips\"><tr><td>No known allergies or intolerances</td></tr></table></div>"
            },
            "entry": [
              {
                "reference": "urn:uuid:774e8555-5176-4cb8-8689-7ab7cd5ca2af"
              }
            ],
            "code": {
              "coding": [
                {
                  "system": "http://loinc.org",
                  "code": "48765-2",
                  "display": "Allergies and adverse reactions Document"
                }
              ]
            },
            "title": "Allergies and Intolerances"
          },
          {
            "text": {
              "status": "generated",
              "div": "<div xmlns=\"http://www.w3.org/1999/xhtml\"><table class=\"hl7__ips\"><tr><td>Pre-discharge assessment</td><td>2023-05-26</td><td>-</td></tr><tr><td>Discharge from hospital</td><td>2023-05-26</td><td>-</td></tr><tr><td>Nursing care/supplementary surveillance</td><td>2023-05-25</td><td>-</td></tr><tr><td>Professional / ancillary services care</td><td>2023-05-19</td><td>-</td></tr><tr><td>History AND physical examination</td><td>2023-05-15</td><td>-</td></tr><tr><td>Physical therapy procedure</td><td>2023-05-15</td><td>-</td></tr><tr><td>Initial patient assessment</td><td>2023-05-15</td><td>-</td></tr><tr><td>Development of individualized plan of care</td><td>2023-05-15</td><td>-</td></tr><tr><td>Care regimes assessment</td><td>2022-12-17</td><td>-</td></tr><tr><td>Occupational therapy</td><td>2022-12-13</td><td>-</td></tr><tr><td>Bone immobilization</td><td>2022-12-06</td><td>Fracture of ankle (disorder)</td></tr><tr><td>Plain X-ray of ankle region</td><td>2022-12-06</td><td>-</td></tr><tr><td>Speech and language therapy regime</td><td>2020-10-12</td><td>-</td></tr><tr><td>Admission to orthopedic department</td><td>2019-05-22</td><td>Closed fracture of hip (disorder)</td></tr><tr><td>Plain X-ray of pelvis</td><td>2019-05-22</td><td>-</td></tr></table></div>"
            },
            "entry": [
              {
                "reference": "urn:uuid:f56114ff-617a-487f-82a0-c2047263f127"
              },
              {
                "reference": "urn:uuid:4d5b9e8c-8e70-4ed7-9908-e22e0f403d22"
              },
              {
                "reference": "urn:uuid:3add3121-d625-4842-b186-cec96d51a5f1"
              },
              {
                "reference": "urn:uuid:941f29f0-2975-49ce-8fe2-5e01ab2d4c78"
              },
              {
                "reference": "urn:uuid:ef967f20-af73-4dee-aa4f-8dc55502cb83"
              },
              {
                "reference": "urn:uuid:3ecfacfd-e919-4f92-8c89-0afb61967c9a"
              },
              {
                "reference": "urn:uuid:2c110cf9-409b-4ba6-ac24-f5a3a59a7a2a"
              },
              {
                "reference": "urn:uuid:7ff25ccc-b36b-410f-8af0-ee91e4429886"
              },
              {
                "reference": "urn:uuid:09e54b8a-4b3d-4d56-a093-b7c556557809"
              },
              {
                "reference": "urn:uuid:ce8c468c-e06c-4a78-a287-f2289e24a246"
              },
              {
                "reference": "urn:uuid:38b4ed6d-fa65-40cc-a4df-34d05234b080"
              },
              {
                "reference": "urn:uuid:64fd0934-5561-469b-a558-1d2493e9751d"
              },
              {
                "reference": "urn:uuid:c80bd26e-fae9-4a47-bbf7-c86fbdda7990"
              },
              {
                "reference": "urn:uuid:2ed2129a-181a-4956-98e2-7af562b6e2da"
              },
              {
                "reference": "urn:uuid:0cc2dc29-c482-4bec-8437-948d9b90984d"
              }
            ],
            "code": {
              "coding": [
                {
                  "system": "http://loinc.org",
                  "code": "47519-4",
                  "display": "History of Procedures Document"
                }
              ]
            },
            "title": "Procedure History list"
          },
          {
            "text": {
              "status": "generated",
              "div": "<div xmlns=\"http://www.w3.org/1999/xhtml\"><table class=\"hl7__ips\"><tr><td>Influenza virus antigen only vaccine product</td><td>2024-10-07</td></tr><tr><td>SARS-CoV-2 mRNA vaccine</td><td>2021-06-21</td></tr><tr><td>Clostridium tetani toxoid antigen adsorbed only vaccine product</td><td>2019-09-09</td></tr></table></div>"
            },
            "entry": [
              {
                "reference": "urn:uuid:27db799f-5f37-4f22-a2db-6a66b2f05f40"
              },
              {
                "reference": "urn:uuid:bb23bf8c-697d-4250-9ff7-2dc52c00cff0"
              },
              {
                "reference": "urn:uuid:3c9419f0-6f79-448b-b2f6-370e13223273"
              }
            ],
            "code": {
              "coding": [
                {
                  "system": "http://loinc.org",
                  "code": "11369-6",
                  "display": "History of Immunization Narrative"
                }
              ]
            },
            "title": "Immunizations list"
          }
        ],
        "title": "European Patient Summary",
        "status": "final",
        "subject": {
          "reference": "urn:uuid:bf97ca10-b158-4fcc-b185-0642248b3ea1"
        },
        "custodian": {
          "reference": "urn:uuid:8fbf680c-2c0c-4668-a92d-3682867a3444"
        },
        "date": "2025-06-16T17:28:57Z",
        "confidentiality": "N"
      }
    },
    {
      "fullUrl": "urn:uuid:bf97ca10-b158-4fcc-b185-0642248b3ea1",
      "resource": {
        "resourceType": "Patient",
        "id": "bf97ca10-b158-4fcc-b185-0642248b3ea1",
        "meta": {
          "profile": [
            "http://hl7.eu/fhir/eps/StructureDefinition/patient-eu-eps"
          ]
        },
        "identifier": [
          {
            "type": {
              "coding": [
                {
                  "code": "NI",
                  "system": "http://terminology.hl7.org/CodeSystem/v2-0203"
                }
              ]
            },
            "system": "http://ec.europa.eu/identifier/eci",
            "value": "6284-190445-1"
          },
          {
            "type": {
              "coding": [
                {
                  "code": "MR",
                  "system": "http://terminology.hl7.org/CodeSystem/v2-0203"
                }
              ]
            },
            "system": "http://local.setting.eu/identifier",
            "value": "a993bfb1-1afb-da20-199b-77ce25902baa"
          }
        ],
        "name": [
          {
            "given": [
              "Elizabeth"
            ],
            "family": "Hyam",
            "text": "Elizabeth Hyam"
          }
        ],
        "address": [
          {
            "line": [
              "74 Preston Rd"
            ],
            "use": "home",
            "type": "physical",
            "city": "Moreleigh",
            "postalCode": "TQ9 3SB",
            "country": "United Kingdom"
          }
        ],
        "telecom": [
          {
            "system": "phone",
            "value": "+44 077 8176 0759"
          }
        ],
        "gender": "female",
        "birthDate": "1942-09-01"
      }
    },
    {
      "fullUrl": "urn:uuid:fd5a8a54-2ffe-49e7-8ac8-d6f7a62a3d22",
      "resource": {
        "resourceType": "PractitionerRole",
        "id": "fd5a8a54-2ffe-49e7-8ac8-d6f7a62a3d22",
        "meta": {
          "profile": [
            "http://hl7.eu/fhir/base/StructureDefinition/practitionerRole-eu"
          ]
        },
        "practitioner": {
          "reference": "urn:uuid:49f473a5-d7fd-4eb9-94f1-122562d09c68"
        },
        "organization": {
          "reference": "urn:uuid:8fbf680c-2c0c-4668-a92d-3682867a3444"
        }
      }
    },
    {
      "fullUrl": "urn:uuid:49f473a5-d7fd-4eb9-94f1-122562d09c68",
      "resource": {
        "resourceType": "Practitioner",
        "id": "49f473a5-d7fd-4eb9-94f1-122562d09c68",
        "meta": {
          "profile": [
            "http://hl7.eu/fhir/base/StructureDefinition/practitioner-eu"
          ]
        },
        "name": [
          {
            "prefix": [
              "Dr."
            ],
            "given": [
              "Hel"
            ],
            "family": "Ping"
          }
        ]
      }
    },
    {
      "fullUrl": "urn:uuid:575bb67f-1731-4dc3-a6d1-cbf1fd3344ef",
      "resource": {
        "resourceType": "Condition",
        "id": "575bb67f-1731-4dc3-a6d1-cbf1fd3344ef",
        "meta": {
          "profile": [
            "http://hl7.org/fhir/uv/ips/StructureDefinition/Condition-uv-ips"
          ]
        },
        "category": [
          {
            "coding": [
              {
                "code": "problem-list-item",
                "system": "http://terminology.hl7.org/CodeSystem/condition-category",
                "display": "Problem List Item"
              }
            ]
          }
        ],
        "code": {
          "coding": [
            {
              "code": "55822004",
              "system": "http://snomed.info/sct",
              "display": "Hyperlipidemia (disorder)"
            }
          ],
          "text": "Hyperlipidemia"
        },
        "onsetDateTime": "2019-09-09",
        "clinicalStatus": {
          "coding": [
            {
              "code": "active",
              "system": "http://terminology.hl7.org/CodeSystem/condition-clinical"
            }
          ]
        },
        "subject": {
          "reference": "Patient/bf97ca10-b158-4fcc-b185-0642248b3ea1",
          "display": "Elizabeth Hyam"
        },
        "asserter": {
          "reference": "Practitioner/49f473a5-d7fd-4eb9-94f1-122562d09c68",
          "display": "Dr. Hel Ping"
        }
      }
    },
    {
      "fullUrl": "urn:uuid:f02f4af1-f619-4e45-a3f1-2e264bd75115",
      "resource": {
        "resourceType": "Condition",
        "id": "f02f4af1-f619-4e45-a3f1-2e264bd75115",
        "meta": {
          "profile": [
            "http://hl7.org/fhir/uv/ips/StructureDefinition/Condition-uv-ips"
          ]
        },
        "category": [
          {
            "coding": [
              {
                "code": "problem-list-item",
                "system": "http://terminology.hl7.org/CodeSystem/condition-category",
                "display": "Problem List Item"
              }
            ]
          }
        ],
        "code": {
          "coding": [
            {
              "code": "414545008",
              "system": "http://snomed.info/sct",
              "display": "Ischemic heart disease (disorder)"
            }
          ],
          "text": "Ischemic heart disease"
        },
        "onsetDateTime": "2014-08-11",
        "clinicalStatus": {
          "coding": [
            {
              "code": "active",
              "system": "http://terminology.hl7.org/CodeSystem/condition-clinical"
            }
          ]
        },
        "subject": {
          "reference": "Patient/bf97ca10-b158-4fcc-b185-0642248b3ea1",
          "display": "Elizabeth Hyam"
        },
        "asserter": {
          "reference": "Practitioner/49f473a5-d7fd-4eb9-94f1-122562d09c68",
          "display": "Dr. Hel Ping"
        }
      }
    },
    {
      "fullUrl": "urn:uuid:96df40cb-d5d4-409d-b8ee-865f2cf02fef",
      "resource": {
        "resourceType": "Condition",
        "id": "96df40cb-d5d4-409d-b8ee-865f2cf02fef",
        "meta": {
          "profile": [
            "http://hl7.org/fhir/uv/ips/StructureDefinition/Condition-uv-ips"
          ]
        },
        "category": [
          {
            "coding": [
              {
                "code": "problem-list-item",
                "system": "http://terminology.hl7.org/CodeSystem/condition-category",
                "display": "Problem List Item"
              }
            ]
          }
        ],
        "code": {
          "coding": [
            {
              "code": "64859006",
              "system": "http://snomed.info/sct",
              "display": "Osteoporosis (disorder)"
            }
          ],
          "text": "Osteoporosis"
        },
        "onsetDateTime": "2008-07-07",
        "clinicalStatus": {
          "coding": [
            {
              "code": "active",
              "system": "http://terminology.hl7.org/CodeSystem/condition-clinical"
            }
          ]
        },
        "subject": {
          "reference": "Patient/bf97ca10-b158-4fcc-b185-0642248b3ea1",
          "display": "Elizabeth Hyam"
        },
        "asserter": {
          "reference": "Practitioner/49f473a5-d7fd-4eb9-94f1-122562d09c68",
          "display": "Dr. Hel Ping"
        }
      }
    },
    {
      "fullUrl": "urn:uuid:33597425-5327-4222-b74e-55bd7dd2ab2e",
      "resource": {
        "resourceType": "Condition",
        "id": "33597425-5327-4222-b74e-55bd7dd2ab2e",
        "meta": {
          "profile": [
            "http://hl7.org/fhir/uv/ips/StructureDefinition/Condition-uv-ips"
          ]
        },
        "category": [
          {
            "coding": [
              {
                "code": "problem-list-item",
                "system": "http://terminology.hl7.org/CodeSystem/condition-category",
                "display": "Problem List Item"
              }
            ]
          }
        ],
        "code": {
          "coding": [
            {
              "code": "197927001",
              "system": "http://snomed.info/sct",
              "display": "Recurrent urinary tract infection (disorder)"
            }
          ],
          "text": "Recurrent urinary tract infection"
        },
        "onsetDateTime": "1968-05-17",
        "clinicalStatus": {
          "coding": [
            {
              "code": "active",
              "system": "http://terminology.hl7.org/CodeSystem/condition-clinical"
            }
          ]
        },
        "subject": {
          "reference": "Patient/bf97ca10-b158-4fcc-b185-0642248b3ea1",
          "display": "Elizabeth Hyam"
        },
        "asserter": {
          "reference": "Practitioner/49f473a5-d7fd-4eb9-94f1-122562d09c68",
          "display": "Dr. Hel Ping"
        }
      }
    },
    {
      "fullUrl": "urn:uuid:34fb369d-8c09-43c0-a08c-f7bc6b96dd7f",
      "resource": {
        "resourceType": "Condition",
        "id": "34fb369d-8c09-43c0-a08c-f7bc6b96dd7f",
        "meta": {
          "profile": [
            "http://hl7.org/fhir/uv/ips/StructureDefinition/Condition-uv-ips"
          ]
        },
        "category": [
          {
            "coding": [
              {
                "code": "problem-list-item",
                "system": "http://terminology.hl7.org/CodeSystem/condition-category",
                "display": "Problem List Item"
              }
            ]
          }
        ],
        "code": {
          "coding": [
            {
              "code": "109570002",
              "system": "http://snomed.info/sct",
              "display": "Primary dental caries (disorder)"
            }
          ],
          "text": "Primary dental caries"
        },
        "onsetDateTime": "2024-10-21",
        "clinicalStatus": {
          "coding": [
            {
              "code": "inactive",
              "system": "http://terminology.hl7.org/CodeSystem/condition-clinical"
            }
          ]
        },
        "subject": {
          "reference": "Patient/bf97ca10-b158-4fcc-b185-0642248b3ea1",
          "display": "Elizabeth Hyam"
        },
        "asserter": {
          "reference": "Practitioner/49f473a5-d7fd-4eb9-94f1-122562d09c68",
          "display": "Dr. Hel Ping"
        }
      }
    },
    {
      "fullUrl": "urn:uuid:55700e3d-6d3b-4d95-8e28-ba12240f1c62",
      "resource": {
        "resourceType": "Condition",
        "id": "55700e3d-6d3b-4d95-8e28-ba12240f1c62",
        "meta": {
          "profile": [
            "http://hl7.org/fhir/uv/ips/StructureDefinition/Condition-uv-ips"
          ]
        },
        "category": [
          {
            "coding": [
              {
                "code": "problem-list-item",
                "system": "http://terminology.hl7.org/CodeSystem/condition-category",
                "display": "Problem List Item"
              }
            ]
          }
        ],
        "code": {
          "coding": [
            {
              "code": "66383009",
              "system": "http://snomed.info/sct",
              "display": "Gingivitis (disorder)"
            }
          ],
          "text": "Gingivitis"
        },
        "onsetDateTime": "2024-10-07",
        "clinicalStatus": {
          "coding": [
            {
              "code": "inactive",
              "system": "http://terminology.hl7.org/CodeSystem/condition-clinical"
            }
          ]
        },
        "subject": {
          "reference": "Patient/bf97ca10-b158-4fcc-b185-0642248b3ea1",
          "display": "Elizabeth Hyam"
        },
        "asserter": {
          "reference": "Practitioner/49f473a5-d7fd-4eb9-94f1-122562d09c68",
          "display": "Dr. Hel Ping"
        }
      }
    },
    {
      "fullUrl": "urn:uuid:ec29fb58-2711-4726-8076-b0f12db8bece",
      "resource": {
        "resourceType": "Condition",
        "id": "ec29fb58-2711-4726-8076-b0f12db8bece",
        "meta": {
          "profile": [
            "http://hl7.org/fhir/uv/ips/StructureDefinition/Condition-uv-ips"
          ]
        },
        "category": [
          {
            "coding": [
              {
                "code": "problem-list-item",
                "system": "http://terminology.hl7.org/CodeSystem/condition-category",
                "display": "Problem List Item"
              }
            ]
          }
        ],
        "code": {
          "coding": [
            {
              "code": "444814009",
              "system": "http://snomed.info/sct",
              "display": "Viral sinusitis (disorder)"
            }
          ],
          "text": "Viral sinusitis"
        },
        "onsetDateTime": "2024-02-28",
        "clinicalStatus": {
          "coding": [
            {
              "code": "inactive",
              "system": "http://terminology.hl7.org/CodeSystem/condition-clinical"
            }
          ]
        },
        "subject": {
          "reference": "Patient/bf97ca10-b158-4fcc-b185-0642248b3ea1",
          "display": "Elizabeth Hyam"
        },
        "asserter": {
          "reference": "Practitioner/49f473a5-d7fd-4eb9-94f1-122562d09c68",
          "display": "Dr. Hel Ping"
        }
      }
    },
    {
      "fullUrl": "urn:uuid:b517866c-a073-479d-8da2-977865d62ab6",
      "resource": {
        "resourceType": "Condition",
        "id": "b517866c-a073-479d-8da2-977865d62ab6",
        "meta": {
          "profile": [
            "http://hl7.org/fhir/uv/ips/StructureDefinition/Condition-uv-ips"
          ]
        },
        "category": [
          {
            "coding": [
              {
                "code": "problem-list-item",
                "system": "http://terminology.hl7.org/CodeSystem/condition-category",
                "display": "Problem List Item"
              }
            ]
          }
        ],
        "code": {
          "coding": [
            {
              "code": "68496003",
              "system": "http://snomed.info/sct",
              "display": "Polyp of colon (disorder)"
            }
          ],
          "text": "Polyp of colon"
        },
        "onsetDateTime": "2023-06-05",
        "clinicalStatus": {
          "coding": [
            {
              "code": "inactive",
              "system": "http://terminology.hl7.org/CodeSystem/condition-clinical"
            }
          ]
        },
        "subject": {
          "reference": "Patient/bf97ca10-b158-4fcc-b185-0642248b3ea1",
          "display": "Elizabeth Hyam"
        },
        "asserter": {
          "reference": "Practitioner/49f473a5-d7fd-4eb9-94f1-122562d09c68",
          "display": "Dr. Hel Ping"
        }
      }
    },
    {
      "fullUrl": "urn:uuid:03708f2b-26fa-4445-8ae8-8d10eea76002",
      "resource": {
        "resourceType": "Condition",
        "id": "03708f2b-26fa-4445-8ae8-8d10eea76002",
        "meta": {
          "profile": [
            "http://hl7.org/fhir/uv/ips/StructureDefinition/Condition-uv-ips"
          ]
        },
        "category": [
          {
            "coding": [
              {
                "code": "problem-list-item",
                "system": "http://terminology.hl7.org/CodeSystem/condition-category",
                "display": "Problem List Item"
              }
            ]
          }
        ],
        "code": {
          "coding": [
            {
              "code": "16114001",
              "system": "http://snomed.info/sct",
              "display": "Fracture of ankle (disorder)"
            }
          ],
          "text": "Fracture of ankle"
        },
        "onsetDateTime": "2022-12-06",
        "clinicalStatus": {
          "coding": [
            {
              "code": "inactive",
              "system": "http://terminology.hl7.org/CodeSystem/condition-clinical"
            }
          ]
        },
        "subject": {
          "reference": "Patient/bf97ca10-b158-4fcc-b185-0642248b3ea1",
          "display": "Elizabeth Hyam"
        },
        "asserter": {
          "reference": "Practitioner/49f473a5-d7fd-4eb9-94f1-122562d09c68",
          "display": "Dr. Hel Ping"
        }
      }
    },
    {
      "fullUrl": "urn:uuid:42b93b25-1d2e-4363-b5af-97e4cfc71899",
      "resource": {
        "resourceType": "Condition",
        "id": "42b93b25-1d2e-4363-b5af-97e4cfc71899",
        "meta": {
          "profile": [
            "http://hl7.org/fhir/uv/ips/StructureDefinition/Condition-uv-ips"
          ]
        },
        "category": [
          {
            "coding": [
              {
                "code": "problem-list-item",
                "system": "http://terminology.hl7.org/CodeSystem/condition-category",
                "display": "Problem List Item"
              }
            ]
          }
        ],
        "code": {
          "coding": [
            {
              "code": "125605004",
              "system": "http://snomed.info/sct",
              "display": "Fracture of bone (disorder)"
            }
          ],
          "text": "Fracture of bone"
        },
        "onsetDateTime": "2022-12-06",
        "clinicalStatus": {
          "coding": [
            {
              "code": "inactive",
              "system": "http://terminology.hl7.org/CodeSystem/condition-clinical"
            }
          ]
        },
        "subject": {
          "reference": "Patient/bf97ca10-b158-4fcc-b185-0642248b3ea1",
          "display": "Elizabeth Hyam"
        },
        "asserter": {
          "reference": "Practitioner/49f473a5-d7fd-4eb9-94f1-122562d09c68",
          "display": "Dr. Hel Ping"
        }
      }
    },
    {
      "fullUrl": "urn:uuid:62837e75-c88f-478f-b976-b2f1f72ce8a0",
      "resource": {
        "resourceType": "Condition",
        "id": "62837e75-c88f-478f-b976-b2f1f72ce8a0",
        "meta": {
          "profile": [
            "http://hl7.org/fhir/uv/ips/StructureDefinition/Condition-uv-ips"
          ]
        },
        "category": [
          {
            "coding": [
              {
                "code": "problem-list-item",
                "system": "http://terminology.hl7.org/CodeSystem/condition-category",
                "display": "Problem List Item"
              }
            ]
          }
        ],
        "code": {
          "coding": [
            {
              "code": "443165006",
              "system": "http://snomed.info/sct",
              "display": "Osteoporotic fracture of bone (disorder)"
            }
          ],
          "text": "Osteoporotic fracture"
        },
        "onsetDateTime": "2022-12-06",
        "clinicalStatus": {
          "coding": [
            {
              "code": "inactive",
              "system": "http://terminology.hl7.org/CodeSystem/condition-clinical"
            }
          ]
        },
        "subject": {
          "reference": "Patient/bf97ca10-b158-4fcc-b185-0642248b3ea1",
          "display": "Elizabeth Hyam"
        },
        "asserter": {
          "reference": "Practitioner/49f473a5-d7fd-4eb9-94f1-122562d09c68",
          "display": "Dr. Hel Ping"
        }
      }
    },
    {
      "fullUrl": "urn:uuid:932a2bc5-e004-49b2-a7ae-c196c4646e67",
      "resource": {
        "resourceType": "Condition",
        "id": "932a2bc5-e004-49b2-a7ae-c196c4646e67",
        "meta": {
          "profile": [
            "http://hl7.org/fhir/uv/ips/StructureDefinition/Condition-uv-ips"
          ]
        },
        "category": [
          {
            "coding": [
              {
                "code": "problem-list-item",
                "system": "http://terminology.hl7.org/CodeSystem/condition-category",
                "display": "Problem List Item"
              }
            ]
          }
        ],
        "code": {
          "coding": [
            {
              "code": "66383009",
              "system": "http://snomed.info/sct",
              "display": "Gingivitis (disorder)"
            }
          ],
          "text": "Gingivitis"
        },
        "onsetDateTime": "2021-09-20",
        "clinicalStatus": {
          "coding": [
            {
              "code": "inactive",
              "system": "http://terminology.hl7.org/CodeSystem/condition-clinical"
            }
          ]
        },
        "subject": {
          "reference": "Patient/bf97ca10-b158-4fcc-b185-0642248b3ea1",
          "display": "Elizabeth Hyam"
        },
        "asserter": {
          "reference": "Practitioner/49f473a5-d7fd-4eb9-94f1-122562d09c68",
          "display": "Dr. Hel Ping"
        }
      }
    },
    {
      "fullUrl": "urn:uuid:e552c2d3-9558-450c-bd36-913984014750",
      "resource": {
        "resourceType": "Condition",
        "id": "e552c2d3-9558-450c-bd36-913984014750",
        "meta": {
          "profile": [
            "http://hl7.org/fhir/uv/ips/StructureDefinition/Condition-uv-ips"
          ]
        },
        "category": [
          {
            "coding": [
              {
                "code": "problem-list-item",
                "system": "http://terminology.hl7.org/CodeSystem/condition-category",
                "display": "Problem List Item"
              }
            ]
          }
        ],
        "code": {
          "coding": [
            {
              "code": "403190006",
              "system": "http://snomed.info/sct",
              "display": "Epidermal burn of skin (disorder)"
            }
          ],
          "text": "Epidermal burn of skin"
        },
        "onsetDateTime": "2020-10-05",
        "clinicalStatus": {
          "coding": [
            {
              "code": "inactive",
              "system": "http://terminology.hl7.org/CodeSystem/condition-clinical"
            }
          ]
        },
        "subject": {
          "reference": "Patient/bf97ca10-b158-4fcc-b185-0642248b3ea1",
          "display": "Elizabeth Hyam"
        },
        "asserter": {
          "reference": "Practitioner/49f473a5-d7fd-4eb9-94f1-122562d09c68",
          "display": "Dr. Hel Ping"
        }
      }
    },
    {
      "fullUrl": "urn:uuid:f60f781b-bb71-4487-acee-efa88d06befa",
      "resource": {
        "resourceType": "Condition",
        "id": "f60f781b-bb71-4487-acee-efa88d06befa",
        "meta": {
          "profile": [
            "http://hl7.org/fhir/uv/ips/StructureDefinition/Condition-uv-ips"
          ]
        },
        "category": [
          {
            "coding": [
              {
                "code": "problem-list-item",
                "system": "http://terminology.hl7.org/CodeSystem/condition-category",
                "display": "Problem List Item"
              }
            ]
          }
        ],
        "code": {
          "coding": [
            {
              "code": "18718003",
              "system": "http://snomed.info/sct",
              "display": "Gingival disease (disorder)"
            }
          ],
          "text": "Gingival disease"
        },
        "onsetDateTime": "2020-09-28",
        "clinicalStatus": {
          "coding": [
            {
              "code": "inactive",
              "system": "http://terminology.hl7.org/CodeSystem/condition-clinical"
            }
          ]
        },
        "subject": {
          "reference": "Patient/bf97ca10-b158-4fcc-b185-0642248b3ea1",
          "display": "Elizabeth Hyam"
        },
        "asserter": {
          "reference": "Practitioner/49f473a5-d7fd-4eb9-94f1-122562d09c68",
          "display": "Dr. Hel Ping"
        }
      }
    },
    {
      "fullUrl": "urn:uuid:7b735f06-d012-4607-b9b5-165f77a26ed5",
      "resource": {
        "resourceType": "Condition",
        "id": "7b735f06-d012-4607-b9b5-165f77a26ed5",
        "meta": {
          "profile": [
            "http://hl7.org/fhir/uv/ips/StructureDefinition/Condition-uv-ips"
          ]
        },
        "category": [
          {
            "coding": [
              {
                "code": "problem-list-item",
                "system": "http://terminology.hl7.org/CodeSystem/condition-category",
                "display": "Problem List Item"
              }
            ]
          }
        ],
        "code": {
          "coding": [
            {
              "code": "66383009",
              "system": "http://snomed.info/sct",
              "display": "Gingivitis (disorder)"
            }
          ],
          "text": "Gingivitis"
        },
        "onsetDateTime": "2020-09-14",
        "clinicalStatus": {
          "coding": [
            {
              "code": "inactive",
              "system": "http://terminology.hl7.org/CodeSystem/condition-clinical"
            }
          ]
        },
        "subject": {
          "reference": "Patient/bf97ca10-b158-4fcc-b185-0642248b3ea1",
          "display": "Elizabeth Hyam"
        },
        "asserter": {
          "reference": "Practitioner/49f473a5-d7fd-4eb9-94f1-122562d09c68",
          "display": "Dr. Hel Ping"
        }
      }
    },
    {
      "fullUrl": "urn:uuid:00607867-a83b-4f53-afcf-f2971249f8d8",
      "resource": {
        "resourceType": "Condition",
        "id": "00607867-a83b-4f53-afcf-f2971249f8d8",
        "meta": {
          "profile": [
            "http://hl7.org/fhir/uv/ips/StructureDefinition/Condition-uv-ips"
          ]
        },
        "category": [
          {
            "coding": [
              {
                "code": "problem-list-item",
                "system": "http://terminology.hl7.org/CodeSystem/condition-category",
                "display": "Problem List Item"
              }
            ]
          }
        ],
        "code": {
          "coding": [
            {
              "code": "125605004",
              "system": "http://snomed.info/sct",
              "display": "Fracture of bone (disorder)"
            }
          ],
          "text": "Fracture of bone"
        },
        "onsetDateTime": "2019-05-22",
        "clinicalStatus": {
          "coding": [
            {
              "code": "inactive",
              "system": "http://terminology.hl7.org/CodeSystem/condition-clinical"
            }
          ]
        },
        "subject": {
          "reference": "Patient/bf97ca10-b158-4fcc-b185-0642248b3ea1",
          "display": "Elizabeth Hyam"
        },
        "asserter": {
          "reference": "Practitioner/49f473a5-d7fd-4eb9-94f1-122562d09c68",
          "display": "Dr. Hel Ping"
        }
      }
    },
    {
      "fullUrl": "urn:uuid:c311abfd-baa8-4c93-84a4-300c78771453",
      "resource": {
        "resourceType": "Condition",
        "id": "c311abfd-baa8-4c93-84a4-300c78771453",
        "meta": {
          "profile": [
            "http://hl7.org/fhir/uv/ips/StructureDefinition/Condition-uv-ips"
          ]
        },
        "category": [
          {
            "coding": [
              {
                "code": "problem-list-item",
                "system": "http://terminology.hl7.org/CodeSystem/condition-category",
                "display": "Problem List Item"
              }
            ]
          }
        ],
        "code": {
          "coding": [
            {
              "code": "359817006",
              "system": "http://snomed.info/sct",
              "display": "Closed fracture of hip (disorder)"
            }
          ],
          "text": "Closed fracture of hip"
        },
        "onsetDateTime": "2019-05-22",
        "clinicalStatus": {
          "coding": [
            {
              "code": "inactive",
              "system": "http://terminology.hl7.org/CodeSystem/condition-clinical"
            }
          ]
        },
        "subject": {
          "reference": "Patient/bf97ca10-b158-4fcc-b185-0642248b3ea1",
          "display": "Elizabeth Hyam"
        },
        "asserter": {
          "reference": "Practitioner/49f473a5-d7fd-4eb9-94f1-122562d09c68",
          "display": "Dr. Hel Ping"
        }
      }
    },
    {
      "fullUrl": "urn:uuid:231cfd42-2856-45f0-bdaa-e891e3b00212",
      "resource": {
        "resourceType": "Condition",
        "id": "231cfd42-2856-45f0-bdaa-e891e3b00212",
        "meta": {
          "profile": [
            "http://hl7.org/fhir/uv/ips/StructureDefinition/Condition-uv-ips"
          ]
        },
        "category": [
          {
            "coding": [
              {
                "code": "problem-list-item",
                "system": "http://terminology.hl7.org/CodeSystem/condition-category",
                "display": "Problem List Item"
              }
            ]
          }
        ],
        "code": {
          "coding": [
            {
              "code": "443165006",
              "system": "http://snomed.info/sct",
              "display": "Osteoporotic fracture of bone (disorder)"
            }
          ],
          "text": "Osteoporotic fracture"
        },
        "onsetDateTime": "2019-05-22",
        "clinicalStatus": {
          "coding": [
            {
              "code": "inactive",
              "system": "http://terminology.hl7.org/CodeSystem/condition-clinical"
            }
          ]
        },
        "subject": {
          "reference": "Patient/bf97ca10-b158-4fcc-b185-0642248b3ea1",
          "display": "Elizabeth Hyam"
        },
        "asserter": {
          "reference": "Practitioner/49f473a5-d7fd-4eb9-94f1-122562d09c68",
          "display": "Dr. Hel Ping"
        }
      }
    },
    {
      "fullUrl": "urn:uuid:3b531148-4208-4f0b-bbe1-0dd06d33efdd",
      "resource": {
        "resourceType": "Condition",
        "id": "3b531148-4208-4f0b-bbe1-0dd06d33efdd",
        "meta": {
          "profile": [
            "http://hl7.org/fhir/uv/ips/StructureDefinition/Condition-uv-ips"
          ]
        },
        "category": [
          {
            "coding": [
              {
                "code": "problem-list-item",
                "system": "http://terminology.hl7.org/CodeSystem/condition-category",
                "display": "Problem List Item"
              }
            ]
          }
        ],
        "code": {
          "coding": [
            {
              "code": "109570002",
              "system": "http://snomed.info/sct",
              "display": "Primary dental caries (disorder)"
            }
          ],
          "text": "Primary dental caries"
        },
        "onsetDateTime": "2017-09-11",
        "clinicalStatus": {
          "coding": [
            {
              "code": "inactive",
              "system": "http://terminology.hl7.org/CodeSystem/condition-clinical"
            }
          ]
        },
        "subject": {
          "reference": "Patient/bf97ca10-b158-4fcc-b185-0642248b3ea1",
          "display": "Elizabeth Hyam"
        },
        "asserter": {
          "reference": "Practitioner/49f473a5-d7fd-4eb9-94f1-122562d09c68",
          "display": "Dr. Hel Ping"
        }
      }
    },
    {
      "fullUrl": "urn:uuid:9c2af82c-e5f2-431b-85e1-efbc922e16ae",
      "resource": {
        "resourceType": "Medication",
        "id": "9c2af82c-e5f2-431b-85e1-efbc922e16ae",
        "meta": {
          "profile": [
            "http://hl7.org/fhir/uv/ips/StructureDefinition/Medication-uv-ips"
          ]
        },
        "code": {
          "coding": [
            {
              "code": "314231",
              "system": "http://www.nlm.nih.gov/research/umls/rxnorm",
              "display": "simvastatin 10 MG Oral Tablet"
            },
            {
              "code": "319996000",
              "system": "http://snomed.info/sct",
              "display": "Product containing precisely simvastatin 10 milligram/1 each conventional release oral tablet (clinical drug)"
            }
          ],
          "text": "Simvastatin 10 mg oral tablet"
        },
        "form": {
          "coding": [
            {
              "code": "421026006",
              "system": "http://snomed.info/sct",
              "display": "Oral tablet"
            }
          ]
        },
        "ingredient": [
          {
            "itemCodeableConcept": {
              "coding": [
                {
                  "code": "387584000",
                  "system": "http://snomed.info/sct",
                  "display": "Simvastatin"
                }
              ]
            },
            "isActive": true
          }
        ]
      }
    },
    {
      "fullUrl": "urn:uuid:c3eaa79c-c6b5-4dd9-aa45-d59b074406cc",
      "resource": {
        "resourceType": "MedicationStatement",
        "id": "c3eaa79c-c6b5-4dd9-aa45-d59b074406cc",
        "effectivePeriod": {
          "start": "2024-10-28"
        },
        "dosage": [
          {
            "doseAndRate": [
              {
                "doseQuantity": {
                  "value": 1,
                  "unit": "{tbl}",
                  "code": "{tbl}"
                }
              }
            ],
            "timing": {
              "repeat": {
                "frequency": 1,
                "period": 1,
                "periodUnit": "d"
              }
            },
            "text": "1 tablet (10 mg) by mouth once daily",
            "asNeededBoolean": false
          }
        ],
        "reasonCode": [
          {
            "coding": [
              {
                "code": "55822004",
                "system": "http://snomed.info/sct",
                "display": "Hyperlipidemia (disorder)"
              }
            ]
          }
        ],
        "status": "active",
        "medicationReference": {
          "reference": "Medication/9c2af82c-e5f2-431b-85e1-efbc922e16ae",
          "display": "Simvastatin 10 mg oral tablet"
        },
        "subject": {
          "reference": "Patient/bf97ca10-b158-4fcc-b185-0642248b3ea1",
          "display": "Elizabeth Hyam"
        }
      }
    },
    {
      "fullUrl": "urn:uuid:bbd49b48-eabe-40c3-80cc-0006eacf2867",
      "resource": {
        "resourceType": "Medication",
        "id": "bbd49b48-eabe-40c3-80cc-0006eacf2867",
        "meta": {
          "profile": [
            "http://hl7.org/fhir/uv/ips/StructureDefinition/Medication-uv-ips"
          ]
        },
        "code": {
          "coding": [
            {
              "code": "904419",
              "system": "http://www.nlm.nih.gov/research/umls/rxnorm",
              "display": "alendronic acid 10 MG Oral Tablet"
            },
            {
              "code": "783144007",
              "system": "http://snomed.info/sct",
              "display": "Product containing precisely alendronic acid (as alendronate sodium) 10 milligram/1 each conventional release oral tablet (clinical drug)"
            }
          ],
          "text": "Alendronic acid (as alendronate sodium) 10 mg oral tablet"
        },
        "form": {
          "coding": [
            {
              "code": "421026006",
              "system": "http://snomed.info/sct",
              "display": "Oral tablet"
            }
          ]
        },
        "ingredient": [
          {
            "itemCodeableConcept": {
              "coding": [
                {
                  "code": "391729003",
                  "system": "http://snomed.info/sct",
                  "display": "Alendronate sodium"
                }
              ]
            },
            "isActive": true
          }
        ]
      }
    },
    {
      "fullUrl": "urn:uuid:d1db07e2-003b-4daf-874a-20dbea86dd84",
      "resource": {
        "resourceType": "MedicationStatement",
        "id": "d1db07e2-003b-4daf-874a-20dbea86dd84",
        "effectivePeriod": {
          "start": "2024-10-07"
        },
        "dosage": [
          {
            "doseAndRate": [
              {
                "doseQuantity": {
                  "value": 1,
                  "unit": "{tbl}",
                  "code": "{tbl}"
                }
              }
            ],
            "timing": {
              "repeat": {
                "frequency": 1,
                "period": 1,
                "periodUnit": "d"
              }
            },
            "text": "1 tablet (10 mg) once daily",
            "asNeededBoolean": false
          }
        ],
        "reasonCode": [
          {
            "coding": [
              {
                "code": "64859006",
                "system": "http://snomed.info/sct",
                "display": "Osteoporosis (disorder)"
              }
            ]
          }
        ],
        "status": "active",
        "medicationReference": {
          "reference": "Medication/bbd49b48-eabe-40c3-80cc-0006eacf2867",
          "display": "Alendronic acid (as alendronate sodium) 10 mg oral tablet"
        },
        "subject": {
          "reference": "Patient/bf97ca10-b158-4fcc-b185-0642248b3ea1",
          "display": "Elizabeth Hyam"
        }
      }
    },
    {
      "fullUrl": "urn:uuid:3c3447b8-e137-4328-8838-1e9743f7390c",
      "resource": {
        "resourceType": "Medication",
        "id": "3c3447b8-e137-4328-8838-1e9743f7390c",
        "meta": {
          "profile": [
            "http://hl7.org/fhir/uv/ips/StructureDefinition/Medication-uv-ips"
          ]
        },
        "code": {
          "coding": [
            {
              "code": "309362",
              "system": "http://www.nlm.nih.gov/research/umls/rxnorm",
              "display": "clopidogrel 75 MG Oral Tablet"
            },
            {
              "code": "783586007",
              "system": "http://snomed.info/sct",
              "display": "Product containing precisely clopidogrel (as clopidogrel bisulfate) 75 milligram/1 each conventional release oral tablet (clinical drug)"
            }
          ],
          "text": "Clopidogrel (as clopidogrel bisulfate) 75 mg oral tablet"
        },
        "form": {
          "coding": [
            {
              "code": "421026006",
              "system": "http://snomed.info/sct",
              "display": "Oral tablet"
            }
          ]
        },
        "ingredient": [
          {
            "itemCodeableConcept": {
              "coding": [
                {
                  "code": "412354008",
                  "system": "http://snomed.info/sct",
                  "display": "Clopidogrel bisulfate"
                }
              ]
            },
            "isActive": true
          }
        ]
      }
    },
    {
      "fullUrl": "urn:uuid:0978c446-8882-49c1-bf48-a3d4f5d46f47",
      "resource": {
        "resourceType": "MedicationStatement",
        "id": "0978c446-8882-49c1-bf48-a3d4f5d46f47",
        "effectivePeriod": {
          "start": "2014-08-18"
        },
        "dosage": [
          {
            "doseAndRate": [
              {
                "doseQuantity": {
                  "value": 1,
                  "unit": "{tbl}",
                  "code": "{tbl}"
                }
              }
            ],
            "timing": {
              "repeat": {
                "frequency": 1,
                "period": 1,
                "periodUnit": "d"
              }
            },
            "text": "1 tablet (75 mg) by mouth once daily",
            "asNeededBoolean": false
          }
        ],
        "status": "active",
        "medicationReference": {
          "reference": "Medication/3c3447b8-e137-4328-8838-1e9743f7390c",
          "display": "Clopidogrel (as clopidogrel bisulfate) 75 mg oral tablet"
        },
        "subject": {
          "reference": "Patient/bf97ca10-b158-4fcc-b185-0642248b3ea1",
          "display": "Elizabeth Hyam"
        }
      }
    },
    {
      "fullUrl": "urn:uuid:60cd098a-6814-4eda-a0f8-f5f1e8da900e",
      "resource": {
        "resourceType": "Medication",
        "id": "60cd098a-6814-4eda-a0f8-f5f1e8da900e",
        "meta": {
          "profile": [
            "http://hl7.org/fhir/uv/ips/StructureDefinition/Medication-uv-ips"
          ]
        },
        "code": {
          "coding": [
            {
              "code": "312961",
              "system": "http://www.nlm.nih.gov/research/umls/rxnorm",
              "display": "simvastatin 20 MG Oral Tablet"
            },
            {
              "code": "319997009",
              "system": "http://snomed.info/sct",
              "display": "Product containing precisely simvastatin 20 milligram/1 each conventional release oral tablet (clinical drug)"
            }
          ],
          "text": "Simvastatin 20 mg oral tablet"
        },
        "form": {
          "coding": [
            {
              "code": "421026006",
              "system": "http://snomed.info/sct",
              "display": "Oral tablet"
            }
          ]
        },
        "ingredient": [
          {
            "itemCodeableConcept": {
              "coding": [
                {
                  "code": "387584000",
                  "system": "http://snomed.info/sct",
                  "display": "Simvastatin"
                }
              ]
            },
            "isActive": true
          }
        ]
      }
    },
    {
      "fullUrl": "urn:uuid:159abb82-e200-4ecf-9b12-b506f050b1f8",
      "resource": {
        "resourceType": "MedicationStatement",
        "id": "159abb82-e200-4ecf-9b12-b506f050b1f8",
        "effectivePeriod": {
          "start": "2014-08-18"
        },
        "dosage": [
          {
            "doseAndRate": [
              {
                "doseQuantity": {
                  "value": 1,
                  "unit": "{tbl}",
                  "code": "{tbl}"
                }
              }
            ],
            "timing": {
              "repeat": {
                "frequency": 1,
                "period": 1,
                "periodUnit": "d"
              }
            },
            "text": "1 tablet (20 mg) by mouth once daily",
            "asNeededBoolean": false
          }
        ],
        "status": "active",
        "medicationReference": {
          "reference": "Medication/60cd098a-6814-4eda-a0f8-f5f1e8da900e",
          "display": "Simvastatin 20 mg oral tablet"
        },
        "subject": {
          "reference": "Patient/bf97ca10-b158-4fcc-b185-0642248b3ea1",
          "display": "Elizabeth Hyam"
        }
      }
    },
    {
      "fullUrl": "urn:uuid:3d9510ea-eee0-4873-8143-fae6c9f2ec95",
      "resource": {
        "resourceType": "Medication",
        "id": "3d9510ea-eee0-4873-8143-fae6c9f2ec95",
        "meta": {
          "profile": [
            "http://hl7.org/fhir/uv/ips/StructureDefinition/Medication-uv-ips"
          ]
        },
        "code": {
          "coding": [
            {
              "code": "705129",
              "system": "http://www.nlm.nih.gov/research/umls/rxnorm",
              "display": "nitroglycerin 0.4 MG/ACTUAT Mucosal Spray"
            },
            {
              "code": "425176000",
              "system": "http://snomed.info/sct",
              "display": "Product containing precisely glyceryl trinitrate 400 microgram/1 actuation conventional release sublingual spray (clinical drug)"
            }
          ],
          "text": "Nitroglycerin 400 microgram/actuation sublingual spray"
        },
        "form": {
          "coding": [
            {
              "code": "385074009",
              "system": "http://snomed.info/sct",
              "display": "Sublingual spray"
            }
          ]
        },
        "ingredient": [
          {
            "itemCodeableConcept": {
              "coding": [
                {
                  "code": "387404004",
                  "system": "http://snomed.info/sct",
                  "display": "Glyceryl trinitrate"
                }
              ]
            },
            "isActive": true
          }
        ]
      }
    },
    {
      "fullUrl": "urn:uuid:e6c64bce-421a-452c-9419-00741cf17839",
      "resource": {
        "resourceType": "MedicationStatement",
        "id": "e6c64bce-421a-452c-9419-00741cf17839",
        "effectivePeriod": {
          "start": "2014-08-18"
        },
        "dosage": [
          {
            "doseAndRate": [
              {
                "doseQuantity": {
                  "value": 400,
                  "unit": "microgram",
                  "code": "ug"
                }
              }
            ],
            "timing": {
              "repeat": {
                "frequency": 1,
                "period": 5,
                "periodUnit": "min"
              }
            },
            "text": "400 micrograms (1 spray) sublingually as needed for chest pain, may repeat every 5 minutes as needed, up to 3 sprays in 15 minutes",
            "asNeededBoolean": true
          }
        ],
        "status": "active",
        "medicationReference": {
          "reference": "Medication/3d9510ea-eee0-4873-8143-fae6c9f2ec95",
          "display": "Nitroglycerin 400 microgram/actuation sublingual spray"
        },
        "subject": {
          "reference": "Patient/bf97ca10-b158-4fcc-b185-0642248b3ea1",
          "display": "Elizabeth Hyam"
        }
      }
    },
    {
      "fullUrl": "urn:uuid:8a1c3b10-5e5f-44e1-bdfc-db611bb07fd5",
      "resource": {
        "resourceType": "Medication",
        "id": "8a1c3b10-5e5f-44e1-bdfc-db611bb07fd5",
        "meta": {
          "profile": [
            "http://hl7.org/fhir/uv/ips/StructureDefinition/Medication-uv-ips"
          ]
        },
        "code": {
          "coding": [
            {
              "code": "866412",
              "system": "http://www.nlm.nih.gov/research/umls/rxnorm",
              "display": "24 HR metoprolol succinate 100 MG Extended Release Oral Tablet"
            },
            {
              "code": "879980009",
              "system": "http://snomed.info/sct",
              "display": "Product containing precisely metoprolol tartrate (as metoprolol succinate) 100 milligram/1 each prolonged-release oral tablet (clinical drug)"
            }
          ],
          "text": "Metoprolol tartrate (as metoprolol succinate) 100 mg prolonged-release oral tablet"
        },
        "form": {
          "coding": [
            {
              "code": "385060002",
              "system": "http://snomed.info/sct",
              "display": "Prolonged-release oral tablet"
            }
          ]
        },
        "ingredient": [
          {
            "itemCodeableConcept": {
              "coding": [
                {
                  "code": "412432007",
                  "system": "http://snomed.info/sct",
                  "display": "Metoprolol succinate"
                }
              ]
            },
            "isActive": true
          }
        ]
      }
    },
    {
      "fullUrl": "urn:uuid:1b4e9107-5cf3-461e-8bd5-4d2982cfc1da",
      "resource": {
        "resourceType": "MedicationStatement",
        "id": "1b4e9107-5cf3-461e-8bd5-4d2982cfc1da",
        "effectivePeriod": {
          "start": "2014-08-18"
        },
        "dosage": [
          {
            "doseAndRate": [
              {
                "doseQuantity": {
                  "value": 1,
                  "unit": "{tbl}",
                  "code": "{tbl}"
                }
              }
            ],
            "timing": {
              "repeat": {
                "frequency": 1,
                "period": 1,
                "periodUnit": "d"
              }
            },
            "text": "1 tablet (100 mg) once daily",
            "asNeededBoolean": false
          }
        ],
        "status": "active",
        "medicationReference": {
          "reference": "Medication/8a1c3b10-5e5f-44e1-bdfc-db611bb07fd5",
          "display": "Metoprolol tartrate (as metoprolol succinate) 100 mg prolonged-release oral tablet"
        },
        "subject": {
          "reference": "Patient/bf97ca10-b158-4fcc-b185-0642248b3ea1",
          "display": "Elizabeth Hyam"
        }
      }
    },
    {
      "fullUrl": "urn:uuid:774e8555-5176-4cb8-8689-7ab7cd5ca2af",
      "resource": {
        "resourceType": "AllergyIntolerance",
        "id": "774e8555-5176-4cb8-8689-7ab7cd5ca2af",
        "meta": {
          "profile": [
            "http://hl7.eu/fhir/eps/StructureDefinition/allergyIntolerance-eu-eps"
          ]
        },
        "code": {
          "coding": [
            {
              "code": "716186003",
              "system": "http://snomed.info/sct",
              "display": "No known allergy (situation)"
            }
          ]
        },
        "patient": {
          "reference": "Patient/bf97ca10-b158-4fcc-b185-0642248b3ea1",
          "display": "Elizabeth Hyam"
        },
        "_onsetDateTime": {
          "extension": [
            {
              "url": "http://hl7.org/fhir/StructureDefinition/data-absent-reason",
              "valueCode": "unknown"
            }
          ]
        }
      }
    },
    {
      "fullUrl": "urn:uuid:f56114ff-617a-487f-82a0-c2047263f127",
      "resource": {
        "resourceType": "Procedure",
        "id": "f56114ff-617a-487f-82a0-c2047263f127",
        "meta": {
          "profile": [
            "http://hl7.org/fhir/uv/ips/StructureDefinition/Procedure-uv-ips"
          ]
        },
        "code": {
          "coding": [
            {
              "code": "225386006",
              "system": "http://snomed.info/sct",
              "display": "Pre-discharge assessment (procedure)"
            }
          ],
          "text": "Pre-discharge assessment"
        },
        "status": "completed",
        "subject": {
          "reference": "Patient/bf97ca10-b158-4fcc-b185-0642248b3ea1",
          "display": "Elizabeth Hyam"
        },
        "performedDateTime": "2023-05-26"
      }
    },
    {
      "fullUrl": "urn:uuid:4d5b9e8c-8e70-4ed7-9908-e22e0f403d22",
      "resource": {
        "resourceType": "Procedure",
        "id": "4d5b9e8c-8e70-4ed7-9908-e22e0f403d22",
        "meta": {
          "profile": [
            "http://hl7.org/fhir/uv/ips/StructureDefinition/Procedure-uv-ips"
          ]
        },
        "code": {
          "coding": [
            {
              "code": "308283009",
              "system": "http://snomed.info/sct",
              "display": "Discharge from hospital (procedure)"
            }
          ],
          "text": "Discharge from hospital"
        },
        "status": "completed",
        "subject": {
          "reference": "Patient/bf97ca10-b158-4fcc-b185-0642248b3ea1",
          "display": "Elizabeth Hyam"
        },
        "performedDateTime": "2023-05-26"
      }
    },
    {
      "fullUrl": "urn:uuid:3add3121-d625-4842-b186-cec96d51a5f1",
      "resource": {
        "resourceType": "Procedure",
        "id": "3add3121-d625-4842-b186-cec96d51a5f1",
        "meta": {
          "profile": [
            "http://hl7.org/fhir/uv/ips/StructureDefinition/Procedure-uv-ips"
          ]
        },
        "code": {
          "coding": [
            {
              "code": "410401003",
              "system": "http://snomed.info/sct",
              "display": "Nursing care/supplementary surveillance (regime/therapy)"
            }
          ],
          "text": "Nursing care/supplementary surveillance"
        },
        "status": "completed",
        "subject": {
          "reference": "Patient/bf97ca10-b158-4fcc-b185-0642248b3ea1",
          "display": "Elizabeth Hyam"
        },
        "performedDateTime": "2023-05-25"
      }
    },
    {
      "fullUrl": "urn:uuid:941f29f0-2975-49ce-8fe2-5e01ab2d4c78",
      "resource": {
        "resourceType": "Procedure",
        "id": "941f29f0-2975-49ce-8fe2-5e01ab2d4c78",
        "meta": {
          "profile": [
            "http://hl7.org/fhir/uv/ips/StructureDefinition/Procedure-uv-ips"
          ]
        },
        "code": {
          "coding": [
            {
              "code": "409023009",
              "system": "http://snomed.info/sct",
              "display": "Professional / ancillary services care (regime/therapy)"
            }
          ],
          "text": "Professional / ancillary services care"
        },
        "status": "completed",
        "subject": {
          "reference": "Patient/bf97ca10-b158-4fcc-b185-0642248b3ea1",
          "display": "Elizabeth Hyam"
        },
        "performedDateTime": "2023-05-19"
      }
    },
    {
      "fullUrl": "urn:uuid:ef967f20-af73-4dee-aa4f-8dc55502cb83",
      "resource": {
        "resourceType": "Procedure",
        "id": "ef967f20-af73-4dee-aa4f-8dc55502cb83",
        "meta": {
          "profile": [
            "http://hl7.org/fhir/uv/ips/StructureDefinition/Procedure-uv-ips"
          ]
        },
        "code": {
          "coding": [
            {
              "code": "63332003",
              "system": "http://snomed.info/sct",
              "display": "History AND physical examination (procedure)"
            }
          ],
          "text": "History AND physical examination"
        },
        "status": "completed",
        "subject": {
          "reference": "Patient/bf97ca10-b158-4fcc-b185-0642248b3ea1",
          "display": "Elizabeth Hyam"
        },
        "performedDateTime": "2023-05-15"
      }
    },
    {
      "fullUrl": "urn:uuid:3ecfacfd-e919-4f92-8c89-0afb61967c9a",
      "resource": {
        "resourceType": "Procedure",
        "id": "3ecfacfd-e919-4f92-8c89-0afb61967c9a",
        "meta": {
          "profile": [
            "http://hl7.org/fhir/uv/ips/StructureDefinition/Procedure-uv-ips"
          ]
        },
        "code": {
          "coding": [
            {
              "code": "91251008",
              "system": "http://snomed.info/sct",
              "display": "Physical therapy procedure (regime/therapy)"
            }
          ],
          "text": "Physical therapy procedure"
        },
        "status": "completed",
        "subject": {
          "reference": "Patient/bf97ca10-b158-4fcc-b185-0642248b3ea1",
          "display": "Elizabeth Hyam"
        },
        "performedDateTime": "2023-05-15"
      }
    },
    {
      "fullUrl": "urn:uuid:2c110cf9-409b-4ba6-ac24-f5a3a59a7a2a",
      "resource": {
        "resourceType": "Procedure",
        "id": "2c110cf9-409b-4ba6-ac24-f5a3a59a7a2a",
        "meta": {
          "profile": [
            "http://hl7.org/fhir/uv/ips/StructureDefinition/Procedure-uv-ips"
          ]
        },
        "code": {
          "coding": [
            {
              "code": "315639002",
              "system": "http://snomed.info/sct",
              "display": "Initial patient assessment (procedure)"
            }
          ],
          "text": "Initial patient assessment"
        },
        "status": "completed",
        "subject": {
          "reference": "Patient/bf97ca10-b158-4fcc-b185-0642248b3ea1",
          "display": "Elizabeth Hyam"
        },
        "performedDateTime": "2023-05-15"
      }
    },
    {
      "fullUrl": "urn:uuid:7ff25ccc-b36b-410f-8af0-ee91e4429886",
      "resource": {
        "resourceType": "Procedure",
        "id": "7ff25ccc-b36b-410f-8af0-ee91e4429886",
        "meta": {
          "profile": [
            "http://hl7.org/fhir/uv/ips/StructureDefinition/Procedure-uv-ips"
          ]
        },
        "code": {
          "coding": [
            {
              "code": "370789001",
              "system": "http://snomed.info/sct",
              "display": "Development of individualized plan of care (procedure)"
            }
          ],
          "text": "Development of individualized plan of care"
        },
        "status": "completed",
        "subject": {
          "reference": "Patient/bf97ca10-b158-4fcc-b185-0642248b3ea1",
          "display": "Elizabeth Hyam"
        },
        "performedDateTime": "2023-05-15"
      }
    },
    {
      "fullUrl": "urn:uuid:09e54b8a-4b3d-4d56-a093-b7c556557809",
      "resource": {
        "resourceType": "Procedure",
        "id": "09e54b8a-4b3d-4d56-a093-b7c556557809",
        "meta": {
          "profile": [
            "http://hl7.org/fhir/uv/ips/StructureDefinition/Procedure-uv-ips"
          ]
        },
        "code": {
          "coding": [
            {
              "code": "392091000",
              "system": "http://snomed.info/sct",
              "display": "Care regimes assessment (procedure)"
            }
          ],
          "text": "Care regimes assessment"
        },
        "status": "completed",
        "subject": {
          "reference": "Patient/bf97ca10-b158-4fcc-b185-0642248b3ea1",
          "display": "Elizabeth Hyam"
        },
        "performedDateTime": "2022-12-17"
      }
    },
    {
      "fullUrl": "urn:uuid:ce8c468c-e06c-4a78-a287-f2289e24a246",
      "resource": {
        "resourceType": "Procedure",
        "id": "ce8c468c-e06c-4a78-a287-f2289e24a246",
        "meta": {
          "profile": [
            "http://hl7.org/fhir/uv/ips/StructureDefinition/Procedure-uv-ips"
          ]
        },
        "code": {
          "coding": [
            {
              "code": "84478008",
              "system": "http://snomed.info/sct",
              "display": "Occupational therapy (regime/therapy)"
            }
          ],
          "text": "Occupational therapy"
        },
        "status": "completed",
        "subject": {
          "reference": "Patient/bf97ca10-b158-4fcc-b185-0642248b3ea1",
          "display": "Elizabeth Hyam"
        },
        "performedDateTime": "2022-12-13"
      }
    },
    {
      "fullUrl": "urn:uuid:38b4ed6d-fa65-40cc-a4df-34d05234b080",
      "resource": {
        "resourceType": "Procedure",
        "id": "38b4ed6d-fa65-40cc-a4df-34d05234b080",
        "meta": {
          "profile": [
            "http://hl7.org/fhir/uv/ips/StructureDefinition/Procedure-uv-ips"
          ]
        },
        "code": {
          "coding": [
            {
              "code": "274474001",
              "system": "http://snomed.info/sct",
              "display": "Bone immobilization (procedure)"
            }
          ],
          "text": "Bone immobilization"
        },
        "reasonCode": [
          {
            "coding": [
              {
                "code": "16114001",
                "system": "http://snomed.info/sct",
                "display": "Fracture of ankle (disorder)"
              }
            ]
          }
        ],
        "status": "completed",
        "subject": {
          "reference": "Patient/bf97ca10-b158-4fcc-b185-0642248b3ea1",
          "display": "Elizabeth Hyam"
        },
        "performedDateTime": "2022-12-06"
      }
    },
    {
      "fullUrl": "urn:uuid:64fd0934-5561-469b-a558-1d2493e9751d",
      "resource": {
        "resourceType": "Procedure",
        "id": "64fd0934-5561-469b-a558-1d2493e9751d",
        "meta": {
          "profile": [
            "http://hl7.org/fhir/uv/ips/StructureDefinition/Procedure-uv-ips"
          ]
        },
        "code": {
          "coding": [
            {
              "code": "1290459008",
              "system": "http://snomed.info/sct",
              "display": "Plain X-ray of ankle region (procedure)"
            }
          ],
          "text": "Plain X-ray of ankle region"
        },
        "status": "completed",
        "subject": {
          "reference": "Patient/bf97ca10-b158-4fcc-b185-0642248b3ea1",
          "display": "Elizabeth Hyam"
        },
        "performedDateTime": "2022-12-06"
      }
    },
    {
      "fullUrl": "urn:uuid:c80bd26e-fae9-4a47-bbf7-c86fbdda7990",
      "resource": {
        "resourceType": "Procedure",
        "id": "c80bd26e-fae9-4a47-bbf7-c86fbdda7990",
        "meta": {
          "profile": [
            "http://hl7.org/fhir/uv/ips/StructureDefinition/Procedure-uv-ips"
          ]
        },
        "code": {
          "coding": [
            {
              "code": "311555007",
              "system": "http://snomed.info/sct",
              "display": "Speech and language therapy regime (regime/therapy)"
            }
          ],
          "text": "Speech and language therapy regime"
        },
        "status": "completed",
        "subject": {
          "reference": "Patient/bf97ca10-b158-4fcc-b185-0642248b3ea1",
          "display": "Elizabeth Hyam"
        },
        "performedDateTime": "2020-10-12"
      }
    },
    {
      "fullUrl": "urn:uuid:2ed2129a-181a-4956-98e2-7af562b6e2da",
      "resource": {
        "resourceType": "Procedure",
        "id": "2ed2129a-181a-4956-98e2-7af562b6e2da",
        "meta": {
          "profile": [
            "http://hl7.org/fhir/uv/ips/StructureDefinition/Procedure-uv-ips"
          ]
        },
        "code": {
          "coding": [
            {
              "code": "305428000",
              "system": "http://snomed.info/sct",
              "display": "Admission to orthopedic department (procedure)"
            }
          ],
          "text": "Admission to orthopedic department"
        },
        "reasonCode": [
          {
            "coding": [
              {
                "code": "359817006",
                "system": "http://snomed.info/sct",
                "display": "Closed fracture of hip (disorder)"
              }
            ]
          }
        ],
        "status": "completed",
        "subject": {
          "reference": "Patient/bf97ca10-b158-4fcc-b185-0642248b3ea1",
          "display": "Elizabeth Hyam"
        },
        "performedDateTime": "2019-05-22"
      }
    },
    {
      "fullUrl": "urn:uuid:0cc2dc29-c482-4bec-8437-948d9b90984d",
      "resource": {
        "resourceType": "Procedure",
        "id": "0cc2dc29-c482-4bec-8437-948d9b90984d",
        "meta": {
          "profile": [
            "http://hl7.org/fhir/uv/ips/StructureDefinition/Procedure-uv-ips"
          ]
        },
        "code": {
          "coding": [
            {
              "code": "713021002",
              "system": "http://snomed.info/sct",
              "display": "Plain X-ray of pelvis (procedure)"
            }
          ],
          "text": "Plain X-ray of pelvis"
        },
        "status": "completed",
        "subject": {
          "reference": "Patient/bf97ca10-b158-4fcc-b185-0642248b3ea1",
          "display": "Elizabeth Hyam"
        },
        "performedDateTime": "2019-05-22"
      }
    },
    {
      "fullUrl": "urn:uuid:27db799f-5f37-4f22-a2db-6a66b2f05f40",
      "resource": {
        "resourceType": "Immunization",
        "id": "27db799f-5f37-4f22-a2db-6a66b2f05f40",
        "meta": {
          "profile": [
            "http://hl7.org/fhir/uv/ips/StructureDefinition/Immunization-uv-ips"
          ]
        },
        "vaccineCode": {
          "coding": [
            {
              "code": "1181000221105",
              "system": "http://snomed.info/sct",
              "display": "Vaccine product containing Influenza virus antigen"
            },
            {
              "code": "J07BB02",
              "system": "http://www.whocc.no/atc",
              "display": "Influenza, inactivated, split virus"
            },
            {
              "code": "140",
              "system": "http://hl7.org/fhir/sid/cvx",
              "display": "Influenza  seasonal  injectable  preservative free"
            }
          ],
          "text": "Influenza virus antigen only vaccine product"
        },
        "site": {
          "coding": [
            {
              "code": "73776007",
              "system": "http://snomed.info/sct",
              "display": "Structure of muscle of upper arm"
            }
          ],
          "text": "Structure of muscle of upper arm"
        },
        "route": {
          "coding": [
            {
              "code": "78421000",
              "system": "http://snomed.info/sct",
              "display": "Intramuscular route"
            }
          ],
          "text": "Intramuscular route"
        },
        "status": "completed",
        "patient": {
          "reference": "Patient/bf97ca10-b158-4fcc-b185-0642248b3ea1",
          "display": "Elizabeth Hyam"
        },
        "occurrenceDateTime": "2024-10-07",
        "lotNumber": "ME-DIaZVQ",
        "expirationDate": "2025-05-14"
      }
    },
    {
      "fullUrl": "urn:uuid:bb23bf8c-697d-4250-9ff7-2dc52c00cff0",
      "resource": {
        "resourceType": "Immunization",
        "id": "bb23bf8c-697d-4250-9ff7-2dc52c00cff0",
        "meta": {
          "profile": [
            "http://hl7.org/fhir/uv/ips/StructureDefinition/Immunization-uv-ips"
          ]
        },
        "vaccineCode": {
          "coding": [
            {
              "code": "1119349007",
              "system": "http://snomed.info/sct",
              "display": "Vaccine product containing SARS-CoV-2 mRNA"
            },
            {
              "code": "J07BX03",
              "system": "http://www.whocc.no/atc",
              "display": "COVID-19 mRNA vaccines"
            },
            {
              "code": "208",
              "system": "http://hl7.org/fhir/sid/cvx",
              "display": "COVID-19  mRNA  LNP-S  PF  30 mcg/0.3 mL dose"
            }
          ],
          "text": "SARS-CoV-2 mRNA vaccine"
        },
        "site": {
          "coding": [
            {
              "code": "73776007",
              "system": "http://snomed.info/sct",
              "display": "Structure of muscle of upper arm"
            }
          ],
          "text": "Structure of muscle of upper arm"
        },
        "route": {
          "coding": [
            {
              "code": "78421000",
              "system": "http://snomed.info/sct",
              "display": "Intramuscular route"
            }
          ],
          "text": "Intramuscular route"
        },
        "status": "completed",
        "patient": {
          "reference": "Patient/bf97ca10-b158-4fcc-b185-0642248b3ea1",
          "display": "Elizabeth Hyam"
        },
        "occurrenceDateTime": "2021-06-21",
        "lotNumber": "QZ-Tl5teCKUp",
        "expirationDate": "2021-12-19"
      }
    },
    {
      "fullUrl": "urn:uuid:3c9419f0-6f79-448b-b2f6-370e13223273",
      "resource": {
        "resourceType": "Immunization",
        "id": "3c9419f0-6f79-448b-b2f6-370e13223273",
        "meta": {
          "profile": [
            "http://hl7.org/fhir/uv/ips/StructureDefinition/Immunization-uv-ips"
          ]
        },
        "vaccineCode": {
          "coding": [
            {
              "code": "777725002",
              "system": "http://snomed.info/sct",
              "display": "Vaccine product containing only Clostridium tetani toxoid antigen adsorbed"
            },
            {
              "code": "J07AM51",
              "system": "http://www.whocc.no/atc",
              "display": "Diphtheria-tetanus vaccines, adult type"
            },
            {
              "code": "113",
              "system": "http://hl7.org/fhir/sid/cvx",
              "display": "Td (adult)  5 Lf tetanus toxoid  preservative free  adsorbed"
            }
          ],
          "text": "Clostridium tetani toxoid antigen adsorbed only vaccine product"
        },
        "site": {
          "coding": [
            {
              "code": "73776007",
              "system": "http://snomed.info/sct",
              "display": "Structure of muscle of upper arm"
            }
          ],
          "text": "Structure of muscle of upper arm"
        },
        "route": {
          "coding": [
            {
              "code": "78421000",
              "system": "http://snomed.info/sct",
              "display": "Intramuscular route"
            }
          ],
          "text": "Intramuscular route"
        },
        "status": "completed",
        "patient": {
          "reference": "Patient/bf97ca10-b158-4fcc-b185-0642248b3ea1",
          "display": "Elizabeth Hyam"
        },
        "occurrenceDateTime": "2019-09-09",
        "lotNumber": "EL-amUjFRW0",
        "expirationDate": "2020-06-18"
      }
    }
  ],
  "type": "document",
  "timestamp": "2025-06-16T17:28:57Z"
}
