{
  "resourceType": "Bundle",
  "id": "Instance-Bundle-f8dd10f9-d77e-4c0d-a02f-8fb62549e6f3",
  "meta": {
    "profile": [
      "http://hl7.eu/fhir/eps/StructureDefinition/bundle-eu-eps"
    ]
  },
  "identifier": {
    "assigner": {
      "display": "HL7 Europe"
    },
    "system": "urn:oid:2.16.840.1.113883.2.51.999",
    "value": "0720f5e9-7525-4cc0-8cdf-6f33a7d1a984"
  },
  "entry": [
    {
      "fullUrl": "urn:uuid:0431ddd4-afa4-449f-a9d9-bdbc3b8a5ac9",
      "resource": {
        "resourceType": "Composition",
        "id": "0431ddd4-afa4-449f-a9d9-bdbc3b8a5ac9",
        "meta": {
          "profile": [
            "http://hl7.eu/fhir/eps/StructureDefinition/composition-eu-eps"
          ]
        },
        "identifier": {
          "assigner": {
            "display": "HL7 Europe"
          },
          "system": "urn:oid:2.16.840.1.113883.2.51.999",
          "value": "5d9453b1-8f2c-4915-8db7-79268cdddfea"
        },
        "type": {
          "coding": [
            {
              "system": "http://loinc.org",
              "code": "60591-5",
              "display": "European Patient Summary"
            }
          ],
          "text": "European Patient Summary"
        },
        "author": [
          {
            "reference": "urn:uuid:5254b091-f93b-4b9b-b77a-25a5f21a2356"
          }
        ],
        "section": [
          {
            "text": {
              "status": "generated",
              "div": "<div xmlns=\"http://www.w3.org/1999/xhtml\"><table class=\"hl7__ips\"><tr><th>Condition</th><th>Onset Date</th><th>Status</th></tr><tr><td>Alzheimer's disease</td><td><span class=\"nb\">2021-04-16</span></td><td>active</td></tr><tr><td>Chronic sinusitis</td><td><span class=\"nb\">2010-06-18</span></td><td>active</td></tr><tr><td>Gout</td><td><span class=\"nb\">2009-12-24</span></td><td>active</td></tr><tr><td>Loss of teeth</td><td><span class=\"nb\">2009-02-27</span></td><td>active</td></tr><tr><td>Hyperlipidemia</td><td><span class=\"nb\">2007-01-05</span></td><td>active</td></tr><tr><td>Bleeding from anus</td><td><span class=\"nb\">2001-03-15</span></td><td>active</td></tr><tr><td>Ischemic heart disease</td><td><span class=\"nb\">1998-11-20</span></td><td>active</td></tr><tr><td>Dependent drug abuse</td><td><span class=\"nb\">1994-05-24</span></td><td>active</td></tr><tr><td>Impacted molars</td><td><span class=\"nb\">1990-05-10</span></td><td>active</td></tr><tr><td>Chronic intractable migraine without aura</td><td><span class=\"nb\">1990-03-20</span></td><td>active</td></tr><tr><td>Anemia</td><td><span class=\"nb\">1978-01-06</span></td><td>active</td></tr><tr><td><span class=\"grayedout\">Gingival disease</span></td><td><span class=\"nb\">2024-12-13</span></td><td><span class=\"grayedout\">inactive</span></td></tr><tr><td><span class=\"grayedout\">Gingivitis</span></td><td><span class=\"nb\">2024-11-29</span></td><td><span class=\"grayedout\">inactive</span></td></tr><tr><td><span class=\"grayedout\">Gingivitis</span></td><td><span class=\"nb\">2024-05-03</span></td><td><span class=\"grayedout\">inactive</span></td></tr><tr><td><span class=\"grayedout\">Gingivitis</span></td><td><span class=\"nb\">2024-01-05</span></td><td><span class=\"grayedout\">inactive</span></td></tr><tr><td><span class=\"grayedout\">Gingivitis</span></td><td><span class=\"nb\">2023-06-23</span></td><td><span class=\"grayedout\">inactive</span></td></tr><tr><td><span class=\"grayedout\">Gingival disease</span></td><td><span class=\"nb\">2022-03-26</span></td><td><span class=\"grayedout\">inactive</span></td></tr><tr><td><span class=\"grayedout\">Gingivitis</span></td><td><span class=\"nb\">2021-09-24</span></td><td><span class=\"grayedout\">inactive</span></td></tr><tr><td><span class=\"grayedout\">Gingivitis</span></td><td><span class=\"nb\">2019-04-05</span></td><td><span class=\"grayedout\">inactive</span></td></tr><tr><td><span class=\"grayedout\">Gingivitis</span></td><td><span class=\"nb\">2018-03-30</span></td><td><span class=\"grayedout\">inactive</span></td></tr><tr><td><span class=\"grayedout\">Laceration - injury</span></td><td><span class=\"nb\">2016-12-11</span></td><td><span class=\"grayedout\">inactive</span></td></tr><tr><td><span class=\"grayedout\">Facial laceration</span></td><td><span class=\"nb\">2016-12-11</span></td><td><span class=\"grayedout\">inactive</span></td></tr><tr><td><span class=\"grayedout\">Overdose</span></td><td><span class=\"nb\">2015-09-26</span></td><td><span class=\"grayedout\">inactive</span></td></tr></table></div>"
            },
            "entry": [
              {
                "reference": "urn:uuid:9402af75-84bb-41ee-b36c-bebd676ff9bf"
              },
              {
                "reference": "urn:uuid:d0edbf3c-c5dc-48b7-8e7d-ea748b75a03d"
              },
              {
                "reference": "urn:uuid:0a6ca7f4-6f0a-4f5f-a8e1-767456fbd1ac"
              },
              {
                "reference": "urn:uuid:341990e4-44ea-428b-af86-2b694ee1e4b5"
              },
              {
                "reference": "urn:uuid:62251b9c-3fef-42c3-8bb6-4ea74f898133"
              },
              {
                "reference": "urn:uuid:c5855354-9fbf-4120-8662-f0b161ad3a43"
              },
              {
                "reference": "urn:uuid:68c25593-a44f-48db-8d37-463c78b8751f"
              },
              {
                "reference": "urn:uuid:894541c2-0179-4aa0-83c9-081f1be21e3a"
              },
              {
                "reference": "urn:uuid:d586347f-d0e3-4698-89a5-6d6b2d3dde74"
              },
              {
                "reference": "urn:uuid:f67def61-d51e-429a-b7cb-5b170567f405"
              },
              {
                "reference": "urn:uuid:a1ac90b6-9004-454e-a2a2-c3ff4d7f3ebd"
              },
              {
                "reference": "urn:uuid:45e58afd-ad8a-4ec2-9dfa-241e5f856b61"
              },
              {
                "reference": "urn:uuid:921af6dd-1b51-4dcc-be51-9c3bf2aa2d77"
              },
              {
                "reference": "urn:uuid:37eec2c8-cad8-4fdb-a413-2e652cbd8819"
              },
              {
                "reference": "urn:uuid:52ae3326-f54f-44df-80aa-aa39173c5620"
              },
              {
                "reference": "urn:uuid:a1ba928d-964a-44d3-8176-06b28a83b97d"
              },
              {
                "reference": "urn:uuid:7397e644-e510-4eb9-8ce9-3fb60bce8bda"
              },
              {
                "reference": "urn:uuid:5db412b9-09ef-41c2-871b-02638b2b550d"
              },
              {
                "reference": "urn:uuid:521e3cb8-4aac-4977-895d-bf4855aa0e46"
              },
              {
                "reference": "urn:uuid:f0c0d3b3-5c8d-44e6-9c11-bd2b52b2c62e"
              },
              {
                "reference": "urn:uuid:7c742401-6046-4e55-964f-a0aaf8638986"
              },
              {
                "reference": "urn:uuid:ca6528c1-bf02-40a8-9362-072abc560c4a"
              },
              {
                "reference": "urn:uuid:ad84775a-0c96-4e44-8651-c662cecb935b"
              }
            ],
            "code": {
              "coding": [
                {
                  "system": "http://loinc.org",
                  "code": "11450-4",
                  "display": "Problem list - Reported"
                }
              ]
            },
            "title": "Problem list"
          },
          {
            "text": {
              "status": "generated",
              "div": "<div xmlns=\"http://www.w3.org/1999/xhtml\"><table class=\"hl7__ips\"><tr><th>Medication</th><th>Since</th><th>Form</th><th>Dosage</th><th>Reason</th></tr><tr><td>Simvastatin 10 mg oral tablet</td><td><span class=\"nb\">2025-01-21</span></td><td>Oral tablet</td><td>1 tablet (10 mg) by mouth once daily</td><td>Hyperlipidemia (disorder)</td></tr><tr><td>Galantamine (as galantamine hydrobromide) 4 mg oral tablet</td><td><span class=\"nb\">2021-04-16</span></td><td>Oral tablet</td><td>1 tablet (4 mg) orally twice daily</td><td>Alzheimer's disease (disorder)</td></tr><tr><td>Clopidogrel (as clopidogrel bisulfate) 75 mg oral tablet</td><td><span class=\"nb\">1998-11-27</span></td><td>Oral tablet</td><td>1 tablet (75 mg) by mouth once daily</td><td></td></tr><tr><td>Simvastatin 20 mg oral tablet</td><td><span class=\"nb\">1998-11-27</span></td><td>Oral tablet</td><td>1 tablet (20 mg) by mouth once daily</td><td></td></tr><tr><td>Nitroglycerin 400 microgram/actuation sublingual spray</td><td><span class=\"nb\">1998-11-27</span></td><td>Sublingual spray</td><td>1 spray (400 micrograms) under the tongue as needed for chest pain, may repeat every 5 minutes as needed, up to 3 sprays in 15 minutes</td><td></td></tr><tr><td>Metoprolol tartrate (as metoprolol succinate) 100 mg prolonged-release oral tablet</td><td><span class=\"nb\">1998-11-27</span></td><td>Prolonged-release oral tablet</td><td>1 tablet (100 mg) once daily</td><td></td></tr></table></div>"
            },
            "entry": [
              {
                "reference": "urn:uuid:85e4e673-b182-45f2-84bb-da73c98f0ff9"
              },
              {
                "reference": "urn:uuid:d31f7f44-dea3-4e82-a796-217d8c09c7c6"
              },
              {
                "reference": "urn:uuid:f8e9be13-5418-474a-a68d-cf389347152d"
              },
              {
                "reference": "urn:uuid:83c0669f-8450-49c7-9bf3-0853dff7c2cf"
              },
              {
                "reference": "urn:uuid:9b3bb7f3-06b8-4a93-8a88-20fd35d03be9"
              },
              {
                "reference": "urn:uuid:48aaffbf-a64e-4e20-9e05-12e828f5202c"
              }
            ],
            "code": {
              "coding": [
                {
                  "system": "http://loinc.org",
                  "code": "10160-0",
                  "display": "History of Medication use Narrative"
                }
              ]
            },
            "title": "Medication list"
          },
          {
            "text": {
              "status": "generated",
              "div": "<div xmlns=\"http://www.w3.org/1999/xhtml\"><table class=\"hl7__ips\"><tr><td>No known allergies or intolerances</td></tr></table></div>"
            },
            "entry": [
              {
                "reference": "urn:uuid:18023b62-cc04-4d1a-be9a-90d4e41ef88a"
              }
            ],
            "code": {
              "coding": [
                {
                  "system": "http://loinc.org",
                  "code": "48765-2",
                  "display": "Allergies and adverse reactions Document"
                }
              ]
            },
            "title": "Allergies and Intolerances"
          },
          {
            "text": {
              "status": "generated",
              "div": "<div xmlns=\"http://www.w3.org/1999/xhtml\"><table class=\"hl7__ips\"><tr><th>Procedure</th><th>Date</th><th>Reason</th></tr><tr><td>Patient referral for dental care</td><td><span class=\"nb\">2021-09-24</span></td><td>Gingivitis (disorder)</td></tr><tr><td>Depression screening</td><td><span class=\"nb\">2021-09-24</span></td><td>-</td></tr><tr><td>Medication reconciliation</td><td><span class=\"nb\">2021-09-24</span></td><td>-</td></tr><tr><td>Assessment of health and social care needs</td><td><span class=\"nb\">2021-09-24</span></td><td>-</td></tr><tr><td>Assessment of anxiety</td><td><span class=\"nb\">2021-09-24</span></td><td>-</td></tr><tr><td>Assessment using Morse Fall Scale</td><td><span class=\"nb\">2021-09-24</span></td><td>-</td></tr><tr><td>Patient discharge</td><td><span class=\"nb\">2018-11-09</span></td><td>-</td></tr><tr><td>Hospice care</td><td><span class=\"nb\">2018-11-08</span></td><td>-</td></tr><tr><td>Notifications</td><td><span class=\"nb\">2018-10-26</span></td><td>-</td></tr><tr><td>Certification procedure</td><td><span class=\"nb\">2018-10-26</span></td><td>-</td></tr><tr><td>Initial patient assessment</td><td><span class=\"nb\">2018-10-26</span></td><td>-</td></tr><tr><td>Development of individualized plan of care</td><td><span class=\"nb\">2018-10-26</span></td><td>-</td></tr><tr><td>Suture open wound</td><td><span class=\"nb\">2016-12-11</span></td><td>Facial laceration (disorder)</td></tr></table></div>"
            },
            "entry": [
              {
                "reference": "urn:uuid:065890bd-cc00-44e9-9c68-daf803518632"
              },
              {
                "reference": "urn:uuid:d97db708-16eb-410b-bda3-533bb1eb670e"
              },
              {
                "reference": "urn:uuid:2a1c74ac-2d68-4475-9735-fd00be854cb6"
              },
              {
                "reference": "urn:uuid:ec2d9d50-691d-44e6-8fb3-70b84f5a0570"
              },
              {
                "reference": "urn:uuid:a733c032-5470-47bc-bb7e-dfafc1d88845"
              },
              {
                "reference": "urn:uuid:9aac0fe0-c974-4417-bdf4-db6b9eedb573"
              },
              {
                "reference": "urn:uuid:63018927-db5e-4c94-842b-b062fb2bb1a4"
              },
              {
                "reference": "urn:uuid:242dda9d-a5ee-4327-be4b-5223582234be"
              },
              {
                "reference": "urn:uuid:fc16d3a1-78c7-4c76-aa69-e7f2819ee132"
              },
              {
                "reference": "urn:uuid:b6920648-1b2c-4b60-a545-6f118fa496d3"
              },
              {
                "reference": "urn:uuid:158fd37c-7f4e-4e67-bdcd-f2495946abb7"
              },
              {
                "reference": "urn:uuid:22761d2f-a7f5-46bc-b17e-c8d5fa383151"
              },
              {
                "reference": "urn:uuid:18864ed4-085c-43db-9ca6-a47639991653"
              }
            ],
            "code": {
              "coding": [
                {
                  "system": "http://loinc.org",
                  "code": "47519-4",
                  "display": "History of Procedures Document"
                }
              ]
            },
            "title": "Procedure History list"
          },
          {
            "text": {
              "status": "generated",
              "div": "<div xmlns=\"http://www.w3.org/1999/xhtml\"><table class=\"hl7__ips\"><tr><th>Vaccine</th><th>Date</th></tr><tr><td>Clostridium tetani toxoid antigen adsorbed only vaccine product</td><td><span class=\"nb\">2024-11-29</span></td></tr><tr><td>Influenza virus antigen only vaccine product</td><td><span class=\"nb\">2024-05-03</span></td></tr><tr><td>SARS-CoV-2 mRNA vaccine</td><td><span class=\"nb\">2021-02-19</span></td></tr></table></div>"
            },
            "entry": [
              {
                "reference": "urn:uuid:6d457d39-0f33-4dbf-b505-15f7647d8f70"
              },
              {
                "reference": "urn:uuid:726b2b7a-7616-4679-b70c-ba6c57f6cfdd"
              },
              {
                "reference": "urn:uuid:0bf127b8-875c-4d10-9762-7e938732deb7"
              }
            ],
            "code": {
              "coding": [
                {
                  "system": "http://loinc.org",
                  "code": "11369-6",
                  "display": "History of Immunization Narrative"
                }
              ]
            },
            "title": "Immunizations list"
          }
        ],
        "title": "European Patient Summary",
        "status": "final",
        "subject": {
          "reference": "urn:uuid:0eb94b08-4fa2-429b-b3a4-0c73546f53eb"
        },
        "custodian": {
          "reference": "urn:uuid:a18be8bf-cd4f-4997-ac8f-99e4634dbdfa"
        },
        "date": "2025-06-17T11:26:49Z",
        "confidentiality": "N"
      }
    },
    {
      "fullUrl": "urn:uuid:0eb94b08-4fa2-429b-b3a4-0c73546f53eb",
      "resource": {
        "resourceType": "Patient",
        "id": "0eb94b08-4fa2-429b-b3a4-0c73546f53eb",
        "meta": {
          "profile": [
            "http://hl7.eu/fhir/eps/StructureDefinition/patient-eu-eps"
          ]
        },
        "identifier": [
          {
            "type": {
              "coding": [
                {
                  "code": "NI",
                  "system": "http://terminology.hl7.org/CodeSystem/v2-0203"
                }
              ]
            },
            "system": "http://ec.europa.eu/identifier/eci",
            "value": "8212-076428-5"
          },
          {
            "type": {
              "coding": [
                {
                  "code": "MR",
                  "system": "http://terminology.hl7.org/CodeSystem/v2-0203"
                }
              ]
            },
            "system": "http://local.setting.eu/identifier",
            "value": "ecb49d9e-4eb1-4743-237d-d8020ecd4f86"
          }
        ],
        "name": [
          {
            "given": [
              "Ida"
            ],
            "family": "Brommer",
            "text": "Ida Brommer"
          }
        ],
        "address": [
          {
            "line": [
              "Jacob van Ruysdaelstraat 100"
            ],
            "use": "home",
            "type": "physical",
            "city": "Waalwijk",
            "postalCode": "5143 GM",
            "country": "Netherlands"
          }
        ],
        "telecom": [
          {
            "system": "phone",
            "value": "+31 06-39307468"
          }
        ],
        "gender": "female",
        "birthDate": "1944-04-22"
      }
    },
    {
      "fullUrl": "urn:uuid:5254b091-f93b-4b9b-b77a-25a5f21a2356",
      "resource": {
        "resourceType": "PractitionerRole",
        "id": "5254b091-f93b-4b9b-b77a-25a5f21a2356",
        "meta": {
          "profile": [
            "http://hl7.eu/fhir/base/StructureDefinition/practitionerRole-eu"
          ]
        },
        "practitioner": {
          "reference": "urn:uuid:d9ec6e08-dde5-4bf5-9b92-36e9951198a5"
        },
        "organization": {
          "reference": "urn:uuid:a18be8bf-cd4f-4997-ac8f-99e4634dbdfa"
        }
      }
    },
    {
      "fullUrl": "urn:uuid:d9ec6e08-dde5-4bf5-9b92-36e9951198a5",
      "resource": {
        "resourceType": "Practitioner",
        "id": "d9ec6e08-dde5-4bf5-9b92-36e9951198a5",
        "meta": {
          "profile": [
            "http://hl7.eu/fhir/base/StructureDefinition/practitioner-eu"
          ]
        },
        "name": [
          {
            "prefix": [
              "Dr."
            ],
            "given": [
              "Hel"
            ],
            "family": "Ping"
          }
        ]
      }
    },
    {
      "fullUrl": "urn:uuid:9402af75-84bb-41ee-b36c-bebd676ff9bf",
      "resource": {
        "resourceType": "Condition",
        "id": "9402af75-84bb-41ee-b36c-bebd676ff9bf",
        "meta": {
          "profile": [
            "http://hl7.org/fhir/uv/ips/StructureDefinition/Condition-uv-ips"
          ]
        },
        "category": [
          {
            "coding": [
              {
                "code": "problem-list-item",
                "system": "http://terminology.hl7.org/CodeSystem/condition-category",
                "display": "Problem List Item"
              }
            ]
          }
        ],
        "code": {
          "coding": [
            {
              "code": "26929004",
              "system": "http://snomed.info/sct",
              "display": "Alzheimer's disease (disorder)"
            }
          ],
          "text": "Alzheimer's disease"
        },
        "onsetDateTime": "2021-04-16",
        "clinicalStatus": {
          "coding": [
            {
              "code": "active",
              "system": "http://terminology.hl7.org/CodeSystem/condition-clinical"
            }
          ]
        },
        "subject": {
          "reference": "Patient/0eb94b08-4fa2-429b-b3a4-0c73546f53eb",
          "display": "Ida Brommer"
        },
        "asserter": {
          "reference": "Practitioner/d9ec6e08-dde5-4bf5-9b92-36e9951198a5",
          "display": "Dr. Hel Ping"
        }
      }
    },
    {
      "fullUrl": "urn:uuid:d0edbf3c-c5dc-48b7-8e7d-ea748b75a03d",
      "resource": {
        "resourceType": "Condition",
        "id": "d0edbf3c-c5dc-48b7-8e7d-ea748b75a03d",
        "meta": {
          "profile": [
            "http://hl7.org/fhir/uv/ips/StructureDefinition/Condition-uv-ips"
          ]
        },
        "category": [
          {
            "coding": [
              {
                "code": "problem-list-item",
                "system": "http://terminology.hl7.org/CodeSystem/condition-category",
                "display": "Problem List Item"
              }
            ]
          }
        ],
        "code": {
          "coding": [
            {
              "code": "40055000",
              "system": "http://snomed.info/sct",
              "display": "Chronic sinusitis (disorder)"
            }
          ],
          "text": "Chronic sinusitis"
        },
        "onsetDateTime": "2010-06-18",
        "clinicalStatus": {
          "coding": [
            {
              "code": "active",
              "system": "http://terminology.hl7.org/CodeSystem/condition-clinical"
            }
          ]
        },
        "subject": {
          "reference": "Patient/0eb94b08-4fa2-429b-b3a4-0c73546f53eb",
          "display": "Ida Brommer"
        },
        "asserter": {
          "reference": "Practitioner/d9ec6e08-dde5-4bf5-9b92-36e9951198a5",
          "display": "Dr. Hel Ping"
        }
      }
    },
    {
      "fullUrl": "urn:uuid:0a6ca7f4-6f0a-4f5f-a8e1-767456fbd1ac",
      "resource": {
        "resourceType": "Condition",
        "id": "0a6ca7f4-6f0a-4f5f-a8e1-767456fbd1ac",
        "meta": {
          "profile": [
            "http://hl7.org/fhir/uv/ips/StructureDefinition/Condition-uv-ips"
          ]
        },
        "category": [
          {
            "coding": [
              {
                "code": "problem-list-item",
                "system": "http://terminology.hl7.org/CodeSystem/condition-category",
                "display": "Problem List Item"
              }
            ]
          }
        ],
        "code": {
          "coding": [
            {
              "code": "90560007",
              "system": "http://snomed.info/sct",
              "display": "Inflammatory disorder due to increased blood urate level (disorder)"
            }
          ],
          "text": "Gout"
        },
        "onsetDateTime": "2009-12-24",
        "clinicalStatus": {
          "coding": [
            {
              "code": "active",
              "system": "http://terminology.hl7.org/CodeSystem/condition-clinical"
            }
          ]
        },
        "subject": {
          "reference": "Patient/0eb94b08-4fa2-429b-b3a4-0c73546f53eb",
          "display": "Ida Brommer"
        },
        "asserter": {
          "reference": "Practitioner/d9ec6e08-dde5-4bf5-9b92-36e9951198a5",
          "display": "Dr. Hel Ping"
        }
      }
    },
    {
      "fullUrl": "urn:uuid:341990e4-44ea-428b-af86-2b694ee1e4b5",
      "resource": {
        "resourceType": "Condition",
        "id": "341990e4-44ea-428b-af86-2b694ee1e4b5",
        "meta": {
          "profile": [
            "http://hl7.org/fhir/uv/ips/StructureDefinition/Condition-uv-ips"
          ]
        },
        "category": [
          {
            "coding": [
              {
                "code": "problem-list-item",
                "system": "http://terminology.hl7.org/CodeSystem/condition-category",
                "display": "Problem List Item"
              }
            ]
          }
        ],
        "code": {
          "coding": [
            {
              "code": "37320007",
              "system": "http://snomed.info/sct",
              "display": "Loss of teeth (disorder)"
            }
          ],
          "text": "Loss of teeth"
        },
        "onsetDateTime": "2009-02-27",
        "clinicalStatus": {
          "coding": [
            {
              "code": "active",
              "system": "http://terminology.hl7.org/CodeSystem/condition-clinical"
            }
          ]
        },
        "subject": {
          "reference": "Patient/0eb94b08-4fa2-429b-b3a4-0c73546f53eb",
          "display": "Ida Brommer"
        },
        "asserter": {
          "reference": "Practitioner/d9ec6e08-dde5-4bf5-9b92-36e9951198a5",
          "display": "Dr. Hel Ping"
        }
      }
    },
    {
      "fullUrl": "urn:uuid:62251b9c-3fef-42c3-8bb6-4ea74f898133",
      "resource": {
        "resourceType": "Condition",
        "id": "62251b9c-3fef-42c3-8bb6-4ea74f898133",
        "meta": {
          "profile": [
            "http://hl7.org/fhir/uv/ips/StructureDefinition/Condition-uv-ips"
          ]
        },
        "category": [
          {
            "coding": [
              {
                "code": "problem-list-item",
                "system": "http://terminology.hl7.org/CodeSystem/condition-category",
                "display": "Problem List Item"
              }
            ]
          }
        ],
        "code": {
          "coding": [
            {
              "code": "55822004",
              "system": "http://snomed.info/sct",
              "display": "Hyperlipidemia (disorder)"
            }
          ],
          "text": "Hyperlipidemia"
        },
        "onsetDateTime": "2007-01-05",
        "clinicalStatus": {
          "coding": [
            {
              "code": "active",
              "system": "http://terminology.hl7.org/CodeSystem/condition-clinical"
            }
          ]
        },
        "subject": {
          "reference": "Patient/0eb94b08-4fa2-429b-b3a4-0c73546f53eb",
          "display": "Ida Brommer"
        },
        "asserter": {
          "reference": "Practitioner/d9ec6e08-dde5-4bf5-9b92-36e9951198a5",
          "display": "Dr. Hel Ping"
        }
      }
    },
    {
      "fullUrl": "urn:uuid:c5855354-9fbf-4120-8662-f0b161ad3a43",
      "resource": {
        "resourceType": "Condition",
        "id": "c5855354-9fbf-4120-8662-f0b161ad3a43",
        "meta": {
          "profile": [
            "http://hl7.org/fhir/uv/ips/StructureDefinition/Condition-uv-ips"
          ]
        },
        "category": [
          {
            "coding": [
              {
                "code": "problem-list-item",
                "system": "http://terminology.hl7.org/CodeSystem/condition-category",
                "display": "Problem List Item"
              }
            ]
          }
        ],
        "code": {
          "coding": [
            {
              "code": "6072007",
              "system": "http://snomed.info/sct",
              "display": "Bleeding from anus (disorder)"
            }
          ],
          "text": "Bleeding from anus"
        },
        "onsetDateTime": "2001-03-15",
        "clinicalStatus": {
          "coding": [
            {
              "code": "active",
              "system": "http://terminology.hl7.org/CodeSystem/condition-clinical"
            }
          ]
        },
        "subject": {
          "reference": "Patient/0eb94b08-4fa2-429b-b3a4-0c73546f53eb",
          "display": "Ida Brommer"
        },
        "asserter": {
          "reference": "Practitioner/d9ec6e08-dde5-4bf5-9b92-36e9951198a5",
          "display": "Dr. Hel Ping"
        }
      }
    },
    {
      "fullUrl": "urn:uuid:68c25593-a44f-48db-8d37-463c78b8751f",
      "resource": {
        "resourceType": "Condition",
        "id": "68c25593-a44f-48db-8d37-463c78b8751f",
        "meta": {
          "profile": [
            "http://hl7.org/fhir/uv/ips/StructureDefinition/Condition-uv-ips"
          ]
        },
        "category": [
          {
            "coding": [
              {
                "code": "problem-list-item",
                "system": "http://terminology.hl7.org/CodeSystem/condition-category",
                "display": "Problem List Item"
              }
            ]
          }
        ],
        "code": {
          "coding": [
            {
              "code": "414545008",
              "system": "http://snomed.info/sct",
              "display": "Ischemic heart disease (disorder)"
            }
          ],
          "text": "Ischemic heart disease"
        },
        "onsetDateTime": "1998-11-20",
        "clinicalStatus": {
          "coding": [
            {
              "code": "active",
              "system": "http://terminology.hl7.org/CodeSystem/condition-clinical"
            }
          ]
        },
        "subject": {
          "reference": "Patient/0eb94b08-4fa2-429b-b3a4-0c73546f53eb",
          "display": "Ida Brommer"
        },
        "asserter": {
          "reference": "Practitioner/d9ec6e08-dde5-4bf5-9b92-36e9951198a5",
          "display": "Dr. Hel Ping"
        }
      }
    },
    {
      "fullUrl": "urn:uuid:894541c2-0179-4aa0-83c9-081f1be21e3a",
      "resource": {
        "resourceType": "Condition",
        "id": "894541c2-0179-4aa0-83c9-081f1be21e3a",
        "meta": {
          "profile": [
            "http://hl7.org/fhir/uv/ips/StructureDefinition/Condition-uv-ips"
          ]
        },
        "category": [
          {
            "coding": [
              {
                "code": "problem-list-item",
                "system": "http://terminology.hl7.org/CodeSystem/condition-category",
                "display": "Problem List Item"
              }
            ]
          }
        ],
        "code": {
          "coding": [
            {
              "code": "6525002",
              "system": "http://snomed.info/sct",
              "display": "Dependent drug abuse (disorder)"
            }
          ],
          "text": "Dependent drug abuse"
        },
        "onsetDateTime": "1994-05-24",
        "clinicalStatus": {
          "coding": [
            {
              "code": "active",
              "system": "http://terminology.hl7.org/CodeSystem/condition-clinical"
            }
          ]
        },
        "subject": {
          "reference": "Patient/0eb94b08-4fa2-429b-b3a4-0c73546f53eb",
          "display": "Ida Brommer"
        },
        "asserter": {
          "reference": "Practitioner/d9ec6e08-dde5-4bf5-9b92-36e9951198a5",
          "display": "Dr. Hel Ping"
        }
      }
    },
    {
      "fullUrl": "urn:uuid:d586347f-d0e3-4698-89a5-6d6b2d3dde74",
      "resource": {
        "resourceType": "Condition",
        "id": "d586347f-d0e3-4698-89a5-6d6b2d3dde74",
        "meta": {
          "profile": [
            "http://hl7.org/fhir/uv/ips/StructureDefinition/Condition-uv-ips"
          ]
        },
        "category": [
          {
            "coding": [
              {
                "code": "problem-list-item",
                "system": "http://terminology.hl7.org/CodeSystem/condition-category",
                "display": "Problem List Item"
              }
            ]
          }
        ],
        "code": {
          "coding": [
            {
              "code": "196416002",
              "system": "http://snomed.info/sct",
              "display": "Impacted molars (disorder)"
            }
          ],
          "text": "Impacted molars"
        },
        "onsetDateTime": "1990-05-10",
        "clinicalStatus": {
          "coding": [
            {
              "code": "active",
              "system": "http://terminology.hl7.org/CodeSystem/condition-clinical"
            }
          ]
        },
        "subject": {
          "reference": "Patient/0eb94b08-4fa2-429b-b3a4-0c73546f53eb",
          "display": "Ida Brommer"
        },
        "asserter": {
          "reference": "Practitioner/d9ec6e08-dde5-4bf5-9b92-36e9951198a5",
          "display": "Dr. Hel Ping"
        }
      }
    },
    {
      "fullUrl": "urn:uuid:f67def61-d51e-429a-b7cb-5b170567f405",
      "resource": {
        "resourceType": "Condition",
        "id": "f67def61-d51e-429a-b7cb-5b170567f405",
        "meta": {
          "profile": [
            "http://hl7.org/fhir/uv/ips/StructureDefinition/Condition-uv-ips"
          ]
        },
        "category": [
          {
            "coding": [
              {
                "code": "problem-list-item",
                "system": "http://terminology.hl7.org/CodeSystem/condition-category",
                "display": "Problem List Item"
              }
            ]
          }
        ],
        "code": {
          "coding": [
            {
              "code": "124171000119105",
              "system": "http://snomed.info/sct",
              "display": "Chronic intractable migraine without aura (disorder)"
            }
          ],
          "text": "Chronic intractable migraine without aura"
        },
        "onsetDateTime": "1990-03-20",
        "clinicalStatus": {
          "coding": [
            {
              "code": "active",
              "system": "http://terminology.hl7.org/CodeSystem/condition-clinical"
            }
          ]
        },
        "subject": {
          "reference": "Patient/0eb94b08-4fa2-429b-b3a4-0c73546f53eb",
          "display": "Ida Brommer"
        },
        "asserter": {
          "reference": "Practitioner/d9ec6e08-dde5-4bf5-9b92-36e9951198a5",
          "display": "Dr. Hel Ping"
        }
      }
    },
    {
      "fullUrl": "urn:uuid:a1ac90b6-9004-454e-a2a2-c3ff4d7f3ebd",
      "resource": {
        "resourceType": "Condition",
        "id": "a1ac90b6-9004-454e-a2a2-c3ff4d7f3ebd",
        "meta": {
          "profile": [
            "http://hl7.org/fhir/uv/ips/StructureDefinition/Condition-uv-ips"
          ]
        },
        "category": [
          {
            "coding": [
              {
                "code": "problem-list-item",
                "system": "http://terminology.hl7.org/CodeSystem/condition-category",
                "display": "Problem List Item"
              }
            ]
          }
        ],
        "code": {
          "coding": [
            {
              "code": "271737000",
              "system": "http://snomed.info/sct",
              "display": "Anemia (disorder)"
            }
          ],
          "text": "Anemia"
        },
        "onsetDateTime": "1978-01-06",
        "clinicalStatus": {
          "coding": [
            {
              "code": "active",
              "system": "http://terminology.hl7.org/CodeSystem/condition-clinical"
            }
          ]
        },
        "subject": {
          "reference": "Patient/0eb94b08-4fa2-429b-b3a4-0c73546f53eb",
          "display": "Ida Brommer"
        },
        "asserter": {
          "reference": "Practitioner/d9ec6e08-dde5-4bf5-9b92-36e9951198a5",
          "display": "Dr. Hel Ping"
        }
      }
    },
    {
      "fullUrl": "urn:uuid:45e58afd-ad8a-4ec2-9dfa-241e5f856b61",
      "resource": {
        "resourceType": "Condition",
        "id": "45e58afd-ad8a-4ec2-9dfa-241e5f856b61",
        "meta": {
          "profile": [
            "http://hl7.org/fhir/uv/ips/StructureDefinition/Condition-uv-ips"
          ]
        },
        "category": [
          {
            "coding": [
              {
                "code": "problem-list-item",
                "system": "http://terminology.hl7.org/CodeSystem/condition-category",
                "display": "Problem List Item"
              }
            ]
          }
        ],
        "code": {
          "coding": [
            {
              "code": "18718003",
              "system": "http://snomed.info/sct",
              "display": "Gingival disease (disorder)"
            }
          ],
          "text": "Gingival disease"
        },
        "onsetDateTime": "2024-12-13",
        "clinicalStatus": {
          "coding": [
            {
              "code": "inactive",
              "system": "http://terminology.hl7.org/CodeSystem/condition-clinical"
            }
          ]
        },
        "subject": {
          "reference": "Patient/0eb94b08-4fa2-429b-b3a4-0c73546f53eb",
          "display": "Ida Brommer"
        },
        "asserter": {
          "reference": "Practitioner/d9ec6e08-dde5-4bf5-9b92-36e9951198a5",
          "display": "Dr. Hel Ping"
        }
      }
    },
    {
      "fullUrl": "urn:uuid:921af6dd-1b51-4dcc-be51-9c3bf2aa2d77",
      "resource": {
        "resourceType": "Condition",
        "id": "921af6dd-1b51-4dcc-be51-9c3bf2aa2d77",
        "meta": {
          "profile": [
            "http://hl7.org/fhir/uv/ips/StructureDefinition/Condition-uv-ips"
          ]
        },
        "category": [
          {
            "coding": [
              {
                "code": "problem-list-item",
                "system": "http://terminology.hl7.org/CodeSystem/condition-category",
                "display": "Problem List Item"
              }
            ]
          }
        ],
        "code": {
          "coding": [
            {
              "code": "66383009",
              "system": "http://snomed.info/sct",
              "display": "Gingivitis (disorder)"
            }
          ],
          "text": "Gingivitis"
        },
        "onsetDateTime": "2024-11-29",
        "clinicalStatus": {
          "coding": [
            {
              "code": "inactive",
              "system": "http://terminology.hl7.org/CodeSystem/condition-clinical"
            }
          ]
        },
        "subject": {
          "reference": "Patient/0eb94b08-4fa2-429b-b3a4-0c73546f53eb",
          "display": "Ida Brommer"
        },
        "asserter": {
          "reference": "Practitioner/d9ec6e08-dde5-4bf5-9b92-36e9951198a5",
          "display": "Dr. Hel Ping"
        }
      }
    },
    {
      "fullUrl": "urn:uuid:37eec2c8-cad8-4fdb-a413-2e652cbd8819",
      "resource": {
        "resourceType": "Condition",
        "id": "37eec2c8-cad8-4fdb-a413-2e652cbd8819",
        "meta": {
          "profile": [
            "http://hl7.org/fhir/uv/ips/StructureDefinition/Condition-uv-ips"
          ]
        },
        "category": [
          {
            "coding": [
              {
                "code": "problem-list-item",
                "system": "http://terminology.hl7.org/CodeSystem/condition-category",
                "display": "Problem List Item"
              }
            ]
          }
        ],
        "code": {
          "coding": [
            {
              "code": "66383009",
              "system": "http://snomed.info/sct",
              "display": "Gingivitis (disorder)"
            }
          ],
          "text": "Gingivitis"
        },
        "onsetDateTime": "2024-05-03",
        "clinicalStatus": {
          "coding": [
            {
              "code": "inactive",
              "system": "http://terminology.hl7.org/CodeSystem/condition-clinical"
            }
          ]
        },
        "subject": {
          "reference": "Patient/0eb94b08-4fa2-429b-b3a4-0c73546f53eb",
          "display": "Ida Brommer"
        },
        "asserter": {
          "reference": "Practitioner/d9ec6e08-dde5-4bf5-9b92-36e9951198a5",
          "display": "Dr. Hel Ping"
        }
      }
    },
    {
      "fullUrl": "urn:uuid:52ae3326-f54f-44df-80aa-aa39173c5620",
      "resource": {
        "resourceType": "Condition",
        "id": "52ae3326-f54f-44df-80aa-aa39173c5620",
        "meta": {
          "profile": [
            "http://hl7.org/fhir/uv/ips/StructureDefinition/Condition-uv-ips"
          ]
        },
        "category": [
          {
            "coding": [
              {
                "code": "problem-list-item",
                "system": "http://terminology.hl7.org/CodeSystem/condition-category",
                "display": "Problem List Item"
              }
            ]
          }
        ],
        "code": {
          "coding": [
            {
              "code": "66383009",
              "system": "http://snomed.info/sct",
              "display": "Gingivitis (disorder)"
            }
          ],
          "text": "Gingivitis"
        },
        "onsetDateTime": "2024-01-05",
        "clinicalStatus": {
          "coding": [
            {
              "code": "inactive",
              "system": "http://terminology.hl7.org/CodeSystem/condition-clinical"
            }
          ]
        },
        "subject": {
          "reference": "Patient/0eb94b08-4fa2-429b-b3a4-0c73546f53eb",
          "display": "Ida Brommer"
        },
        "asserter": {
          "reference": "Practitioner/d9ec6e08-dde5-4bf5-9b92-36e9951198a5",
          "display": "Dr. Hel Ping"
        }
      }
    },
    {
      "fullUrl": "urn:uuid:a1ba928d-964a-44d3-8176-06b28a83b97d",
      "resource": {
        "resourceType": "Condition",
        "id": "a1ba928d-964a-44d3-8176-06b28a83b97d",
        "meta": {
          "profile": [
            "http://hl7.org/fhir/uv/ips/StructureDefinition/Condition-uv-ips"
          ]
        },
        "category": [
          {
            "coding": [
              {
                "code": "problem-list-item",
                "system": "http://terminology.hl7.org/CodeSystem/condition-category",
                "display": "Problem List Item"
              }
            ]
          }
        ],
        "code": {
          "coding": [
            {
              "code": "66383009",
              "system": "http://snomed.info/sct",
              "display": "Gingivitis (disorder)"
            }
          ],
          "text": "Gingivitis"
        },
        "onsetDateTime": "2023-06-23",
        "clinicalStatus": {
          "coding": [
            {
              "code": "inactive",
              "system": "http://terminology.hl7.org/CodeSystem/condition-clinical"
            }
          ]
        },
        "subject": {
          "reference": "Patient/0eb94b08-4fa2-429b-b3a4-0c73546f53eb",
          "display": "Ida Brommer"
        },
        "asserter": {
          "reference": "Practitioner/d9ec6e08-dde5-4bf5-9b92-36e9951198a5",
          "display": "Dr. Hel Ping"
        }
      }
    },
    {
      "fullUrl": "urn:uuid:7397e644-e510-4eb9-8ce9-3fb60bce8bda",
      "resource": {
        "resourceType": "Condition",
        "id": "7397e644-e510-4eb9-8ce9-3fb60bce8bda",
        "meta": {
          "profile": [
            "http://hl7.org/fhir/uv/ips/StructureDefinition/Condition-uv-ips"
          ]
        },
        "category": [
          {
            "coding": [
              {
                "code": "problem-list-item",
                "system": "http://terminology.hl7.org/CodeSystem/condition-category",
                "display": "Problem List Item"
              }
            ]
          }
        ],
        "code": {
          "coding": [
            {
              "code": "18718003",
              "system": "http://snomed.info/sct",
              "display": "Gingival disease (disorder)"
            }
          ],
          "text": "Gingival disease"
        },
        "onsetDateTime": "2022-03-26",
        "clinicalStatus": {
          "coding": [
            {
              "code": "inactive",
              "system": "http://terminology.hl7.org/CodeSystem/condition-clinical"
            }
          ]
        },
        "subject": {
          "reference": "Patient/0eb94b08-4fa2-429b-b3a4-0c73546f53eb",
          "display": "Ida Brommer"
        },
        "asserter": {
          "reference": "Practitioner/d9ec6e08-dde5-4bf5-9b92-36e9951198a5",
          "display": "Dr. Hel Ping"
        }
      }
    },
    {
      "fullUrl": "urn:uuid:5db412b9-09ef-41c2-871b-02638b2b550d",
      "resource": {
        "resourceType": "Condition",
        "id": "5db412b9-09ef-41c2-871b-02638b2b550d",
        "meta": {
          "profile": [
            "http://hl7.org/fhir/uv/ips/StructureDefinition/Condition-uv-ips"
          ]
        },
        "category": [
          {
            "coding": [
              {
                "code": "problem-list-item",
                "system": "http://terminology.hl7.org/CodeSystem/condition-category",
                "display": "Problem List Item"
              }
            ]
          }
        ],
        "code": {
          "coding": [
            {
              "code": "66383009",
              "system": "http://snomed.info/sct",
              "display": "Gingivitis (disorder)"
            }
          ],
          "text": "Gingivitis"
        },
        "onsetDateTime": "2021-09-24",
        "clinicalStatus": {
          "coding": [
            {
              "code": "inactive",
              "system": "http://terminology.hl7.org/CodeSystem/condition-clinical"
            }
          ]
        },
        "subject": {
          "reference": "Patient/0eb94b08-4fa2-429b-b3a4-0c73546f53eb",
          "display": "Ida Brommer"
        },
        "asserter": {
          "reference": "Practitioner/d9ec6e08-dde5-4bf5-9b92-36e9951198a5",
          "display": "Dr. Hel Ping"
        }
      }
    },
    {
      "fullUrl": "urn:uuid:521e3cb8-4aac-4977-895d-bf4855aa0e46",
      "resource": {
        "resourceType": "Condition",
        "id": "521e3cb8-4aac-4977-895d-bf4855aa0e46",
        "meta": {
          "profile": [
            "http://hl7.org/fhir/uv/ips/StructureDefinition/Condition-uv-ips"
          ]
        },
        "category": [
          {
            "coding": [
              {
                "code": "problem-list-item",
                "system": "http://terminology.hl7.org/CodeSystem/condition-category",
                "display": "Problem List Item"
              }
            ]
          }
        ],
        "code": {
          "coding": [
            {
              "code": "66383009",
              "system": "http://snomed.info/sct",
              "display": "Gingivitis (disorder)"
            }
          ],
          "text": "Gingivitis"
        },
        "onsetDateTime": "2019-04-05",
        "clinicalStatus": {
          "coding": [
            {
              "code": "inactive",
              "system": "http://terminology.hl7.org/CodeSystem/condition-clinical"
            }
          ]
        },
        "subject": {
          "reference": "Patient/0eb94b08-4fa2-429b-b3a4-0c73546f53eb",
          "display": "Ida Brommer"
        },
        "asserter": {
          "reference": "Practitioner/d9ec6e08-dde5-4bf5-9b92-36e9951198a5",
          "display": "Dr. Hel Ping"
        }
      }
    },
    {
      "fullUrl": "urn:uuid:f0c0d3b3-5c8d-44e6-9c11-bd2b52b2c62e",
      "resource": {
        "resourceType": "Condition",
        "id": "f0c0d3b3-5c8d-44e6-9c11-bd2b52b2c62e",
        "meta": {
          "profile": [
            "http://hl7.org/fhir/uv/ips/StructureDefinition/Condition-uv-ips"
          ]
        },
        "category": [
          {
            "coding": [
              {
                "code": "problem-list-item",
                "system": "http://terminology.hl7.org/CodeSystem/condition-category",
                "display": "Problem List Item"
              }
            ]
          }
        ],
        "code": {
          "coding": [
            {
              "code": "66383009",
              "system": "http://snomed.info/sct",
              "display": "Gingivitis (disorder)"
            }
          ],
          "text": "Gingivitis"
        },
        "onsetDateTime": "2018-03-30",
        "clinicalStatus": {
          "coding": [
            {
              "code": "inactive",
              "system": "http://terminology.hl7.org/CodeSystem/condition-clinical"
            }
          ]
        },
        "subject": {
          "reference": "Patient/0eb94b08-4fa2-429b-b3a4-0c73546f53eb",
          "display": "Ida Brommer"
        },
        "asserter": {
          "reference": "Practitioner/d9ec6e08-dde5-4bf5-9b92-36e9951198a5",
          "display": "Dr. Hel Ping"
        }
      }
    },
    {
      "fullUrl": "urn:uuid:7c742401-6046-4e55-964f-a0aaf8638986",
      "resource": {
        "resourceType": "Condition",
        "id": "7c742401-6046-4e55-964f-a0aaf8638986",
        "meta": {
          "profile": [
            "http://hl7.org/fhir/uv/ips/StructureDefinition/Condition-uv-ips"
          ]
        },
        "category": [
          {
            "coding": [
              {
                "code": "problem-list-item",
                "system": "http://terminology.hl7.org/CodeSystem/condition-category",
                "display": "Problem List Item"
              }
            ]
          }
        ],
        "code": {
          "coding": [
            {
              "code": "312608009",
              "system": "http://snomed.info/sct",
              "display": "Laceration - injury (disorder)"
            }
          ],
          "text": "Laceration - injury"
        },
        "onsetDateTime": "2016-12-11",
        "clinicalStatus": {
          "coding": [
            {
              "code": "inactive",
              "system": "http://terminology.hl7.org/CodeSystem/condition-clinical"
            }
          ]
        },
        "subject": {
          "reference": "Patient/0eb94b08-4fa2-429b-b3a4-0c73546f53eb",
          "display": "Ida Brommer"
        },
        "asserter": {
          "reference": "Practitioner/d9ec6e08-dde5-4bf5-9b92-36e9951198a5",
          "display": "Dr. Hel Ping"
        }
      }
    },
    {
      "fullUrl": "urn:uuid:ca6528c1-bf02-40a8-9362-072abc560c4a",
      "resource": {
        "resourceType": "Condition",
        "id": "ca6528c1-bf02-40a8-9362-072abc560c4a",
        "meta": {
          "profile": [
            "http://hl7.org/fhir/uv/ips/StructureDefinition/Condition-uv-ips"
          ]
        },
        "category": [
          {
            "coding": [
              {
                "code": "problem-list-item",
                "system": "http://terminology.hl7.org/CodeSystem/condition-category",
                "display": "Problem List Item"
              }
            ]
          }
        ],
        "code": {
          "coding": [
            {
              "code": "370247008",
              "system": "http://snomed.info/sct",
              "display": "Facial laceration (disorder)"
            }
          ],
          "text": "Facial laceration"
        },
        "onsetDateTime": "2016-12-11",
        "clinicalStatus": {
          "coding": [
            {
              "code": "inactive",
              "system": "http://terminology.hl7.org/CodeSystem/condition-clinical"
            }
          ]
        },
        "subject": {
          "reference": "Patient/0eb94b08-4fa2-429b-b3a4-0c73546f53eb",
          "display": "Ida Brommer"
        },
        "asserter": {
          "reference": "Practitioner/d9ec6e08-dde5-4bf5-9b92-36e9951198a5",
          "display": "Dr. Hel Ping"
        }
      }
    },
    {
      "fullUrl": "urn:uuid:ad84775a-0c96-4e44-8651-c662cecb935b",
      "resource": {
        "resourceType": "Condition",
        "id": "ad84775a-0c96-4e44-8651-c662cecb935b",
        "meta": {
          "profile": [
            "http://hl7.org/fhir/uv/ips/StructureDefinition/Condition-uv-ips"
          ]
        },
        "category": [
          {
            "coding": [
              {
                "code": "problem-list-item",
                "system": "http://terminology.hl7.org/CodeSystem/condition-category",
                "display": "Problem List Item"
              }
            ]
          }
        ],
        "code": {
          "coding": [
            {
              "code": "1149222004",
              "system": "http://snomed.info/sct",
              "display": "Overdose (disorder)"
            }
          ],
          "text": "Overdose"
        },
        "onsetDateTime": "2015-09-26",
        "clinicalStatus": {
          "coding": [
            {
              "code": "inactive",
              "system": "http://terminology.hl7.org/CodeSystem/condition-clinical"
            }
          ]
        },
        "subject": {
          "reference": "Patient/0eb94b08-4fa2-429b-b3a4-0c73546f53eb",
          "display": "Ida Brommer"
        },
        "asserter": {
          "reference": "Practitioner/d9ec6e08-dde5-4bf5-9b92-36e9951198a5",
          "display": "Dr. Hel Ping"
        }
      }
    },
    {
      "fullUrl": "urn:uuid:dcae84c0-d242-4e7e-ba4b-b290b6625609",
      "resource": {
        "resourceType": "Medication",
        "id": "dcae84c0-d242-4e7e-ba4b-b290b6625609",
        "meta": {
          "profile": [
            "http://hl7.org/fhir/uv/ips/StructureDefinition/Medication-uv-ips"
          ]
        },
        "code": {
          "coding": [
            {
              "code": "314231",
              "system": "http://www.nlm.nih.gov/research/umls/rxnorm",
              "display": "simvastatin 10 MG Oral Tablet"
            },
            {
              "code": "319996000",
              "system": "http://snomed.info/sct",
              "display": "Product containing precisely simvastatin 10 milligram/1 each conventional release oral tablet (clinical drug)"
            }
          ],
          "text": "Simvastatin 10 mg oral tablet"
        },
        "form": {
          "coding": [
            {
              "code": "421026006",
              "system": "http://snomed.info/sct",
              "display": "Oral tablet"
            }
          ]
        },
        "ingredient": [
          {
            "itemCodeableConcept": {
              "coding": [
                {
                  "code": "387584000",
                  "system": "http://snomed.info/sct",
                  "display": "Simvastatin"
                }
              ]
            },
            "isActive": true
          }
        ]
      }
    },
    {
      "fullUrl": "urn:uuid:85e4e673-b182-45f2-84bb-da73c98f0ff9",
      "resource": {
        "resourceType": "MedicationStatement",
        "id": "85e4e673-b182-45f2-84bb-da73c98f0ff9",
        "meta": {
          "profile": [
            "http://hl7.org/fhir/uv/ips/StructureDefinition/MedicationStatement-uv-ips"
          ]
        },
        "effectivePeriod": {
          "start": "2025-01-21"
        },
        "dosage": [
          {
            "doseAndRate": [
              {
                "doseQuantity": {
                  "value": 1,
                  "unit": "{tbl}",
                  "code": "{tbl}"
                }
              }
            ],
            "timing": {
              "repeat": {
                "frequency": 1,
                "period": 1,
                "periodUnit": "d"
              }
            },
            "text": "1 tablet (10 mg) by mouth once daily",
            "asNeededBoolean": false
          }
        ],
        "reasonCode": [
          {
            "coding": [
              {
                "code": "55822004",
                "system": "http://snomed.info/sct",
                "display": "Hyperlipidemia (disorder)"
              }
            ]
          }
        ],
        "status": "active",
        "medicationReference": {
          "reference": "Medication/dcae84c0-d242-4e7e-ba4b-b290b6625609",
          "display": "Simvastatin 10 mg oral tablet"
        },
        "subject": {
          "reference": "Patient/0eb94b08-4fa2-429b-b3a4-0c73546f53eb",
          "display": "Ida Brommer"
        }
      }
    },
    {
      "fullUrl": "urn:uuid:1b5ea096-8295-4ff6-a122-a75107c77696",
      "resource": {
        "resourceType": "Medication",
        "id": "1b5ea096-8295-4ff6-a122-a75107c77696",
        "meta": {
          "profile": [
            "http://hl7.org/fhir/uv/ips/StructureDefinition/Medication-uv-ips"
          ]
        },
        "code": {
          "coding": [
            {
              "code": "310436",
              "system": "http://www.nlm.nih.gov/research/umls/rxnorm",
              "display": "galantamine 4 MG Oral Tablet"
            },
            {
              "code": "323381002",
              "system": "http://snomed.info/sct",
              "display": "Product containing precisely galantamine (as galantamine hydrobromide) 4 milligram/1 each conventional release oral tablet (clinical drug)"
            }
          ],
          "text": "Galantamine (as galantamine hydrobromide) 4 mg oral tablet"
        },
        "form": {
          "coding": [
            {
              "code": "421026006",
              "system": "http://snomed.info/sct",
              "display": "Oral tablet"
            }
          ]
        },
        "ingredient": [
          {
            "itemCodeableConcept": {
              "coding": [
                {
                  "code": "129482002",
                  "system": "http://snomed.info/sct",
                  "display": "Galantamine hydrobromide"
                }
              ]
            },
            "isActive": true
          }
        ]
      }
    },
    {
      "fullUrl": "urn:uuid:d31f7f44-dea3-4e82-a796-217d8c09c7c6",
      "resource": {
        "resourceType": "MedicationStatement",
        "id": "d31f7f44-dea3-4e82-a796-217d8c09c7c6",
        "meta": {
          "profile": [
            "http://hl7.org/fhir/uv/ips/StructureDefinition/MedicationStatement-uv-ips"
          ]
        },
        "effectivePeriod": {
          "start": "2021-04-16"
        },
        "dosage": [
          {
            "doseAndRate": [
              {
                "doseQuantity": {
                  "value": 1,
                  "unit": "{tbl}",
                  "code": "{tbl}"
                }
              }
            ],
            "timing": {
              "repeat": {
                "frequency": 2,
                "period": 1,
                "periodUnit": "d"
              }
            },
            "text": "1 tablet (4 mg) orally twice daily",
            "asNeededBoolean": false
          }
        ],
        "reasonCode": [
          {
            "coding": [
              {
                "code": "26929004",
                "system": "http://snomed.info/sct",
                "display": "Alzheimer's disease (disorder)"
              }
            ]
          }
        ],
        "status": "active",
        "medicationReference": {
          "reference": "Medication/1b5ea096-8295-4ff6-a122-a75107c77696",
          "display": "Galantamine (as galantamine hydrobromide) 4 mg oral tablet"
        },
        "subject": {
          "reference": "Patient/0eb94b08-4fa2-429b-b3a4-0c73546f53eb",
          "display": "Ida Brommer"
        }
      }
    },
    {
      "fullUrl": "urn:uuid:e3387631-f4fe-4d00-9331-086be36f8671",
      "resource": {
        "resourceType": "Medication",
        "id": "e3387631-f4fe-4d00-9331-086be36f8671",
        "meta": {
          "profile": [
            "http://hl7.org/fhir/uv/ips/StructureDefinition/Medication-uv-ips"
          ]
        },
        "code": {
          "coding": [
            {
              "code": "309362",
              "system": "http://www.nlm.nih.gov/research/umls/rxnorm",
              "display": "clopidogrel 75 MG Oral Tablet"
            },
            {
              "code": "783586007",
              "system": "http://snomed.info/sct",
              "display": "Product containing precisely clopidogrel (as clopidogrel bisulfate) 75 milligram/1 each conventional release oral tablet (clinical drug)"
            }
          ],
          "text": "Clopidogrel (as clopidogrel bisulfate) 75 mg oral tablet"
        },
        "form": {
          "coding": [
            {
              "code": "421026006",
              "system": "http://snomed.info/sct",
              "display": "Oral tablet"
            }
          ]
        },
        "ingredient": [
          {
            "itemCodeableConcept": {
              "coding": [
                {
                  "code": "412354008",
                  "system": "http://snomed.info/sct",
                  "display": "Clopidogrel bisulfate"
                }
              ]
            },
            "isActive": true
          }
        ]
      }
    },
    {
      "fullUrl": "urn:uuid:f8e9be13-5418-474a-a68d-cf389347152d",
      "resource": {
        "resourceType": "MedicationStatement",
        "id": "f8e9be13-5418-474a-a68d-cf389347152d",
        "meta": {
          "profile": [
            "http://hl7.org/fhir/uv/ips/StructureDefinition/MedicationStatement-uv-ips"
          ]
        },
        "effectivePeriod": {
          "start": "1998-11-27"
        },
        "dosage": [
          {
            "doseAndRate": [
              {
                "doseQuantity": {
                  "value": 1,
                  "unit": "{tbl}",
                  "code": "{tbl}"
                }
              }
            ],
            "timing": {
              "repeat": {
                "frequency": 1,
                "period": 1,
                "periodUnit": "d"
              }
            },
            "text": "1 tablet (75 mg) by mouth once daily",
            "asNeededBoolean": false
          }
        ],
        "status": "active",
        "medicationReference": {
          "reference": "Medication/e3387631-f4fe-4d00-9331-086be36f8671",
          "display": "Clopidogrel (as clopidogrel bisulfate) 75 mg oral tablet"
        },
        "subject": {
          "reference": "Patient/0eb94b08-4fa2-429b-b3a4-0c73546f53eb",
          "display": "Ida Brommer"
        }
      }
    },
    {
      "fullUrl": "urn:uuid:aa241767-569c-4dd9-8d97-cb2a515b8068",
      "resource": {
        "resourceType": "Medication",
        "id": "aa241767-569c-4dd9-8d97-cb2a515b8068",
        "meta": {
          "profile": [
            "http://hl7.org/fhir/uv/ips/StructureDefinition/Medication-uv-ips"
          ]
        },
        "code": {
          "coding": [
            {
              "code": "312961",
              "system": "http://www.nlm.nih.gov/research/umls/rxnorm",
              "display": "simvastatin 20 MG Oral Tablet"
            },
            {
              "code": "319997009",
              "system": "http://snomed.info/sct",
              "display": "Product containing precisely simvastatin 20 milligram/1 each conventional release oral tablet (clinical drug)"
            }
          ],
          "text": "Simvastatin 20 mg oral tablet"
        },
        "form": {
          "coding": [
            {
              "code": "421026006",
              "system": "http://snomed.info/sct",
              "display": "Oral tablet"
            }
          ]
        },
        "ingredient": [
          {
            "itemCodeableConcept": {
              "coding": [
                {
                  "code": "387584000",
                  "system": "http://snomed.info/sct",
                  "display": "Simvastatin"
                }
              ]
            },
            "isActive": true
          }
        ]
      }
    },
    {
      "fullUrl": "urn:uuid:83c0669f-8450-49c7-9bf3-0853dff7c2cf",
      "resource": {
        "resourceType": "MedicationStatement",
        "id": "83c0669f-8450-49c7-9bf3-0853dff7c2cf",
        "meta": {
          "profile": [
            "http://hl7.org/fhir/uv/ips/StructureDefinition/MedicationStatement-uv-ips"
          ]
        },
        "effectivePeriod": {
          "start": "1998-11-27"
        },
        "dosage": [
          {
            "doseAndRate": [
              {
                "doseQuantity": {
                  "value": 1,
                  "unit": "{tbl}",
                  "code": "{tbl}"
                }
              }
            ],
            "timing": {
              "repeat": {
                "frequency": 1,
                "period": 1,
                "periodUnit": "d"
              }
            },
            "text": "1 tablet (20 mg) by mouth once daily",
            "asNeededBoolean": false
          }
        ],
        "status": "active",
        "medicationReference": {
          "reference": "Medication/aa241767-569c-4dd9-8d97-cb2a515b8068",
          "display": "Simvastatin 20 mg oral tablet"
        },
        "subject": {
          "reference": "Patient/0eb94b08-4fa2-429b-b3a4-0c73546f53eb",
          "display": "Ida Brommer"
        }
      }
    },
    {
      "fullUrl": "urn:uuid:ab75fd06-86b6-4308-b38a-5293c3509333",
      "resource": {
        "resourceType": "Medication",
        "id": "ab75fd06-86b6-4308-b38a-5293c3509333",
        "meta": {
          "profile": [
            "http://hl7.org/fhir/uv/ips/StructureDefinition/Medication-uv-ips"
          ]
        },
        "code": {
          "coding": [
            {
              "code": "705129",
              "system": "http://www.nlm.nih.gov/research/umls/rxnorm",
              "display": "nitroglycerin 0.4 MG/ACTUAT Mucosal Spray"
            },
            {
              "code": "425176000",
              "system": "http://snomed.info/sct",
              "display": "Product containing precisely glyceryl trinitrate 400 microgram/1 actuation conventional release sublingual spray (clinical drug)"
            }
          ],
          "text": "Nitroglycerin 400 microgram/actuation sublingual spray"
        },
        "form": {
          "coding": [
            {
              "code": "385074009",
              "system": "http://snomed.info/sct",
              "display": "Sublingual spray"
            }
          ]
        },
        "ingredient": [
          {
            "itemCodeableConcept": {
              "coding": [
                {
                  "code": "387404004",
                  "system": "http://snomed.info/sct",
                  "display": "Glyceryl trinitrate"
                }
              ]
            },
            "isActive": true
          }
        ]
      }
    },
    {
      "fullUrl": "urn:uuid:9b3bb7f3-06b8-4a93-8a88-20fd35d03be9",
      "resource": {
        "resourceType": "MedicationStatement",
        "id": "9b3bb7f3-06b8-4a93-8a88-20fd35d03be9",
        "meta": {
          "profile": [
            "http://hl7.org/fhir/uv/ips/StructureDefinition/MedicationStatement-uv-ips"
          ]
        },
        "effectivePeriod": {
          "start": "1998-11-27"
        },
        "dosage": [
          {
            "doseAndRate": [
              {
                "doseQuantity": {
                  "value": 400,
                  "unit": "mcg",
                  "code": "ug"
                }
              }
            ],
            "timing": {
              "repeat": {
                "frequency": 1,
                "period": 5,
                "periodUnit": "min"
              }
            },
            "text": "1 spray (400 micrograms) under the tongue as needed for chest pain, may repeat every 5 minutes as needed, up to 3 sprays in 15 minutes",
            "asNeededBoolean": true
          }
        ],
        "status": "active",
        "medicationReference": {
          "reference": "Medication/ab75fd06-86b6-4308-b38a-5293c3509333",
          "display": "Nitroglycerin 400 microgram/actuation sublingual spray"
        },
        "subject": {
          "reference": "Patient/0eb94b08-4fa2-429b-b3a4-0c73546f53eb",
          "display": "Ida Brommer"
        }
      }
    },
    {
      "fullUrl": "urn:uuid:65b9334b-3e0f-4575-81a7-750c85c67f3b",
      "resource": {
        "resourceType": "Medication",
        "id": "65b9334b-3e0f-4575-81a7-750c85c67f3b",
        "meta": {
          "profile": [
            "http://hl7.org/fhir/uv/ips/StructureDefinition/Medication-uv-ips"
          ]
        },
        "code": {
          "coding": [
            {
              "code": "866412",
              "system": "http://www.nlm.nih.gov/research/umls/rxnorm",
              "display": "24 HR metoprolol succinate 100 MG Extended Release Oral Tablet"
            },
            {
              "code": "879980009",
              "system": "http://snomed.info/sct",
              "display": "Product containing precisely metoprolol tartrate (as metoprolol succinate) 100 milligram/1 each prolonged-release oral tablet (clinical drug)"
            }
          ],
          "text": "Metoprolol tartrate (as metoprolol succinate) 100 mg prolonged-release oral tablet"
        },
        "form": {
          "coding": [
            {
              "code": "385060002",
              "system": "http://snomed.info/sct",
              "display": "Prolonged-release oral tablet"
            }
          ]
        },
        "ingredient": [
          {
            "itemCodeableConcept": {
              "coding": [
                {
                  "code": "412432007",
                  "system": "http://snomed.info/sct",
                  "display": "Metoprolol succinate"
                }
              ]
            },
            "isActive": true
          }
        ]
      }
    },
    {
      "fullUrl": "urn:uuid:48aaffbf-a64e-4e20-9e05-12e828f5202c",
      "resource": {
        "resourceType": "MedicationStatement",
        "id": "48aaffbf-a64e-4e20-9e05-12e828f5202c",
        "meta": {
          "profile": [
            "http://hl7.org/fhir/uv/ips/StructureDefinition/MedicationStatement-uv-ips"
          ]
        },
        "effectivePeriod": {
          "start": "1998-11-27"
        },
        "dosage": [
          {
            "doseAndRate": [
              {
                "doseQuantity": {
                  "value": 1,
                  "unit": "{tbl}",
                  "code": "{tbl}"
                }
              }
            ],
            "timing": {
              "repeat": {
                "frequency": 1,
                "period": 1,
                "periodUnit": "d"
              }
            },
            "text": "1 tablet (100 mg) once daily",
            "asNeededBoolean": false
          }
        ],
        "status": "active",
        "medicationReference": {
          "reference": "Medication/65b9334b-3e0f-4575-81a7-750c85c67f3b",
          "display": "Metoprolol tartrate (as metoprolol succinate) 100 mg prolonged-release oral tablet"
        },
        "subject": {
          "reference": "Patient/0eb94b08-4fa2-429b-b3a4-0c73546f53eb",
          "display": "Ida Brommer"
        }
      }
    },
    {
      "fullUrl": "urn:uuid:18023b62-cc04-4d1a-be9a-90d4e41ef88a",
      "resource": {
        "resourceType": "AllergyIntolerance",
        "id": "18023b62-cc04-4d1a-be9a-90d4e41ef88a",
        "meta": {
          "profile": [
            "http://hl7.eu/fhir/eps/StructureDefinition/allergyIntolerance-eu-eps"
          ]
        },
        "code": {
          "coding": [
            {
              "code": "716186003",
              "system": "http://snomed.info/sct",
              "display": "No known allergy (situation)"
            }
          ]
        },
        "patient": {
          "reference": "Patient/0eb94b08-4fa2-429b-b3a4-0c73546f53eb",
          "display": "Ida Brommer"
        },
        "_onsetDateTime": {
          "extension": [
            {
              "url": "http://hl7.org/fhir/StructureDefinition/data-absent-reason",
              "valueCode": "unknown"
            }
          ]
        }
      }
    },
    {
      "fullUrl": "urn:uuid:065890bd-cc00-44e9-9c68-daf803518632",
      "resource": {
        "resourceType": "Procedure",
        "id": "065890bd-cc00-44e9-9c68-daf803518632",
        "meta": {
          "profile": [
            "http://hl7.org/fhir/uv/ips/StructureDefinition/Procedure-uv-ips"
          ]
        },
        "code": {
          "coding": [
            {
              "code": "103697008",
              "system": "http://snomed.info/sct",
              "display": "Patient referral for dental care (procedure)"
            }
          ],
          "text": "Patient referral for dental care"
        },
        "reasonCode": [
          {
            "coding": [
              {
                "code": "66383009",
                "system": "http://snomed.info/sct",
                "display": "Gingivitis (disorder)"
              }
            ]
          }
        ],
        "status": "completed",
        "subject": {
          "reference": "Patient/0eb94b08-4fa2-429b-b3a4-0c73546f53eb",
          "display": "Ida Brommer"
        },
        "performedDateTime": "2021-09-24"
      }
    },
    {
      "fullUrl": "urn:uuid:d97db708-16eb-410b-bda3-533bb1eb670e",
      "resource": {
        "resourceType": "Procedure",
        "id": "d97db708-16eb-410b-bda3-533bb1eb670e",
        "meta": {
          "profile": [
            "http://hl7.org/fhir/uv/ips/StructureDefinition/Procedure-uv-ips"
          ]
        },
        "code": {
          "coding": [
            {
              "code": "171207006",
              "system": "http://snomed.info/sct",
              "display": "Depression screening (procedure)"
            }
          ],
          "text": "Depression screening"
        },
        "status": "completed",
        "subject": {
          "reference": "Patient/0eb94b08-4fa2-429b-b3a4-0c73546f53eb",
          "display": "Ida Brommer"
        },
        "performedDateTime": "2021-09-24"
      }
    },
    {
      "fullUrl": "urn:uuid:2a1c74ac-2d68-4475-9735-fd00be854cb6",
      "resource": {
        "resourceType": "Procedure",
        "id": "2a1c74ac-2d68-4475-9735-fd00be854cb6",
        "meta": {
          "profile": [
            "http://hl7.org/fhir/uv/ips/StructureDefinition/Procedure-uv-ips"
          ]
        },
        "code": {
          "coding": [
            {
              "code": "430193006",
              "system": "http://snomed.info/sct",
              "display": "Medication reconciliation (procedure)"
            }
          ],
          "text": "Medication reconciliation"
        },
        "status": "completed",
        "subject": {
          "reference": "Patient/0eb94b08-4fa2-429b-b3a4-0c73546f53eb",
          "display": "Ida Brommer"
        },
        "performedDateTime": "2021-09-24"
      }
    },
    {
      "fullUrl": "urn:uuid:ec2d9d50-691d-44e6-8fb3-70b84f5a0570",
      "resource": {
        "resourceType": "Procedure",
        "id": "ec2d9d50-691d-44e6-8fb3-70b84f5a0570",
        "meta": {
          "profile": [
            "http://hl7.org/fhir/uv/ips/StructureDefinition/Procedure-uv-ips"
          ]
        },
        "code": {
          "coding": [
            {
              "code": "710824005",
              "system": "http://snomed.info/sct",
              "display": "Assessment of health and social care needs (procedure)"
            }
          ],
          "text": "Assessment of health and social care needs"
        },
        "status": "completed",
        "subject": {
          "reference": "Patient/0eb94b08-4fa2-429b-b3a4-0c73546f53eb",
          "display": "Ida Brommer"
        },
        "performedDateTime": "2021-09-24"
      }
    },
    {
      "fullUrl": "urn:uuid:a733c032-5470-47bc-bb7e-dfafc1d88845",
      "resource": {
        "resourceType": "Procedure",
        "id": "a733c032-5470-47bc-bb7e-dfafc1d88845",
        "meta": {
          "profile": [
            "http://hl7.org/fhir/uv/ips/StructureDefinition/Procedure-uv-ips"
          ]
        },
        "code": {
          "coding": [
            {
              "code": "710841007",
              "system": "http://snomed.info/sct",
              "display": "Assessment of anxiety (procedure)"
            }
          ],
          "text": "Assessment of anxiety"
        },
        "status": "completed",
        "subject": {
          "reference": "Patient/0eb94b08-4fa2-429b-b3a4-0c73546f53eb",
          "display": "Ida Brommer"
        },
        "performedDateTime": "2021-09-24"
      }
    },
    {
      "fullUrl": "urn:uuid:9aac0fe0-c974-4417-bdf4-db6b9eedb573",
      "resource": {
        "resourceType": "Procedure",
        "id": "9aac0fe0-c974-4417-bdf4-db6b9eedb573",
        "meta": {
          "profile": [
            "http://hl7.org/fhir/uv/ips/StructureDefinition/Procedure-uv-ips"
          ]
        },
        "code": {
          "coding": [
            {
              "code": "762993000",
              "system": "http://snomed.info/sct",
              "display": "Assessment using Morse Fall Scale (procedure)"
            }
          ],
          "text": "Assessment using Morse Fall Scale"
        },
        "status": "completed",
        "subject": {
          "reference": "Patient/0eb94b08-4fa2-429b-b3a4-0c73546f53eb",
          "display": "Ida Brommer"
        },
        "performedDateTime": "2021-09-24"
      }
    },
    {
      "fullUrl": "urn:uuid:63018927-db5e-4c94-842b-b062fb2bb1a4",
      "resource": {
        "resourceType": "Procedure",
        "id": "63018927-db5e-4c94-842b-b062fb2bb1a4",
        "meta": {
          "profile": [
            "http://hl7.org/fhir/uv/ips/StructureDefinition/Procedure-uv-ips"
          ]
        },
        "code": {
          "coding": [
            {
              "code": "58000006",
              "system": "http://snomed.info/sct",
              "display": "Patient discharge (procedure)"
            }
          ],
          "text": "Patient discharge"
        },
        "status": "completed",
        "subject": {
          "reference": "Patient/0eb94b08-4fa2-429b-b3a4-0c73546f53eb",
          "display": "Ida Brommer"
        },
        "performedDateTime": "2018-11-09"
      }
    },
    {
      "fullUrl": "urn:uuid:242dda9d-a5ee-4327-be4b-5223582234be",
      "resource": {
        "resourceType": "Procedure",
        "id": "242dda9d-a5ee-4327-be4b-5223582234be",
        "meta": {
          "profile": [
            "http://hl7.org/fhir/uv/ips/StructureDefinition/Procedure-uv-ips"
          ]
        },
        "code": {
          "coding": [
            {
              "code": "385763009",
              "system": "http://snomed.info/sct",
              "display": "Hospice care (regime/therapy)"
            }
          ],
          "text": "Hospice care"
        },
        "status": "completed",
        "subject": {
          "reference": "Patient/0eb94b08-4fa2-429b-b3a4-0c73546f53eb",
          "display": "Ida Brommer"
        },
        "performedDateTime": "2018-11-08"
      }
    },
    {
      "fullUrl": "urn:uuid:fc16d3a1-78c7-4c76-aa69-e7f2819ee132",
      "resource": {
        "resourceType": "Procedure",
        "id": "fc16d3a1-78c7-4c76-aa69-e7f2819ee132",
        "meta": {
          "profile": [
            "http://hl7.org/fhir/uv/ips/StructureDefinition/Procedure-uv-ips"
          ]
        },
        "code": {
          "coding": [
            {
              "code": "185087000",
              "system": "http://snomed.info/sct",
              "display": "Notifications (procedure)"
            }
          ],
          "text": "Notifications"
        },
        "status": "completed",
        "subject": {
          "reference": "Patient/0eb94b08-4fa2-429b-b3a4-0c73546f53eb",
          "display": "Ida Brommer"
        },
        "performedDateTime": "2018-10-26"
      }
    },
    {
      "fullUrl": "urn:uuid:b6920648-1b2c-4b60-a545-6f118fa496d3",
      "resource": {
        "resourceType": "Procedure",
        "id": "b6920648-1b2c-4b60-a545-6f118fa496d3",
        "meta": {
          "profile": [
            "http://hl7.org/fhir/uv/ips/StructureDefinition/Procedure-uv-ips"
          ]
        },
        "code": {
          "coding": [
            {
              "code": "310417005",
              "system": "http://snomed.info/sct",
              "display": "Certification procedure (procedure)"
            }
          ],
          "text": "Certification procedure"
        },
        "status": "completed",
        "subject": {
          "reference": "Patient/0eb94b08-4fa2-429b-b3a4-0c73546f53eb",
          "display": "Ida Brommer"
        },
        "performedDateTime": "2018-10-26"
      }
    },
    {
      "fullUrl": "urn:uuid:158fd37c-7f4e-4e67-bdcd-f2495946abb7",
      "resource": {
        "resourceType": "Procedure",
        "id": "158fd37c-7f4e-4e67-bdcd-f2495946abb7",
        "meta": {
          "profile": [
            "http://hl7.org/fhir/uv/ips/StructureDefinition/Procedure-uv-ips"
          ]
        },
        "code": {
          "coding": [
            {
              "code": "315639002",
              "system": "http://snomed.info/sct",
              "display": "Initial patient assessment (procedure)"
            }
          ],
          "text": "Initial patient assessment"
        },
        "status": "completed",
        "subject": {
          "reference": "Patient/0eb94b08-4fa2-429b-b3a4-0c73546f53eb",
          "display": "Ida Brommer"
        },
        "performedDateTime": "2018-10-26"
      }
    },
    {
      "fullUrl": "urn:uuid:22761d2f-a7f5-46bc-b17e-c8d5fa383151",
      "resource": {
        "resourceType": "Procedure",
        "id": "22761d2f-a7f5-46bc-b17e-c8d5fa383151",
        "meta": {
          "profile": [
            "http://hl7.org/fhir/uv/ips/StructureDefinition/Procedure-uv-ips"
          ]
        },
        "code": {
          "coding": [
            {
              "code": "370789001",
              "system": "http://snomed.info/sct",
              "display": "Development of individualized plan of care (procedure)"
            }
          ],
          "text": "Development of individualized plan of care"
        },
        "status": "completed",
        "subject": {
          "reference": "Patient/0eb94b08-4fa2-429b-b3a4-0c73546f53eb",
          "display": "Ida Brommer"
        },
        "performedDateTime": "2018-10-26"
      }
    },
    {
      "fullUrl": "urn:uuid:18864ed4-085c-43db-9ca6-a47639991653",
      "resource": {
        "resourceType": "Procedure",
        "id": "18864ed4-085c-43db-9ca6-a47639991653",
        "meta": {
          "profile": [
            "http://hl7.org/fhir/uv/ips/StructureDefinition/Procedure-uv-ips"
          ]
        },
        "code": {
          "coding": [
            {
              "code": "288086009",
              "system": "http://snomed.info/sct",
              "display": "Suture open wound (procedure)"
            }
          ],
          "text": "Suture open wound"
        },
        "reasonCode": [
          {
            "coding": [
              {
                "code": "370247008",
                "system": "http://snomed.info/sct",
                "display": "Facial laceration (disorder)"
              }
            ]
          }
        ],
        "status": "completed",
        "subject": {
          "reference": "Patient/0eb94b08-4fa2-429b-b3a4-0c73546f53eb",
          "display": "Ida Brommer"
        },
        "performedDateTime": "2016-12-11"
      }
    },
    {
      "fullUrl": "urn:uuid:6d457d39-0f33-4dbf-b505-15f7647d8f70",
      "resource": {
        "resourceType": "Immunization",
        "id": "6d457d39-0f33-4dbf-b505-15f7647d8f70",
        "meta": {
          "profile": [
            "http://hl7.org/fhir/uv/ips/StructureDefinition/Immunization-uv-ips"
          ]
        },
        "vaccineCode": {
          "coding": [
            {
              "code": "777725002",
              "system": "http://snomed.info/sct",
              "display": "Vaccine product containing only Clostridium tetani toxoid antigen adsorbed"
            },
            {
              "code": "J07AM51",
              "system": "http://www.whocc.no/atc",
              "display": "Diphtheria-tetanus vaccines, adult type"
            },
            {
              "code": "113",
              "system": "http://hl7.org/fhir/sid/cvx",
              "display": "Td (adult)  5 Lf tetanus toxoid  preservative free  adsorbed"
            }
          ],
          "text": "Clostridium tetani toxoid antigen adsorbed only vaccine product"
        },
        "site": {
          "coding": [
            {
              "code": "73776007",
              "system": "http://snomed.info/sct",
              "display": "Structure of muscle of upper arm"
            }
          ],
          "text": "Structure of muscle of upper arm"
        },
        "route": {
          "coding": [
            {
              "code": "78421000",
              "system": "http://snomed.info/sct",
              "display": "Intramuscular route"
            }
          ],
          "text": "Intramuscular route"
        },
        "status": "completed",
        "patient": {
          "reference": "Patient/0eb94b08-4fa2-429b-b3a4-0c73546f53eb",
          "display": "Ida Brommer"
        },
        "occurrenceDateTime": "2024-11-29",
        "lotNumber": "MX-0PDoF",
        "expirationDate": "2025-08-20"
      }
    },
    {
      "fullUrl": "urn:uuid:726b2b7a-7616-4679-b70c-ba6c57f6cfdd",
      "resource": {
        "resourceType": "Immunization",
        "id": "726b2b7a-7616-4679-b70c-ba6c57f6cfdd",
        "meta": {
          "profile": [
            "http://hl7.org/fhir/uv/ips/StructureDefinition/Immunization-uv-ips"
          ]
        },
        "vaccineCode": {
          "coding": [
            {
              "code": "1181000221105",
              "system": "http://snomed.info/sct",
              "display": "Vaccine product containing Influenza virus antigen"
            },
            {
              "code": "J07BB02",
              "system": "http://www.whocc.no/atc",
              "display": "Influenza, inactivated, split virus"
            },
            {
              "code": "140",
              "system": "http://hl7.org/fhir/sid/cvx",
              "display": "Influenza  seasonal  injectable  preservative free"
            }
          ],
          "text": "Influenza virus antigen only vaccine product"
        },
        "site": {
          "coding": [
            {
              "code": "73776007",
              "system": "http://snomed.info/sct",
              "display": "Structure of muscle of upper arm"
            }
          ],
          "text": "Structure of muscle of upper arm"
        },
        "route": {
          "coding": [
            {
              "code": "78421000",
              "system": "http://snomed.info/sct",
              "display": "Intramuscular route"
            }
          ],
          "text": "Intramuscular route"
        },
        "status": "completed",
        "patient": {
          "reference": "Patient/0eb94b08-4fa2-429b-b3a4-0c73546f53eb",
          "display": "Ida Brommer"
        },
        "occurrenceDateTime": "2024-05-03",
        "lotNumber": "PU-31Fs",
        "expirationDate": "2024-10-23"
      }
    },
    {
      "fullUrl": "urn:uuid:0bf127b8-875c-4d10-9762-7e938732deb7",
      "resource": {
        "resourceType": "Immunization",
        "id": "0bf127b8-875c-4d10-9762-7e938732deb7",
        "meta": {
          "profile": [
            "http://hl7.org/fhir/uv/ips/StructureDefinition/Immunization-uv-ips"
          ]
        },
        "vaccineCode": {
          "coding": [
            {
              "code": "1119349007",
              "system": "http://snomed.info/sct",
              "display": "Vaccine product containing SARS-CoV-2 mRNA"
            },
            {
              "code": "J07BX03",
              "system": "http://www.whocc.no/atc",
              "display": "COVID-19 mRNA vaccines"
            },
            {
              "code": "207",
              "system": "http://hl7.org/fhir/sid/cvx",
              "display": "COVID-19  mRNA  LNP-S  PF  100 mcg/0.5mL dose or 50 mcg/0.25mL dose"
            }
          ],
          "text": "SARS-CoV-2 mRNA vaccine"
        },
        "site": {
          "coding": [
            {
              "code": "73776007",
              "system": "http://snomed.info/sct",
              "display": "Structure of muscle of upper arm"
            }
          ],
          "text": "Structure of muscle of upper arm"
        },
        "route": {
          "coding": [
            {
              "code": "78421000",
              "system": "http://snomed.info/sct",
              "display": "Intramuscular route"
            }
          ],
          "text": "Intramuscular route"
        },
        "status": "completed",
        "patient": {
          "reference": "Patient/0eb94b08-4fa2-429b-b3a4-0c73546f53eb",
          "display": "Ida Brommer"
        },
        "occurrenceDateTime": "2021-02-19",
        "lotNumber": "HX-IAZhgwY",
        "expirationDate": "2021-07-21"
      }
    }
  ],
  "type": "document",
  "timestamp": "2025-06-17T11:26:49Z"
}
