{
  "resourceType": "Bundle",
  "id": "Instance-Bundle-12f8060d-7988-4abb-bcb1-7d27ad6ee9b7",
  "meta": {
    "profile": [
      "http://hl7.eu/fhir/eps/StructureDefinition/bundle-eu-eps"
    ]
  },
  "identifier": {
    "assigner": {
      "display": "HL7 Europe"
    },
    "system": "urn:oid:2.16.840.1.113883.2.51.999",
    "value": "f9db7544-0c5e-4e59-a943-ee1673db29e1"
  },
  "entry": [
    {
      "fullUrl": "urn:uuid:f15c6201-1704-44ba-a762-76f0721b5270",
      "resource": {
        "resourceType": "Composition",
        "id": "f15c6201-1704-44ba-a762-76f0721b5270",
        "meta": {
          "profile": [
            "http://hl7.eu/fhir/eps/StructureDefinition/composition-eu-eps"
          ]
        },
        "identifier": {
          "assigner": {
            "display": "HL7 Europe"
          },
          "system": "urn:oid:2.16.840.1.113883.2.51.999",
          "value": "7243be29-415d-4a2a-a437-6f6956de1533"
        },
        "type": {
          "coding": [
            {
              "system": "http://loinc.org",
              "code": "60591-5",
              "display": "European Patient Summary"
            }
          ],
          "text": "European Patient Summary"
        },
        "author": [
          {
            "reference": "urn:uuid:641961a0-d1c2-4f9e-a37b-98660099a61d"
          }
        ],
        "section": [
          {
            "text": {
              "status": "generated",
              "div": "<div xmlns=\"http://www.w3.org/1999/xhtml\"><table class=\"hl7__ips\"><tr><th>Condition</th><th>Onset Date</th><th>Status</th></tr><tr><td>Acute respiratory distress syndrome</td><td><span class=\"nb\">2022-08-14</span></td><td>active</td></tr><tr><td>Sepsis</td><td><span class=\"nb\">2022-07-28</span></td><td>active</td></tr><tr><td>Dependent drug abuse</td><td><span class=\"nb\">2016-01-03</span></td><td>active</td></tr><tr><td>Chronic sinusitis</td><td><span class=\"nb\">2015-05-10</span></td><td>active</td></tr><tr><td>Chronic intractable migraine without aura</td><td><span class=\"nb\">2002-08-09</span></td><td>active</td></tr><tr><td>Impacted molars</td><td><span class=\"nb\">2002-03-09</span></td><td>active</td></tr><tr><td><span class=\"grayedout\">Primary dental caries</span></td><td><span class=\"nb\">2025-03-09</span></td><td><span class=\"grayedout\">inactive</span></td></tr><tr><td><span class=\"grayedout\">Miscarriage in first trimester</span></td><td><span class=\"nb\">2023-09-24</span></td><td><span class=\"grayedout\">inactive</span></td></tr><tr><td><span class=\"grayedout\">Complete miscarriage</span></td><td><span class=\"nb\">2023-09-24</span></td><td><span class=\"grayedout\">inactive</span></td></tr><tr><td><span class=\"grayedout\">Viral sinusitis</span></td><td><span class=\"nb\">2021-02-28</span></td><td><span class=\"grayedout\">inactive</span></td></tr><tr><td><span class=\"grayedout\">COVID-19</span></td><td><span class=\"nb\">2021-02-22</span></td><td><span class=\"grayedout\">inactive</span></td></tr><tr><td><span class=\"grayedout\">Acute bacterial sinusitis</span></td><td><span class=\"nb\">2015-03-25</span></td><td><span class=\"grayedout\">inactive</span></td></tr></table></div>"
            },
            "entry": [
              {
                "reference": "urn:uuid:b4b64e23-7096-43af-bb21-2e4c331a2db8"
              },
              {
                "reference": "urn:uuid:54413642-75a3-43a5-811e-ef80022dde05"
              },
              {
                "reference": "urn:uuid:9c2c3f4b-54df-454c-b607-9a52dc63c252"
              },
              {
                "reference": "urn:uuid:4ac79bdd-502b-4bcd-b4f8-7e7acc393214"
              },
              {
                "reference": "urn:uuid:2d5e1961-7670-46f5-b6e1-c007e65b74ef"
              },
              {
                "reference": "urn:uuid:34fe9026-60e0-413b-a277-b309ec4ebaca"
              },
              {
                "reference": "urn:uuid:59c7f349-639f-43d0-9cec-0b439e2fdb80"
              },
              {
                "reference": "urn:uuid:c6c0c7ac-0717-4be3-98cf-dc8f285fff65"
              },
              {
                "reference": "urn:uuid:c5a38632-a9fe-4174-a492-4433414a9dcc"
              },
              {
                "reference": "urn:uuid:7b0f227a-d155-496a-a4a8-892a0bfbc736"
              },
              {
                "reference": "urn:uuid:c41905ca-86e6-4799-9143-a3b266282f7d"
              },
              {
                "reference": "urn:uuid:fb425aaa-d774-4911-a239-a2d2f489abd6"
              }
            ],
            "code": {
              "coding": [
                {
                  "system": "http://loinc.org",
                  "code": "11450-4",
                  "display": "Problem list - Reported"
                }
              ]
            },
            "title": "Problem list"
          },
          {
            "text": {
              "status": "generated",
              "div": "<div xmlns=\"http://www.w3.org/1999/xhtml\"><table class=\"hl7__ips\"><tr><th>Medication</th><th>Since</th><th>Form</th><th>Dosage</th><th>Reason</th></tr><tr><td>Camila 28 Day Pack</td><td><span class=\"nb\">2024-07-13</span></td><td></td><td>1 tablet (0.35 mg) by mouth once daily</td><td></td></tr></table></div>"
            },
            "entry": [
              {
                "reference": "urn:uuid:7844a19f-1125-47cc-864f-b80a5ec5fd8b"
              }
            ],
            "code": {
              "coding": [
                {
                  "system": "http://loinc.org",
                  "code": "10160-0",
                  "display": "History of Medication use Narrative"
                }
              ]
            },
            "title": "Medication list"
          },
          {
            "text": {
              "status": "generated",
              "div": "<div xmlns=\"http://www.w3.org/1999/xhtml\"><table class=\"hl7__ips\"><tr><td>No known allergies or intolerances</td></tr></table></div>"
            },
            "entry": [
              {
                "reference": "urn:uuid:2aca2b41-e7ea-4954-842f-2a5d5d565a70"
              }
            ],
            "code": {
              "coding": [
                {
                  "system": "http://loinc.org",
                  "code": "48765-2",
                  "display": "Allergies and adverse reactions Document"
                }
              ]
            },
            "title": "Allergies and Intolerances"
          },
          {
            "text": {
              "status": "generated",
              "div": "<div xmlns=\"http://www.w3.org/1999/xhtml\"><table class=\"hl7__ips\"><tr><th>Procedure</th><th>Date</th><th>Reason</th></tr><tr><td>Human parturition</td><td><span class=\"nb\">2023-05-14</span></td><td>Normal pregnancy (finding)</td></tr><tr><td>Transfer to stepdown unit</td><td><span class=\"nb\">2022-08-20</span></td><td>Sepsis (disorder)</td></tr><tr><td>Weaning from mechanically assisted ventilation</td><td><span class=\"nb\">2022-08-18</span></td><td>Acute respiratory distress syndrome (disorder)</td></tr><tr><td>Artificial ventilation</td><td><span class=\"nb\">2022-08-14</span></td><td>Acute respiratory distress syndrome (disorder)</td></tr><tr><td>Admission to intensive care unit</td><td><span class=\"nb\">2022-08-14</span></td><td>Septic shock (disorder)</td></tr><tr><td>Resuscitation using intravenous fluid</td><td><span class=\"nb\">2022-08-14</span></td><td>Septic shock (disorder)</td></tr><tr><td>Episiotomy</td><td><span class=\"nb\">2015-07-12</span></td><td>Normal pregnancy (finding)</td></tr></table></div>"
            },
            "entry": [
              {
                "reference": "urn:uuid:c8645523-f0be-4524-9753-2d3784eb9a82"
              },
              {
                "reference": "urn:uuid:5327bfcd-19b8-484f-b2a1-9334fab21fd4"
              },
              {
                "reference": "urn:uuid:7c40e657-6a00-4802-80fb-695c44a31997"
              },
              {
                "reference": "urn:uuid:bf469dd7-741a-49a5-b8cb-1a487e3f84eb"
              },
              {
                "reference": "urn:uuid:2f394b9f-cd47-4438-88ee-ddc6f9e6e4af"
              },
              {
                "reference": "urn:uuid:ff170c0c-f062-405e-8d41-a9ed17ad1959"
              },
              {
                "reference": "urn:uuid:04ee7da9-c078-4de6-8f7e-5c457ea1d347"
              }
            ],
            "code": {
              "coding": [
                {
                  "system": "http://loinc.org",
                  "code": "47519-4",
                  "display": "History of Procedures Document"
                }
              ]
            },
            "title": "Procedure History list"
          },
          {
            "text": {
              "status": "generated",
              "div": "<div xmlns=\"http://www.w3.org/1999/xhtml\"><table class=\"hl7__ips\"><tr><th>Vaccine</th><th>Date</th></tr><tr><td>Influenza virus antigen only vaccine product</td><td><span class=\"nb\">2025-02-23</span></td></tr><tr><td>SARS-CoV-2 mRNA vaccine</td><td><span class=\"nb\">2021-03-21</span></td></tr><tr><td>Clostridium tetani toxoid antigen adsorbed only vaccine product</td><td><span class=\"nb\">2019-02-17</span></td></tr></table></div>"
            },
            "entry": [
              {
                "reference": "urn:uuid:eaa046a4-2875-4fd5-882b-e0f2571e2421"
              },
              {
                "reference": "urn:uuid:e7694cff-3c40-44c9-a501-19ab25e31df5"
              },
              {
                "reference": "urn:uuid:c189d04f-be1d-4c46-9f8a-09d846a726dd"
              }
            ],
            "code": {
              "coding": [
                {
                  "system": "http://loinc.org",
                  "code": "11369-6",
                  "display": "History of Immunization Narrative"
                }
              ]
            },
            "title": "Immunizations list"
          }
        ],
        "title": "European Patient Summary",
        "status": "final",
        "subject": {
          "reference": "urn:uuid:22a048f7-2f05-4ec5-90c4-d513b996bcba"
        },
        "custodian": {
          "reference": "urn:uuid:5e003dda-4fb1-42d0-b1c4-a6f3fa473083"
        },
        "date": "2025-06-17T11:26:49Z",
        "confidentiality": "N"
      }
    },
    {
      "fullUrl": "urn:uuid:22a048f7-2f05-4ec5-90c4-d513b996bcba",
      "resource": {
        "resourceType": "Patient",
        "id": "22a048f7-2f05-4ec5-90c4-d513b996bcba",
        "meta": {
          "profile": [
            "http://hl7.eu/fhir/eps/StructureDefinition/patient-eu-eps"
          ]
        },
        "identifier": [
          {
            "type": {
              "coding": [
                {
                  "code": "NI",
                  "system": "http://terminology.hl7.org/CodeSystem/v2-0203"
                }
              ]
            },
            "system": "http://ec.europa.eu/identifier/eci",
            "value": "9847-452473-7"
          },
          {
            "type": {
              "coding": [
                {
                  "code": "MR",
                  "system": "http://terminology.hl7.org/CodeSystem/v2-0203"
                }
              ]
            },
            "system": "http://local.setting.eu/identifier",
            "value": "fc65519a-cac6-cbd5-093c-b16158c8293f"
          }
        ],
        "name": [
          {
            "given": [
              "Ulpu"
            ],
            "family": "Almila",
            "text": "Ulpu Almila"
          }
        ],
        "address": [
          {
            "line": [
              "Viru 51"
            ],
            "use": "home",
            "type": "physical",
            "city": "Tupenurme",
            "postalCode": "94764",
            "country": "Estonia"
          }
        ],
        "telecom": [
          {
            "system": "phone",
            "value": "+372 458 0550"
          }
        ],
        "gender": "female",
        "birthDate": "1993-09-03"
      }
    },
    {
      "fullUrl": "urn:uuid:641961a0-d1c2-4f9e-a37b-98660099a61d",
      "resource": {
        "resourceType": "PractitionerRole",
        "id": "641961a0-d1c2-4f9e-a37b-98660099a61d",
        "meta": {
          "profile": [
            "http://hl7.eu/fhir/base/StructureDefinition/practitionerRole-eu"
          ]
        },
        "practitioner": {
          "reference": "urn:uuid:7f4bdb2d-42ea-4652-a5f2-ee8dc2fa527f"
        },
        "organization": {
          "reference": "urn:uuid:5e003dda-4fb1-42d0-b1c4-a6f3fa473083"
        }
      }
    },
    {
      "fullUrl": "urn:uuid:7f4bdb2d-42ea-4652-a5f2-ee8dc2fa527f",
      "resource": {
        "resourceType": "Practitioner",
        "id": "7f4bdb2d-42ea-4652-a5f2-ee8dc2fa527f",
        "meta": {
          "profile": [
            "http://hl7.eu/fhir/base/StructureDefinition/practitioner-eu"
          ]
        },
        "name": [
          {
            "prefix": [
              "Dr."
            ],
            "given": [
              "Hel"
            ],
            "family": "Ping"
          }
        ]
      }
    },
    {
      "fullUrl": "urn:uuid:b4b64e23-7096-43af-bb21-2e4c331a2db8",
      "resource": {
        "resourceType": "Condition",
        "id": "b4b64e23-7096-43af-bb21-2e4c331a2db8",
        "meta": {
          "profile": [
            "http://hl7.org/fhir/uv/ips/StructureDefinition/Condition-uv-ips"
          ]
        },
        "category": [
          {
            "coding": [
              {
                "code": "problem-list-item",
                "system": "http://terminology.hl7.org/CodeSystem/condition-category",
                "display": "Problem List Item"
              }
            ]
          }
        ],
        "code": {
          "coding": [
            {
              "code": "67782005",
              "system": "http://snomed.info/sct",
              "display": "Acute respiratory distress syndrome (disorder)"
            }
          ],
          "text": "Acute respiratory distress syndrome"
        },
        "onsetDateTime": "2022-08-14",
        "clinicalStatus": {
          "coding": [
            {
              "code": "active",
              "system": "http://terminology.hl7.org/CodeSystem/condition-clinical"
            }
          ]
        },
        "subject": {
          "reference": "Patient/22a048f7-2f05-4ec5-90c4-d513b996bcba",
          "display": "Ulpu Almila"
        },
        "asserter": {
          "reference": "Practitioner/7f4bdb2d-42ea-4652-a5f2-ee8dc2fa527f",
          "display": "Dr. Hel Ping"
        }
      }
    },
    {
      "fullUrl": "urn:uuid:54413642-75a3-43a5-811e-ef80022dde05",
      "resource": {
        "resourceType": "Condition",
        "id": "54413642-75a3-43a5-811e-ef80022dde05",
        "meta": {
          "profile": [
            "http://hl7.org/fhir/uv/ips/StructureDefinition/Condition-uv-ips"
          ]
        },
        "category": [
          {
            "coding": [
              {
                "code": "problem-list-item",
                "system": "http://terminology.hl7.org/CodeSystem/condition-category",
                "display": "Problem List Item"
              }
            ]
          }
        ],
        "code": {
          "coding": [
            {
              "code": "91302008",
              "system": "http://snomed.info/sct",
              "display": "Sepsis (disorder)"
            }
          ],
          "text": "Sepsis"
        },
        "onsetDateTime": "2022-07-28",
        "clinicalStatus": {
          "coding": [
            {
              "code": "active",
              "system": "http://terminology.hl7.org/CodeSystem/condition-clinical"
            }
          ]
        },
        "subject": {
          "reference": "Patient/22a048f7-2f05-4ec5-90c4-d513b996bcba",
          "display": "Ulpu Almila"
        },
        "asserter": {
          "reference": "Practitioner/7f4bdb2d-42ea-4652-a5f2-ee8dc2fa527f",
          "display": "Dr. Hel Ping"
        }
      }
    },
    {
      "fullUrl": "urn:uuid:9c2c3f4b-54df-454c-b607-9a52dc63c252",
      "resource": {
        "resourceType": "Condition",
        "id": "9c2c3f4b-54df-454c-b607-9a52dc63c252",
        "meta": {
          "profile": [
            "http://hl7.org/fhir/uv/ips/StructureDefinition/Condition-uv-ips"
          ]
        },
        "category": [
          {
            "coding": [
              {
                "code": "problem-list-item",
                "system": "http://terminology.hl7.org/CodeSystem/condition-category",
                "display": "Problem List Item"
              }
            ]
          }
        ],
        "code": {
          "coding": [
            {
              "code": "6525002",
              "system": "http://snomed.info/sct",
              "display": "Dependent drug abuse (disorder)"
            }
          ],
          "text": "Dependent drug abuse"
        },
        "onsetDateTime": "2016-01-03",
        "clinicalStatus": {
          "coding": [
            {
              "code": "active",
              "system": "http://terminology.hl7.org/CodeSystem/condition-clinical"
            }
          ]
        },
        "subject": {
          "reference": "Patient/22a048f7-2f05-4ec5-90c4-d513b996bcba",
          "display": "Ulpu Almila"
        },
        "asserter": {
          "reference": "Practitioner/7f4bdb2d-42ea-4652-a5f2-ee8dc2fa527f",
          "display": "Dr. Hel Ping"
        }
      }
    },
    {
      "fullUrl": "urn:uuid:4ac79bdd-502b-4bcd-b4f8-7e7acc393214",
      "resource": {
        "resourceType": "Condition",
        "id": "4ac79bdd-502b-4bcd-b4f8-7e7acc393214",
        "meta": {
          "profile": [
            "http://hl7.org/fhir/uv/ips/StructureDefinition/Condition-uv-ips"
          ]
        },
        "category": [
          {
            "coding": [
              {
                "code": "problem-list-item",
                "system": "http://terminology.hl7.org/CodeSystem/condition-category",
                "display": "Problem List Item"
              }
            ]
          }
        ],
        "code": {
          "coding": [
            {
              "code": "40055000",
              "system": "http://snomed.info/sct",
              "display": "Chronic sinusitis (disorder)"
            }
          ],
          "text": "Chronic sinusitis"
        },
        "onsetDateTime": "2015-05-10",
        "clinicalStatus": {
          "coding": [
            {
              "code": "active",
              "system": "http://terminology.hl7.org/CodeSystem/condition-clinical"
            }
          ]
        },
        "subject": {
          "reference": "Patient/22a048f7-2f05-4ec5-90c4-d513b996bcba",
          "display": "Ulpu Almila"
        },
        "asserter": {
          "reference": "Practitioner/7f4bdb2d-42ea-4652-a5f2-ee8dc2fa527f",
          "display": "Dr. Hel Ping"
        }
      }
    },
    {
      "fullUrl": "urn:uuid:2d5e1961-7670-46f5-b6e1-c007e65b74ef",
      "resource": {
        "resourceType": "Condition",
        "id": "2d5e1961-7670-46f5-b6e1-c007e65b74ef",
        "meta": {
          "profile": [
            "http://hl7.org/fhir/uv/ips/StructureDefinition/Condition-uv-ips"
          ]
        },
        "category": [
          {
            "coding": [
              {
                "code": "problem-list-item",
                "system": "http://terminology.hl7.org/CodeSystem/condition-category",
                "display": "Problem List Item"
              }
            ]
          }
        ],
        "code": {
          "coding": [
            {
              "code": "124171000119105",
              "system": "http://snomed.info/sct",
              "display": "Chronic intractable migraine without aura (disorder)"
            }
          ],
          "text": "Chronic intractable migraine without aura"
        },
        "onsetDateTime": "2002-08-09",
        "clinicalStatus": {
          "coding": [
            {
              "code": "active",
              "system": "http://terminology.hl7.org/CodeSystem/condition-clinical"
            }
          ]
        },
        "subject": {
          "reference": "Patient/22a048f7-2f05-4ec5-90c4-d513b996bcba",
          "display": "Ulpu Almila"
        },
        "asserter": {
          "reference": "Practitioner/7f4bdb2d-42ea-4652-a5f2-ee8dc2fa527f",
          "display": "Dr. Hel Ping"
        }
      }
    },
    {
      "fullUrl": "urn:uuid:34fe9026-60e0-413b-a277-b309ec4ebaca",
      "resource": {
        "resourceType": "Condition",
        "id": "34fe9026-60e0-413b-a277-b309ec4ebaca",
        "meta": {
          "profile": [
            "http://hl7.org/fhir/uv/ips/StructureDefinition/Condition-uv-ips"
          ]
        },
        "category": [
          {
            "coding": [
              {
                "code": "problem-list-item",
                "system": "http://terminology.hl7.org/CodeSystem/condition-category",
                "display": "Problem List Item"
              }
            ]
          }
        ],
        "code": {
          "coding": [
            {
              "code": "196416002",
              "system": "http://snomed.info/sct",
              "display": "Impacted molars (disorder)"
            }
          ],
          "text": "Impacted molars"
        },
        "onsetDateTime": "2002-03-09",
        "clinicalStatus": {
          "coding": [
            {
              "code": "active",
              "system": "http://terminology.hl7.org/CodeSystem/condition-clinical"
            }
          ]
        },
        "subject": {
          "reference": "Patient/22a048f7-2f05-4ec5-90c4-d513b996bcba",
          "display": "Ulpu Almila"
        },
        "asserter": {
          "reference": "Practitioner/7f4bdb2d-42ea-4652-a5f2-ee8dc2fa527f",
          "display": "Dr. Hel Ping"
        }
      }
    },
    {
      "fullUrl": "urn:uuid:59c7f349-639f-43d0-9cec-0b439e2fdb80",
      "resource": {
        "resourceType": "Condition",
        "id": "59c7f349-639f-43d0-9cec-0b439e2fdb80",
        "meta": {
          "profile": [
            "http://hl7.org/fhir/uv/ips/StructureDefinition/Condition-uv-ips"
          ]
        },
        "category": [
          {
            "coding": [
              {
                "code": "problem-list-item",
                "system": "http://terminology.hl7.org/CodeSystem/condition-category",
                "display": "Problem List Item"
              }
            ]
          }
        ],
        "code": {
          "coding": [
            {
              "code": "109570002",
              "system": "http://snomed.info/sct",
              "display": "Primary dental caries (disorder)"
            }
          ],
          "text": "Primary dental caries"
        },
        "onsetDateTime": "2025-03-09",
        "clinicalStatus": {
          "coding": [
            {
              "code": "inactive",
              "system": "http://terminology.hl7.org/CodeSystem/condition-clinical"
            }
          ]
        },
        "subject": {
          "reference": "Patient/22a048f7-2f05-4ec5-90c4-d513b996bcba",
          "display": "Ulpu Almila"
        },
        "asserter": {
          "reference": "Practitioner/7f4bdb2d-42ea-4652-a5f2-ee8dc2fa527f",
          "display": "Dr. Hel Ping"
        }
      }
    },
    {
      "fullUrl": "urn:uuid:c6c0c7ac-0717-4be3-98cf-dc8f285fff65",
      "resource": {
        "resourceType": "Condition",
        "id": "c6c0c7ac-0717-4be3-98cf-dc8f285fff65",
        "meta": {
          "profile": [
            "http://hl7.org/fhir/uv/ips/StructureDefinition/Condition-uv-ips"
          ]
        },
        "category": [
          {
            "coding": [
              {
                "code": "problem-list-item",
                "system": "http://terminology.hl7.org/CodeSystem/condition-category",
                "display": "Problem List Item"
              }
            ]
          }
        ],
        "code": {
          "coding": [
            {
              "code": "19169002",
              "system": "http://snomed.info/sct",
              "display": "Miscarriage in first trimester (disorder)"
            }
          ],
          "text": "Miscarriage in first trimester"
        },
        "onsetDateTime": "2023-09-24",
        "clinicalStatus": {
          "coding": [
            {
              "code": "inactive",
              "system": "http://terminology.hl7.org/CodeSystem/condition-clinical"
            }
          ]
        },
        "subject": {
          "reference": "Patient/22a048f7-2f05-4ec5-90c4-d513b996bcba",
          "display": "Ulpu Almila"
        },
        "asserter": {
          "reference": "Practitioner/7f4bdb2d-42ea-4652-a5f2-ee8dc2fa527f",
          "display": "Dr. Hel Ping"
        }
      }
    },
    {
      "fullUrl": "urn:uuid:c5a38632-a9fe-4174-a492-4433414a9dcc",
      "resource": {
        "resourceType": "Condition",
        "id": "c5a38632-a9fe-4174-a492-4433414a9dcc",
        "meta": {
          "profile": [
            "http://hl7.org/fhir/uv/ips/StructureDefinition/Condition-uv-ips"
          ]
        },
        "category": [
          {
            "coding": [
              {
                "code": "problem-list-item",
                "system": "http://terminology.hl7.org/CodeSystem/condition-category",
                "display": "Problem List Item"
              }
            ]
          }
        ],
        "code": {
          "coding": [
            {
              "code": "156073000",
              "system": "http://snomed.info/sct",
              "display": "Complete miscarriage (disorder)"
            }
          ],
          "text": "Complete miscarriage"
        },
        "onsetDateTime": "2023-09-24",
        "clinicalStatus": {
          "coding": [
            {
              "code": "inactive",
              "system": "http://terminology.hl7.org/CodeSystem/condition-clinical"
            }
          ]
        },
        "subject": {
          "reference": "Patient/22a048f7-2f05-4ec5-90c4-d513b996bcba",
          "display": "Ulpu Almila"
        },
        "asserter": {
          "reference": "Practitioner/7f4bdb2d-42ea-4652-a5f2-ee8dc2fa527f",
          "display": "Dr. Hel Ping"
        }
      }
    },
    {
      "fullUrl": "urn:uuid:7b0f227a-d155-496a-a4a8-892a0bfbc736",
      "resource": {
        "resourceType": "Condition",
        "id": "7b0f227a-d155-496a-a4a8-892a0bfbc736",
        "meta": {
          "profile": [
            "http://hl7.org/fhir/uv/ips/StructureDefinition/Condition-uv-ips"
          ]
        },
        "category": [
          {
            "coding": [
              {
                "code": "problem-list-item",
                "system": "http://terminology.hl7.org/CodeSystem/condition-category",
                "display": "Problem List Item"
              }
            ]
          }
        ],
        "code": {
          "coding": [
            {
              "code": "444814009",
              "system": "http://snomed.info/sct",
              "display": "Viral sinusitis (disorder)"
            }
          ],
          "text": "Viral sinusitis"
        },
        "onsetDateTime": "2021-02-28",
        "clinicalStatus": {
          "coding": [
            {
              "code": "inactive",
              "system": "http://terminology.hl7.org/CodeSystem/condition-clinical"
            }
          ]
        },
        "subject": {
          "reference": "Patient/22a048f7-2f05-4ec5-90c4-d513b996bcba",
          "display": "Ulpu Almila"
        },
        "asserter": {
          "reference": "Practitioner/7f4bdb2d-42ea-4652-a5f2-ee8dc2fa527f",
          "display": "Dr. Hel Ping"
        }
      }
    },
    {
      "fullUrl": "urn:uuid:c41905ca-86e6-4799-9143-a3b266282f7d",
      "resource": {
        "resourceType": "Condition",
        "id": "c41905ca-86e6-4799-9143-a3b266282f7d",
        "meta": {
          "profile": [
            "http://hl7.org/fhir/uv/ips/StructureDefinition/Condition-uv-ips"
          ]
        },
        "category": [
          {
            "coding": [
              {
                "code": "problem-list-item",
                "system": "http://terminology.hl7.org/CodeSystem/condition-category",
                "display": "Problem List Item"
              }
            ]
          }
        ],
        "code": {
          "coding": [
            {
              "code": "840539006",
              "system": "http://snomed.info/sct",
              "display": "Disease caused by severe acute respiratory syndrome coronavirus 2 (disorder)"
            }
          ],
          "text": "COVID-19"
        },
        "onsetDateTime": "2021-02-22",
        "clinicalStatus": {
          "coding": [
            {
              "code": "inactive",
              "system": "http://terminology.hl7.org/CodeSystem/condition-clinical"
            }
          ]
        },
        "subject": {
          "reference": "Patient/22a048f7-2f05-4ec5-90c4-d513b996bcba",
          "display": "Ulpu Almila"
        },
        "asserter": {
          "reference": "Practitioner/7f4bdb2d-42ea-4652-a5f2-ee8dc2fa527f",
          "display": "Dr. Hel Ping"
        }
      }
    },
    {
      "fullUrl": "urn:uuid:fb425aaa-d774-4911-a239-a2d2f489abd6",
      "resource": {
        "resourceType": "Condition",
        "id": "fb425aaa-d774-4911-a239-a2d2f489abd6",
        "meta": {
          "profile": [
            "http://hl7.org/fhir/uv/ips/StructureDefinition/Condition-uv-ips"
          ]
        },
        "category": [
          {
            "coding": [
              {
                "code": "problem-list-item",
                "system": "http://terminology.hl7.org/CodeSystem/condition-category",
                "display": "Problem List Item"
              }
            ]
          }
        ],
        "code": {
          "coding": [
            {
              "code": "75498004",
              "system": "http://snomed.info/sct",
              "display": "Acute bacterial sinusitis (disorder)"
            }
          ],
          "text": "Acute bacterial sinusitis"
        },
        "onsetDateTime": "2015-03-25",
        "clinicalStatus": {
          "coding": [
            {
              "code": "inactive",
              "system": "http://terminology.hl7.org/CodeSystem/condition-clinical"
            }
          ]
        },
        "subject": {
          "reference": "Patient/22a048f7-2f05-4ec5-90c4-d513b996bcba",
          "display": "Ulpu Almila"
        },
        "asserter": {
          "reference": "Practitioner/7f4bdb2d-42ea-4652-a5f2-ee8dc2fa527f",
          "display": "Dr. Hel Ping"
        }
      }
    },
    {
      "fullUrl": "urn:uuid:e8196f38-414b-47f6-93c5-8d0ba29d0003",
      "resource": {
        "resourceType": "Medication",
        "id": "e8196f38-414b-47f6-93c5-8d0ba29d0003",
        "meta": {
          "profile": [
            "http://hl7.org/fhir/uv/ips/StructureDefinition/Medication-uv-ips"
          ]
        },
        "code": {
          "coding": [
            {
              "code": "748962",
              "system": "http://www.nlm.nih.gov/research/umls/rxnorm",
              "display": "Camila 28 Day Pack"
            }
          ],
          "text": "Camila 28 Day Pack"
        }
      }
    },
    {
      "fullUrl": "urn:uuid:7844a19f-1125-47cc-864f-b80a5ec5fd8b",
      "resource": {
        "resourceType": "MedicationStatement",
        "id": "7844a19f-1125-47cc-864f-b80a5ec5fd8b",
        "meta": {
          "profile": [
            "http://hl7.org/fhir/uv/ips/StructureDefinition/MedicationStatement-uv-ips"
          ]
        },
        "effectivePeriod": {
          "start": "2024-07-13"
        },
        "dosage": [
          {
            "doseAndRate": [
              {
                "doseQuantity": {
                  "value": 1,
                  "unit": "{tbl}",
                  "code": "{tbl}"
                }
              }
            ],
            "timing": {
              "repeat": {
                "frequency": 1,
                "period": 1,
                "periodUnit": "d"
              }
            },
            "text": "1 tablet (0.35 mg) by mouth once daily",
            "asNeededBoolean": false
          }
        ],
        "status": "active",
        "medicationReference": {
          "reference": "Medication/e8196f38-414b-47f6-93c5-8d0ba29d0003",
          "display": "Camila 28 Day Pack"
        },
        "subject": {
          "reference": "Patient/22a048f7-2f05-4ec5-90c4-d513b996bcba",
          "display": "Ulpu Almila"
        }
      }
    },
    {
      "fullUrl": "urn:uuid:2aca2b41-e7ea-4954-842f-2a5d5d565a70",
      "resource": {
        "resourceType": "AllergyIntolerance",
        "id": "2aca2b41-e7ea-4954-842f-2a5d5d565a70",
        "meta": {
          "profile": [
            "http://hl7.eu/fhir/eps/StructureDefinition/allergyIntolerance-eu-eps"
          ]
        },
        "code": {
          "coding": [
            {
              "code": "716186003",
              "system": "http://snomed.info/sct",
              "display": "No known allergy (situation)"
            }
          ]
        },
        "patient": {
          "reference": "Patient/22a048f7-2f05-4ec5-90c4-d513b996bcba",
          "display": "Ulpu Almila"
        },
        "_onsetDateTime": {
          "extension": [
            {
              "url": "http://hl7.org/fhir/StructureDefinition/data-absent-reason",
              "valueCode": "unknown"
            }
          ]
        }
      }
    },
    {
      "fullUrl": "urn:uuid:c8645523-f0be-4524-9753-2d3784eb9a82",
      "resource": {
        "resourceType": "Procedure",
        "id": "c8645523-f0be-4524-9753-2d3784eb9a82",
        "meta": {
          "profile": [
            "http://hl7.org/fhir/uv/ips/StructureDefinition/Procedure-uv-ips"
          ]
        },
        "code": {
          "coding": [
            {
              "code": "386216000",
              "system": "http://snomed.info/sct",
              "display": "Human parturition  function (observable entity)"
            }
          ],
          "text": "Human parturition"
        },
        "reasonCode": [
          {
            "coding": [
              {
                "code": "72892002",
                "system": "http://snomed.info/sct",
                "display": "Normal pregnancy (finding)"
              }
            ]
          }
        ],
        "status": "completed",
        "subject": {
          "reference": "Patient/22a048f7-2f05-4ec5-90c4-d513b996bcba",
          "display": "Ulpu Almila"
        },
        "performedDateTime": "2023-05-14"
      }
    },
    {
      "fullUrl": "urn:uuid:5327bfcd-19b8-484f-b2a1-9334fab21fd4",
      "resource": {
        "resourceType": "Procedure",
        "id": "5327bfcd-19b8-484f-b2a1-9334fab21fd4",
        "meta": {
          "profile": [
            "http://hl7.org/fhir/uv/ips/StructureDefinition/Procedure-uv-ips"
          ]
        },
        "code": {
          "coding": [
            {
              "code": "449214001",
              "system": "http://snomed.info/sct",
              "display": "Transfer to stepdown unit (procedure)"
            }
          ],
          "text": "Transfer to stepdown unit"
        },
        "reasonCode": [
          {
            "coding": [
              {
                "code": "91302008",
                "system": "http://snomed.info/sct",
                "display": "Sepsis (disorder)"
              }
            ]
          }
        ],
        "status": "completed",
        "subject": {
          "reference": "Patient/22a048f7-2f05-4ec5-90c4-d513b996bcba",
          "display": "Ulpu Almila"
        },
        "performedDateTime": "2022-08-20"
      }
    },
    {
      "fullUrl": "urn:uuid:7c40e657-6a00-4802-80fb-695c44a31997",
      "resource": {
        "resourceType": "Procedure",
        "id": "7c40e657-6a00-4802-80fb-695c44a31997",
        "meta": {
          "profile": [
            "http://hl7.org/fhir/uv/ips/StructureDefinition/Procedure-uv-ips"
          ]
        },
        "code": {
          "coding": [
            {
              "code": "243174005",
              "system": "http://snomed.info/sct",
              "display": "Weaning from mechanically assisted ventilation (regime/therapy)"
            }
          ],
          "text": "Weaning from mechanically assisted ventilation"
        },
        "reasonCode": [
          {
            "coding": [
              {
                "code": "67782005",
                "system": "http://snomed.info/sct",
                "display": "Acute respiratory distress syndrome (disorder)"
              }
            ]
          }
        ],
        "status": "completed",
        "subject": {
          "reference": "Patient/22a048f7-2f05-4ec5-90c4-d513b996bcba",
          "display": "Ulpu Almila"
        },
        "performedDateTime": "2022-08-18"
      }
    },
    {
      "fullUrl": "urn:uuid:bf469dd7-741a-49a5-b8cb-1a487e3f84eb",
      "resource": {
        "resourceType": "Procedure",
        "id": "bf469dd7-741a-49a5-b8cb-1a487e3f84eb",
        "meta": {
          "profile": [
            "http://hl7.org/fhir/uv/ips/StructureDefinition/Procedure-uv-ips"
          ]
        },
        "code": {
          "coding": [
            {
              "code": "40617009",
              "system": "http://snomed.info/sct",
              "display": "Artificial ventilation (regime/therapy)"
            }
          ],
          "text": "Artificial ventilation"
        },
        "reasonCode": [
          {
            "coding": [
              {
                "code": "67782005",
                "system": "http://snomed.info/sct",
                "display": "Acute respiratory distress syndrome (disorder)"
              }
            ]
          }
        ],
        "status": "completed",
        "subject": {
          "reference": "Patient/22a048f7-2f05-4ec5-90c4-d513b996bcba",
          "display": "Ulpu Almila"
        },
        "performedDateTime": "2022-08-14"
      }
    },
    {
      "fullUrl": "urn:uuid:2f394b9f-cd47-4438-88ee-ddc6f9e6e4af",
      "resource": {
        "resourceType": "Procedure",
        "id": "2f394b9f-cd47-4438-88ee-ddc6f9e6e4af",
        "meta": {
          "profile": [
            "http://hl7.org/fhir/uv/ips/StructureDefinition/Procedure-uv-ips"
          ]
        },
        "code": {
          "coding": [
            {
              "code": "305351004",
              "system": "http://snomed.info/sct",
              "display": "Admission to intensive care unit (procedure)"
            }
          ],
          "text": "Admission to intensive care unit"
        },
        "reasonCode": [
          {
            "coding": [
              {
                "code": "76571007",
                "system": "http://snomed.info/sct",
                "display": "Septic shock (disorder)"
              }
            ]
          }
        ],
        "status": "completed",
        "subject": {
          "reference": "Patient/22a048f7-2f05-4ec5-90c4-d513b996bcba",
          "display": "Ulpu Almila"
        },
        "performedDateTime": "2022-08-14"
      }
    },
    {
      "fullUrl": "urn:uuid:ff170c0c-f062-405e-8d41-a9ed17ad1959",
      "resource": {
        "resourceType": "Procedure",
        "id": "ff170c0c-f062-405e-8d41-a9ed17ad1959",
        "meta": {
          "profile": [
            "http://hl7.org/fhir/uv/ips/StructureDefinition/Procedure-uv-ips"
          ]
        },
        "code": {
          "coding": [
            {
              "code": "430701006",
              "system": "http://snomed.info/sct",
              "display": "Resuscitation using intravenous fluid (procedure)"
            }
          ],
          "text": "Resuscitation using intravenous fluid"
        },
        "reasonCode": [
          {
            "coding": [
              {
                "code": "76571007",
                "system": "http://snomed.info/sct",
                "display": "Septic shock (disorder)"
              }
            ]
          }
        ],
        "status": "completed",
        "subject": {
          "reference": "Patient/22a048f7-2f05-4ec5-90c4-d513b996bcba",
          "display": "Ulpu Almila"
        },
        "performedDateTime": "2022-08-14"
      }
    },
    {
      "fullUrl": "urn:uuid:04ee7da9-c078-4de6-8f7e-5c457ea1d347",
      "resource": {
        "resourceType": "Procedure",
        "id": "04ee7da9-c078-4de6-8f7e-5c457ea1d347",
        "meta": {
          "profile": [
            "http://hl7.org/fhir/uv/ips/StructureDefinition/Procedure-uv-ips"
          ]
        },
        "code": {
          "coding": [
            {
              "code": "85548006",
              "system": "http://snomed.info/sct",
              "display": "Episiotomy (procedure)"
            }
          ],
          "text": "Episiotomy"
        },
        "reasonCode": [
          {
            "coding": [
              {
                "code": "72892002",
                "system": "http://snomed.info/sct",
                "display": "Normal pregnancy (finding)"
              }
            ]
          }
        ],
        "status": "completed",
        "subject": {
          "reference": "Patient/22a048f7-2f05-4ec5-90c4-d513b996bcba",
          "display": "Ulpu Almila"
        },
        "performedDateTime": "2015-07-12"
      }
    },
    {
      "fullUrl": "urn:uuid:eaa046a4-2875-4fd5-882b-e0f2571e2421",
      "resource": {
        "resourceType": "Immunization",
        "id": "eaa046a4-2875-4fd5-882b-e0f2571e2421",
        "meta": {
          "profile": [
            "http://hl7.org/fhir/uv/ips/StructureDefinition/Immunization-uv-ips"
          ]
        },
        "vaccineCode": {
          "coding": [
            {
              "code": "1181000221105",
              "system": "http://snomed.info/sct",
              "display": "Vaccine product containing Influenza virus antigen"
            },
            {
              "code": "J07BB02",
              "system": "http://www.whocc.no/atc",
              "display": "Influenza, inactivated, split virus"
            },
            {
              "code": "140",
              "system": "http://hl7.org/fhir/sid/cvx",
              "display": "Influenza  seasonal  injectable  preservative free"
            }
          ],
          "text": "Influenza virus antigen only vaccine product"
        },
        "site": {
          "coding": [
            {
              "code": "73776007",
              "system": "http://snomed.info/sct",
              "display": "Structure of muscle of upper arm"
            }
          ],
          "text": "Structure of muscle of upper arm"
        },
        "route": {
          "coding": [
            {
              "code": "78421000",
              "system": "http://snomed.info/sct",
              "display": "Intramuscular route"
            }
          ],
          "text": "Intramuscular route"
        },
        "status": "completed",
        "patient": {
          "reference": "Patient/22a048f7-2f05-4ec5-90c4-d513b996bcba",
          "display": "Ulpu Almila"
        },
        "occurrenceDateTime": "2025-02-23",
        "lotNumber": "VN-Sh3s3n",
        "expirationDate": "2025-03-25"
      }
    },
    {
      "fullUrl": "urn:uuid:e7694cff-3c40-44c9-a501-19ab25e31df5",
      "resource": {
        "resourceType": "Immunization",
        "id": "e7694cff-3c40-44c9-a501-19ab25e31df5",
        "meta": {
          "profile": [
            "http://hl7.org/fhir/uv/ips/StructureDefinition/Immunization-uv-ips"
          ]
        },
        "vaccineCode": {
          "coding": [
            {
              "code": "1119349007",
              "system": "http://snomed.info/sct",
              "display": "Vaccine product containing SARS-CoV-2 mRNA"
            },
            {
              "code": "J07BX03",
              "system": "http://www.whocc.no/atc",
              "display": "COVID-19 mRNA vaccines"
            },
            {
              "code": "208",
              "system": "http://hl7.org/fhir/sid/cvx",
              "display": "COVID-19  mRNA  LNP-S  PF  30 mcg/0.3 mL dose"
            }
          ],
          "text": "SARS-CoV-2 mRNA vaccine"
        },
        "site": {
          "coding": [
            {
              "code": "73776007",
              "system": "http://snomed.info/sct",
              "display": "Structure of muscle of upper arm"
            }
          ],
          "text": "Structure of muscle of upper arm"
        },
        "route": {
          "coding": [
            {
              "code": "78421000",
              "system": "http://snomed.info/sct",
              "display": "Intramuscular route"
            }
          ],
          "text": "Intramuscular route"
        },
        "status": "completed",
        "patient": {
          "reference": "Patient/22a048f7-2f05-4ec5-90c4-d513b996bcba",
          "display": "Ulpu Almila"
        },
        "occurrenceDateTime": "2021-03-21",
        "lotNumber": "VH-UzPYmpj",
        "expirationDate": "2022-03-28"
      }
    },
    {
      "fullUrl": "urn:uuid:c189d04f-be1d-4c46-9f8a-09d846a726dd",
      "resource": {
        "resourceType": "Immunization",
        "id": "c189d04f-be1d-4c46-9f8a-09d846a726dd",
        "meta": {
          "profile": [
            "http://hl7.org/fhir/uv/ips/StructureDefinition/Immunization-uv-ips"
          ]
        },
        "vaccineCode": {
          "coding": [
            {
              "code": "777725002",
              "system": "http://snomed.info/sct",
              "display": "Vaccine product containing only Clostridium tetani toxoid antigen adsorbed"
            },
            {
              "code": "J07AM51",
              "system": "http://www.whocc.no/atc",
              "display": "Diphtheria-tetanus vaccines, adult type"
            },
            {
              "code": "113",
              "system": "http://hl7.org/fhir/sid/cvx",
              "display": "Td (adult)  5 Lf tetanus toxoid  preservative free  adsorbed"
            }
          ],
          "text": "Clostridium tetani toxoid antigen adsorbed only vaccine product"
        },
        "site": {
          "coding": [
            {
              "code": "73776007",
              "system": "http://snomed.info/sct",
              "display": "Structure of muscle of upper arm"
            }
          ],
          "text": "Structure of muscle of upper arm"
        },
        "route": {
          "coding": [
            {
              "code": "78421000",
              "system": "http://snomed.info/sct",
              "display": "Intramuscular route"
            }
          ],
          "text": "Intramuscular route"
        },
        "status": "completed",
        "patient": {
          "reference": "Patient/22a048f7-2f05-4ec5-90c4-d513b996bcba",
          "display": "Ulpu Almila"
        },
        "occurrenceDateTime": "2019-02-17",
        "lotNumber": "YE-hrGjt7M",
        "expirationDate": "2019-05-22"
      }
    }
  ],
  "type": "document",
  "timestamp": "2025-06-17T11:26:49Z"
}
