{
  "resourceType": "Bundle",
  "id": "Instance-Bundle-4da41c22-533c-454a-96bb-a2524e84fedd",
  "meta": {
    "profile": [
      "http://hl7.eu/fhir/eps/StructureDefinition/bundle-eu-eps"
    ]
  },
  "identifier": {
    "assigner": {
      "display": "HL7 Europe"
    },
    "system": "urn:oid:2.16.840.1.113883.2.51.999",
    "value": "2f6da3b6-1ab0-4266-9f0f-09a0b44a460c"
  },
  "entry": [
    {
      "fullUrl": "urn:uuid:c1142ce7-dcd9-48f8-90f6-0fff42335f3a",
      "resource": {
        "resourceType": "Composition",
        "id": "c1142ce7-dcd9-48f8-90f6-0fff42335f3a",
        "meta": {
          "profile": [
            "http://hl7.eu/fhir/eps/StructureDefinition/composition-eu-eps"
          ]
        },
        "identifier": {
          "assigner": {
            "display": "HL7 Europe"
          },
          "system": "urn:oid:2.16.840.1.113883.2.51.999",
          "value": "1283af19-9a4d-4a53-8f07-7e5aa35b100b"
        },
        "type": {
          "coding": [
            {
              "system": "http://loinc.org",
              "code": "60591-5",
              "display": "European Patient Summary"
            }
          ],
          "text": "European Patient Summary"
        },
        "author": [
          {
            "reference": "urn:uuid:4a117d93-9137-4208-88f8-9df46b4a4fcd"
          }
        ],
        "section": [
          {
            "text": {
              "status": "generated",
              "div": "<div xmlns=\"http://www.w3.org/1999/xhtml\"><table class=\"hl7__ips\"><tr><td>Chronic sinusitis</td><td>2016-04-17</td><td>active</td></tr><tr><td>Loss of teeth</td><td>2007-09-26</td><td>active</td></tr><tr><td>Gingival disease</td><td>2022-10-05</td><td>inactive</td></tr><tr><td>Acute pulmonary embolism</td><td>2020-08-02</td><td>inactive</td></tr><tr><td>Acute respiratory failure</td><td>2020-07-26</td><td>inactive</td></tr><tr><td>Pneumonia</td><td>2020-07-26</td><td>inactive</td></tr><tr><td>Hypoxemia</td><td>2020-07-26</td><td>inactive</td></tr><tr><td>Sepsis caused by virus</td><td>2020-07-26</td><td>inactive</td></tr><tr><td>COVID-19</td><td>2020-07-26</td><td>inactive</td></tr><tr><td>Gingival disease</td><td>2019-10-02</td><td>inactive</td></tr><tr><td>Sprain of ankle</td><td>2018-12-19</td><td>inactive</td></tr><tr><td>Sinusitis</td><td>2016-02-20</td><td>inactive</td></tr></table></div>"
            },
            "entry": [
              {
                "reference": "urn:uuid:5cc29b67-0628-42ce-ba70-aa19cbf5d08d"
              },
              {
                "reference": "urn:uuid:3c8c7e64-bf03-421d-a43e-7d4811f854e1"
              },
              {
                "reference": "urn:uuid:8b1a9cb0-62f8-4e5c-ae8f-09457e07724b"
              },
              {
                "reference": "urn:uuid:a56e00b4-9ebc-4dca-b329-fee77eeb21f2"
              },
              {
                "reference": "urn:uuid:ff16ee24-ef68-4959-bc93-d26de2a5fc2c"
              },
              {
                "reference": "urn:uuid:249977cd-6257-4645-920d-e0d9eaae1e4f"
              },
              {
                "reference": "urn:uuid:5e4c3f33-9b5f-4e90-8411-b430ee0e2dbc"
              },
              {
                "reference": "urn:uuid:7356ec55-c975-4964-8eb5-6c0e9e2f3c24"
              },
              {
                "reference": "urn:uuid:dfa42963-5615-4737-b9bf-201554551a12"
              },
              {
                "reference": "urn:uuid:5554e859-819c-44be-93cb-f4114dfa49b1"
              },
              {
                "reference": "urn:uuid:7ab13d63-47d0-4f0b-82f1-df4124ff22c6"
              },
              {
                "reference": "urn:uuid:b0d95615-6fb7-4e28-9f12-062a5d9320e9"
              }
            ],
            "code": {
              "coding": [
                {
                  "system": "http://loinc.org",
                  "code": "11450-4",
                  "display": "Problem list - Reported"
                }
              ]
            },
            "title": "Problem list"
          },
          {
            "text": {
              "status": "generated",
              "div": "<div xmlns=\"http://www.w3.org/1999/xhtml\"><table class=\"hl7__ips\"><tr><td>No known medications</td><td></td><td></td><td></td><td></td></tr></table></div>"
            },
            "entry": [
              {
                "reference": "urn:uuid:e7a69088-17d4-46b4-b137-b29e20efd1dc"
              },
              {
                "reference": "urn:uuid:e7a69088-17d4-46b4-b137-b29e20efd1dc"
              }
            ],
            "code": {
              "coding": [
                {
                  "system": "http://loinc.org",
                  "code": "10160-0",
                  "display": "History of Medication use Narrative"
                }
              ]
            },
            "title": "Medication list"
          },
          {
            "text": {
              "status": "generated",
              "div": "<div xmlns=\"http://www.w3.org/1999/xhtml\"><table class=\"hl7__ips\"><tr><td>No known allergies or intolerances</td></tr></table></div>"
            },
            "entry": [
              {
                "reference": "urn:uuid:f5c9578b-72f9-45be-909d-98398910cdd6"
              }
            ],
            "code": {
              "coding": [
                {
                  "system": "http://loinc.org",
                  "code": "48765-2",
                  "display": "Allergies and adverse reactions Document"
                }
              ]
            },
            "title": "Allergies and Intolerances"
          },
          {
            "text": {
              "status": "generated",
              "div": "<div xmlns=\"http://www.w3.org/1999/xhtml\"><table class=\"hl7__ips\"><tr><td>Oxygen administration by mask</td><td>2020-08-09</td><td>Hypoxemia (disorder)</td></tr><tr><td>Placing subject in prone position</td><td>2020-08-09</td><td>Hypoxemia (disorder)</td></tr><tr><td>Plain X-ray of chest</td><td>2020-07-26</td><td>-</td></tr></table></div>"
            },
            "entry": [
              {
                "reference": "urn:uuid:1b5b1f83-537a-44b2-a18c-edbc23a95671"
              },
              {
                "reference": "urn:uuid:21d60e0e-34bb-4d52-bc52-cdb327184363"
              },
              {
                "reference": "urn:uuid:07362981-5aed-48eb-b42c-0453a9906b61"
              }
            ],
            "code": {
              "coding": [
                {
                  "system": "http://loinc.org",
                  "code": "47519-4",
                  "display": "History of Procedures Document"
                }
              ]
            },
            "title": "Procedure History list"
          },
          {
            "text": {
              "status": "generated",
              "div": "<div xmlns=\"http://www.w3.org/1999/xhtml\"><table class=\"hl7__ips\"><tr><td>Influenza virus antigen only vaccine product</td><td>2022-09-21</td></tr><tr><td>Clostridium tetani toxoid antigen adsorbed only vaccine product</td><td>2019-09-18</td></tr></table></div>"
            },
            "entry": [
              {
                "reference": "urn:uuid:cf10651e-735c-4cc6-8b1a-ad5e534d93bb"
              },
              {
                "reference": "urn:uuid:cfd15dcd-5332-494d-a266-acf47b035bfd"
              }
            ],
            "code": {
              "coding": [
                {
                  "system": "http://loinc.org",
                  "code": "11369-6",
                  "display": "History of Immunization Narrative"
                }
              ]
            },
            "title": "Immunizations list"
          }
        ],
        "title": "European Patient Summary",
        "status": "final",
        "subject": {
          "reference": "urn:uuid:b43129c2-b09e-4f70-973e-8330ee6600f6"
        },
        "custodian": {
          "reference": "urn:uuid:26fa5af0-ee14-45b5-b6dd-af2c4dbaf838"
        },
        "date": "2025-06-16T17:28:57Z",
        "confidentiality": "N"
      }
    },
    {
      "fullUrl": "urn:uuid:b43129c2-b09e-4f70-973e-8330ee6600f6",
      "resource": {
        "resourceType": "Patient",
        "id": "b43129c2-b09e-4f70-973e-8330ee6600f6",
        "meta": {
          "profile": [
            "http://hl7.eu/fhir/eps/StructureDefinition/patient-eu-eps"
          ]
        },
        "identifier": [
          {
            "type": {
              "coding": [
                {
                  "code": "NI",
                  "system": "http://terminology.hl7.org/CodeSystem/v2-0203"
                }
              ]
            },
            "system": "http://ec.europa.eu/identifier/eci",
            "value": "4849-340331-4"
          },
          {
            "type": {
              "coding": [
                {
                  "code": "MR",
                  "system": "http://terminology.hl7.org/CodeSystem/v2-0203"
                }
              ]
            },
            "system": "http://local.setting.eu/identifier",
            "value": "c525e0a9-c37c-419c-db08-86080b4b774d"
          }
        ],
        "name": [
          {
            "given": [
              "Rame"
            ],
            "family": "Asković",
            "text": "Rame Asković"
          }
        ],
        "address": [
          {
            "line": [
              "Litzelhofenstrasse 35"
            ],
            "use": "home",
            "type": "physical",
            "city": "Zeillern",
            "postalCode": "3312",
            "country": "Austria"
          }
        ],
        "telecom": [
          {
            "system": "phone",
            "value": "+43 0676 218 63 16"
          }
        ],
        "gender": "male",
        "birthDate": "1989-03-28"
      }
    },
    {
      "fullUrl": "urn:uuid:4a117d93-9137-4208-88f8-9df46b4a4fcd",
      "resource": {
        "resourceType": "PractitionerRole",
        "id": "4a117d93-9137-4208-88f8-9df46b4a4fcd",
        "meta": {
          "profile": [
            "http://hl7.eu/fhir/base/StructureDefinition/practitionerRole-eu"
          ]
        },
        "practitioner": {
          "reference": "urn:uuid:0cdfa60c-3862-4aae-99b8-9c6307979920"
        },
        "organization": {
          "reference": "urn:uuid:26fa5af0-ee14-45b5-b6dd-af2c4dbaf838"
        }
      }
    },
    {
      "fullUrl": "urn:uuid:0cdfa60c-3862-4aae-99b8-9c6307979920",
      "resource": {
        "resourceType": "Practitioner",
        "id": "0cdfa60c-3862-4aae-99b8-9c6307979920",
        "meta": {
          "profile": [
            "http://hl7.eu/fhir/base/StructureDefinition/practitioner-eu"
          ]
        },
        "name": [
          {
            "prefix": [
              "Dr."
            ],
            "given": [
              "Hel"
            ],
            "family": "Ping"
          }
        ]
      }
    },
    {
      "fullUrl": "urn:uuid:5cc29b67-0628-42ce-ba70-aa19cbf5d08d",
      "resource": {
        "resourceType": "Condition",
        "id": "5cc29b67-0628-42ce-ba70-aa19cbf5d08d",
        "meta": {
          "profile": [
            "http://hl7.org/fhir/uv/ips/StructureDefinition/Condition-uv-ips"
          ]
        },
        "category": [
          {
            "coding": [
              {
                "code": "problem-list-item",
                "system": "http://terminology.hl7.org/CodeSystem/condition-category",
                "display": "Problem List Item"
              }
            ]
          }
        ],
        "code": {
          "coding": [
            {
              "code": "40055000",
              "system": "http://snomed.info/sct",
              "display": "Chronic sinusitis (disorder)"
            }
          ],
          "text": "Chronic sinusitis"
        },
        "onsetDateTime": "2016-04-17",
        "clinicalStatus": {
          "coding": [
            {
              "code": "active",
              "system": "http://terminology.hl7.org/CodeSystem/condition-clinical"
            }
          ]
        },
        "subject": {
          "reference": "Patient/b43129c2-b09e-4f70-973e-8330ee6600f6",
          "display": "Rame Asković"
        },
        "asserter": {
          "reference": "Practitioner/0cdfa60c-3862-4aae-99b8-9c6307979920",
          "display": "Dr. Hel Ping"
        }
      }
    },
    {
      "fullUrl": "urn:uuid:3c8c7e64-bf03-421d-a43e-7d4811f854e1",
      "resource": {
        "resourceType": "Condition",
        "id": "3c8c7e64-bf03-421d-a43e-7d4811f854e1",
        "meta": {
          "profile": [
            "http://hl7.org/fhir/uv/ips/StructureDefinition/Condition-uv-ips"
          ]
        },
        "category": [
          {
            "coding": [
              {
                "code": "problem-list-item",
                "system": "http://terminology.hl7.org/CodeSystem/condition-category",
                "display": "Problem List Item"
              }
            ]
          }
        ],
        "code": {
          "coding": [
            {
              "code": "37320007",
              "system": "http://snomed.info/sct",
              "display": "Loss of teeth (disorder)"
            }
          ],
          "text": "Loss of teeth"
        },
        "onsetDateTime": "2007-09-26",
        "clinicalStatus": {
          "coding": [
            {
              "code": "active",
              "system": "http://terminology.hl7.org/CodeSystem/condition-clinical"
            }
          ]
        },
        "subject": {
          "reference": "Patient/b43129c2-b09e-4f70-973e-8330ee6600f6",
          "display": "Rame Asković"
        },
        "asserter": {
          "reference": "Practitioner/0cdfa60c-3862-4aae-99b8-9c6307979920",
          "display": "Dr. Hel Ping"
        }
      }
    },
    {
      "fullUrl": "urn:uuid:8b1a9cb0-62f8-4e5c-ae8f-09457e07724b",
      "resource": {
        "resourceType": "Condition",
        "id": "8b1a9cb0-62f8-4e5c-ae8f-09457e07724b",
        "meta": {
          "profile": [
            "http://hl7.org/fhir/uv/ips/StructureDefinition/Condition-uv-ips"
          ]
        },
        "category": [
          {
            "coding": [
              {
                "code": "problem-list-item",
                "system": "http://terminology.hl7.org/CodeSystem/condition-category",
                "display": "Problem List Item"
              }
            ]
          }
        ],
        "code": {
          "coding": [
            {
              "code": "18718003",
              "system": "http://snomed.info/sct",
              "display": "Gingival disease (disorder)"
            }
          ],
          "text": "Gingival disease"
        },
        "onsetDateTime": "2022-10-05",
        "clinicalStatus": {
          "coding": [
            {
              "code": "inactive",
              "system": "http://terminology.hl7.org/CodeSystem/condition-clinical"
            }
          ]
        },
        "subject": {
          "reference": "Patient/b43129c2-b09e-4f70-973e-8330ee6600f6",
          "display": "Rame Asković"
        },
        "asserter": {
          "reference": "Practitioner/0cdfa60c-3862-4aae-99b8-9c6307979920",
          "display": "Dr. Hel Ping"
        }
      }
    },
    {
      "fullUrl": "urn:uuid:a56e00b4-9ebc-4dca-b329-fee77eeb21f2",
      "resource": {
        "resourceType": "Condition",
        "id": "a56e00b4-9ebc-4dca-b329-fee77eeb21f2",
        "meta": {
          "profile": [
            "http://hl7.org/fhir/uv/ips/StructureDefinition/Condition-uv-ips"
          ]
        },
        "category": [
          {
            "coding": [
              {
                "code": "problem-list-item",
                "system": "http://terminology.hl7.org/CodeSystem/condition-category",
                "display": "Problem List Item"
              }
            ]
          }
        ],
        "code": {
          "coding": [
            {
              "code": "706870000",
              "system": "http://snomed.info/sct",
              "display": "Acute pulmonary embolism (disorder)"
            }
          ],
          "text": "Acute pulmonary embolism"
        },
        "onsetDateTime": "2020-08-02",
        "clinicalStatus": {
          "coding": [
            {
              "code": "inactive",
              "system": "http://terminology.hl7.org/CodeSystem/condition-clinical"
            }
          ]
        },
        "subject": {
          "reference": "Patient/b43129c2-b09e-4f70-973e-8330ee6600f6",
          "display": "Rame Asković"
        },
        "asserter": {
          "reference": "Practitioner/0cdfa60c-3862-4aae-99b8-9c6307979920",
          "display": "Dr. Hel Ping"
        }
      }
    },
    {
      "fullUrl": "urn:uuid:ff16ee24-ef68-4959-bc93-d26de2a5fc2c",
      "resource": {
        "resourceType": "Condition",
        "id": "ff16ee24-ef68-4959-bc93-d26de2a5fc2c",
        "meta": {
          "profile": [
            "http://hl7.org/fhir/uv/ips/StructureDefinition/Condition-uv-ips"
          ]
        },
        "category": [
          {
            "coding": [
              {
                "code": "problem-list-item",
                "system": "http://terminology.hl7.org/CodeSystem/condition-category",
                "display": "Problem List Item"
              }
            ]
          }
        ],
        "code": {
          "coding": [
            {
              "code": "65710008",
              "system": "http://snomed.info/sct",
              "display": "Acute respiratory failure (disorder)"
            }
          ],
          "text": "Acute respiratory failure"
        },
        "onsetDateTime": "2020-07-26",
        "clinicalStatus": {
          "coding": [
            {
              "code": "inactive",
              "system": "http://terminology.hl7.org/CodeSystem/condition-clinical"
            }
          ]
        },
        "subject": {
          "reference": "Patient/b43129c2-b09e-4f70-973e-8330ee6600f6",
          "display": "Rame Asković"
        },
        "asserter": {
          "reference": "Practitioner/0cdfa60c-3862-4aae-99b8-9c6307979920",
          "display": "Dr. Hel Ping"
        }
      }
    },
    {
      "fullUrl": "urn:uuid:249977cd-6257-4645-920d-e0d9eaae1e4f",
      "resource": {
        "resourceType": "Condition",
        "id": "249977cd-6257-4645-920d-e0d9eaae1e4f",
        "meta": {
          "profile": [
            "http://hl7.org/fhir/uv/ips/StructureDefinition/Condition-uv-ips"
          ]
        },
        "category": [
          {
            "coding": [
              {
                "code": "problem-list-item",
                "system": "http://terminology.hl7.org/CodeSystem/condition-category",
                "display": "Problem List Item"
              }
            ]
          }
        ],
        "code": {
          "coding": [
            {
              "code": "233604007",
              "system": "http://snomed.info/sct",
              "display": "Pneumonia (disorder)"
            }
          ],
          "text": "Pneumonia"
        },
        "onsetDateTime": "2020-07-26",
        "clinicalStatus": {
          "coding": [
            {
              "code": "inactive",
              "system": "http://terminology.hl7.org/CodeSystem/condition-clinical"
            }
          ]
        },
        "subject": {
          "reference": "Patient/b43129c2-b09e-4f70-973e-8330ee6600f6",
          "display": "Rame Asković"
        },
        "asserter": {
          "reference": "Practitioner/0cdfa60c-3862-4aae-99b8-9c6307979920",
          "display": "Dr. Hel Ping"
        }
      }
    },
    {
      "fullUrl": "urn:uuid:5e4c3f33-9b5f-4e90-8411-b430ee0e2dbc",
      "resource": {
        "resourceType": "Condition",
        "id": "5e4c3f33-9b5f-4e90-8411-b430ee0e2dbc",
        "meta": {
          "profile": [
            "http://hl7.org/fhir/uv/ips/StructureDefinition/Condition-uv-ips"
          ]
        },
        "category": [
          {
            "coding": [
              {
                "code": "problem-list-item",
                "system": "http://terminology.hl7.org/CodeSystem/condition-category",
                "display": "Problem List Item"
              }
            ]
          }
        ],
        "code": {
          "coding": [
            {
              "code": "389087006",
              "system": "http://snomed.info/sct",
              "display": "Hypoxemia (disorder)"
            }
          ],
          "text": "Hypoxemia"
        },
        "onsetDateTime": "2020-07-26",
        "clinicalStatus": {
          "coding": [
            {
              "code": "inactive",
              "system": "http://terminology.hl7.org/CodeSystem/condition-clinical"
            }
          ]
        },
        "subject": {
          "reference": "Patient/b43129c2-b09e-4f70-973e-8330ee6600f6",
          "display": "Rame Asković"
        },
        "asserter": {
          "reference": "Practitioner/0cdfa60c-3862-4aae-99b8-9c6307979920",
          "display": "Dr. Hel Ping"
        }
      }
    },
    {
      "fullUrl": "urn:uuid:7356ec55-c975-4964-8eb5-6c0e9e2f3c24",
      "resource": {
        "resourceType": "Condition",
        "id": "7356ec55-c975-4964-8eb5-6c0e9e2f3c24",
        "meta": {
          "profile": [
            "http://hl7.org/fhir/uv/ips/StructureDefinition/Condition-uv-ips"
          ]
        },
        "category": [
          {
            "coding": [
              {
                "code": "problem-list-item",
                "system": "http://terminology.hl7.org/CodeSystem/condition-category",
                "display": "Problem List Item"
              }
            ]
          }
        ],
        "code": {
          "coding": [
            {
              "code": "770349000",
              "system": "http://snomed.info/sct",
              "display": "Sepsis caused by virus (disorder)"
            }
          ],
          "text": "Sepsis caused by virus"
        },
        "onsetDateTime": "2020-07-26",
        "clinicalStatus": {
          "coding": [
            {
              "code": "inactive",
              "system": "http://terminology.hl7.org/CodeSystem/condition-clinical"
            }
          ]
        },
        "subject": {
          "reference": "Patient/b43129c2-b09e-4f70-973e-8330ee6600f6",
          "display": "Rame Asković"
        },
        "asserter": {
          "reference": "Practitioner/0cdfa60c-3862-4aae-99b8-9c6307979920",
          "display": "Dr. Hel Ping"
        }
      }
    },
    {
      "fullUrl": "urn:uuid:dfa42963-5615-4737-b9bf-201554551a12",
      "resource": {
        "resourceType": "Condition",
        "id": "dfa42963-5615-4737-b9bf-201554551a12",
        "meta": {
          "profile": [
            "http://hl7.org/fhir/uv/ips/StructureDefinition/Condition-uv-ips"
          ]
        },
        "category": [
          {
            "coding": [
              {
                "code": "problem-list-item",
                "system": "http://terminology.hl7.org/CodeSystem/condition-category",
                "display": "Problem List Item"
              }
            ]
          }
        ],
        "code": {
          "coding": [
            {
              "code": "840539006",
              "system": "http://snomed.info/sct",
              "display": "Disease caused by severe acute respiratory syndrome coronavirus 2 (disorder)"
            }
          ],
          "text": "COVID-19"
        },
        "onsetDateTime": "2020-07-26",
        "clinicalStatus": {
          "coding": [
            {
              "code": "inactive",
              "system": "http://terminology.hl7.org/CodeSystem/condition-clinical"
            }
          ]
        },
        "subject": {
          "reference": "Patient/b43129c2-b09e-4f70-973e-8330ee6600f6",
          "display": "Rame Asković"
        },
        "asserter": {
          "reference": "Practitioner/0cdfa60c-3862-4aae-99b8-9c6307979920",
          "display": "Dr. Hel Ping"
        }
      }
    },
    {
      "fullUrl": "urn:uuid:5554e859-819c-44be-93cb-f4114dfa49b1",
      "resource": {
        "resourceType": "Condition",
        "id": "5554e859-819c-44be-93cb-f4114dfa49b1",
        "meta": {
          "profile": [
            "http://hl7.org/fhir/uv/ips/StructureDefinition/Condition-uv-ips"
          ]
        },
        "category": [
          {
            "coding": [
              {
                "code": "problem-list-item",
                "system": "http://terminology.hl7.org/CodeSystem/condition-category",
                "display": "Problem List Item"
              }
            ]
          }
        ],
        "code": {
          "coding": [
            {
              "code": "18718003",
              "system": "http://snomed.info/sct",
              "display": "Gingival disease (disorder)"
            }
          ],
          "text": "Gingival disease"
        },
        "onsetDateTime": "2019-10-02",
        "clinicalStatus": {
          "coding": [
            {
              "code": "inactive",
              "system": "http://terminology.hl7.org/CodeSystem/condition-clinical"
            }
          ]
        },
        "subject": {
          "reference": "Patient/b43129c2-b09e-4f70-973e-8330ee6600f6",
          "display": "Rame Asković"
        },
        "asserter": {
          "reference": "Practitioner/0cdfa60c-3862-4aae-99b8-9c6307979920",
          "display": "Dr. Hel Ping"
        }
      }
    },
    {
      "fullUrl": "urn:uuid:7ab13d63-47d0-4f0b-82f1-df4124ff22c6",
      "resource": {
        "resourceType": "Condition",
        "id": "7ab13d63-47d0-4f0b-82f1-df4124ff22c6",
        "meta": {
          "profile": [
            "http://hl7.org/fhir/uv/ips/StructureDefinition/Condition-uv-ips"
          ]
        },
        "category": [
          {
            "coding": [
              {
                "code": "problem-list-item",
                "system": "http://terminology.hl7.org/CodeSystem/condition-category",
                "display": "Problem List Item"
              }
            ]
          }
        ],
        "code": {
          "coding": [
            {
              "code": "44465007",
              "system": "http://snomed.info/sct",
              "display": "Sprain of ankle (disorder)"
            }
          ],
          "text": "Sprain of ankle"
        },
        "onsetDateTime": "2018-12-19",
        "clinicalStatus": {
          "coding": [
            {
              "code": "inactive",
              "system": "http://terminology.hl7.org/CodeSystem/condition-clinical"
            }
          ]
        },
        "subject": {
          "reference": "Patient/b43129c2-b09e-4f70-973e-8330ee6600f6",
          "display": "Rame Asković"
        },
        "asserter": {
          "reference": "Practitioner/0cdfa60c-3862-4aae-99b8-9c6307979920",
          "display": "Dr. Hel Ping"
        }
      }
    },
    {
      "fullUrl": "urn:uuid:b0d95615-6fb7-4e28-9f12-062a5d9320e9",
      "resource": {
        "resourceType": "Condition",
        "id": "b0d95615-6fb7-4e28-9f12-062a5d9320e9",
        "meta": {
          "profile": [
            "http://hl7.org/fhir/uv/ips/StructureDefinition/Condition-uv-ips"
          ]
        },
        "category": [
          {
            "coding": [
              {
                "code": "problem-list-item",
                "system": "http://terminology.hl7.org/CodeSystem/condition-category",
                "display": "Problem List Item"
              }
            ]
          }
        ],
        "code": {
          "coding": [
            {
              "code": "36971009",
              "system": "http://snomed.info/sct",
              "display": "Sinusitis (disorder)"
            }
          ],
          "text": "Sinusitis"
        },
        "onsetDateTime": "2016-02-20",
        "clinicalStatus": {
          "coding": [
            {
              "code": "inactive",
              "system": "http://terminology.hl7.org/CodeSystem/condition-clinical"
            }
          ]
        },
        "subject": {
          "reference": "Patient/b43129c2-b09e-4f70-973e-8330ee6600f6",
          "display": "Rame Asković"
        },
        "asserter": {
          "reference": "Practitioner/0cdfa60c-3862-4aae-99b8-9c6307979920",
          "display": "Dr. Hel Ping"
        }
      }
    },
    {
      "fullUrl": "urn:uuid:e7a69088-17d4-46b4-b137-b29e20efd1dc",
      "resource": {
        "resourceType": "MedicationStatement",
        "id": "e7a69088-17d4-46b4-b137-b29e20efd1dc",
        "meta": {
          "profile": [
            "http://hl7.org/fhir/uv/ips/StructureDefinition/MedicationStatement-uv-ips"
          ]
        },
        "effectivePeriod": {
          "extension": [
            {
              "url": "http://hl7.org/fhir/StructureDefinition/data-absent-reason",
              "valueCode": "unknown"
            }
          ]
        },
        "status": "active",
        "medicationCodeableConcept": {
          "coding": [
            {
              "code": "787481004",
              "system": "http://snomed.info/sct",
              "display": "No known medications (situation)"
            }
          ]
        },
        "subject": {
          "reference": "Patient/b43129c2-b09e-4f70-973e-8330ee6600f6",
          "display": "Rame Asković"
        }
      }
    },
    {
      "fullUrl": "urn:uuid:e7a69088-17d4-46b4-b137-b29e20efd1dc",
      "resource": {
        "resourceType": "MedicationStatement",
        "id": "e7a69088-17d4-46b4-b137-b29e20efd1dc",
        "meta": {
          "profile": [
            "http://hl7.org/fhir/uv/ips/StructureDefinition/MedicationStatement-uv-ips"
          ]
        },
        "effectivePeriod": {
          "extension": [
            {
              "url": "http://hl7.org/fhir/StructureDefinition/data-absent-reason",
              "valueCode": "unknown"
            }
          ]
        },
        "status": "active",
        "medicationCodeableConcept": {
          "coding": [
            {
              "code": "787481004",
              "system": "http://snomed.info/sct",
              "display": "No known medications (situation)"
            }
          ]
        },
        "subject": {
          "reference": "Patient/b43129c2-b09e-4f70-973e-8330ee6600f6",
          "display": "Rame Asković"
        }
      }
    },
    {
      "fullUrl": "urn:uuid:f5c9578b-72f9-45be-909d-98398910cdd6",
      "resource": {
        "resourceType": "AllergyIntolerance",
        "id": "f5c9578b-72f9-45be-909d-98398910cdd6",
        "meta": {
          "profile": [
            "http://hl7.eu/fhir/eps/StructureDefinition/allergyIntolerance-eu-eps"
          ]
        },
        "code": {
          "coding": [
            {
              "code": "716186003",
              "system": "http://snomed.info/sct",
              "display": "No known allergy (situation)"
            }
          ]
        },
        "patient": {
          "reference": "Patient/b43129c2-b09e-4f70-973e-8330ee6600f6",
          "display": "Rame Asković"
        },
        "_onsetDateTime": {
          "extension": [
            {
              "url": "http://hl7.org/fhir/StructureDefinition/data-absent-reason",
              "valueCode": "unknown"
            }
          ]
        }
      }
    },
    {
      "fullUrl": "urn:uuid:1b5b1f83-537a-44b2-a18c-edbc23a95671",
      "resource": {
        "resourceType": "Procedure",
        "id": "1b5b1f83-537a-44b2-a18c-edbc23a95671",
        "meta": {
          "profile": [
            "http://hl7.org/fhir/uv/ips/StructureDefinition/Procedure-uv-ips"
          ]
        },
        "code": {
          "coding": [
            {
              "code": "371908008",
              "system": "http://snomed.info/sct",
              "display": "Oxygen administration by mask (procedure)"
            }
          ],
          "text": "Oxygen administration by mask"
        },
        "reasonCode": [
          {
            "coding": [
              {
                "code": "389087006",
                "system": "http://snomed.info/sct",
                "display": "Hypoxemia (disorder)"
              }
            ]
          }
        ],
        "status": "completed",
        "subject": {
          "reference": "Patient/b43129c2-b09e-4f70-973e-8330ee6600f6",
          "display": "Rame Asković"
        },
        "performedDateTime": "2020-08-09"
      }
    },
    {
      "fullUrl": "urn:uuid:21d60e0e-34bb-4d52-bc52-cdb327184363",
      "resource": {
        "resourceType": "Procedure",
        "id": "21d60e0e-34bb-4d52-bc52-cdb327184363",
        "meta": {
          "profile": [
            "http://hl7.org/fhir/uv/ips/StructureDefinition/Procedure-uv-ips"
          ]
        },
        "code": {
          "coding": [
            {
              "code": "431182000",
              "system": "http://snomed.info/sct",
              "display": "Placing subject in prone position (procedure)"
            }
          ],
          "text": "Placing subject in prone position"
        },
        "reasonCode": [
          {
            "coding": [
              {
                "code": "389087006",
                "system": "http://snomed.info/sct",
                "display": "Hypoxemia (disorder)"
              }
            ]
          }
        ],
        "status": "completed",
        "subject": {
          "reference": "Patient/b43129c2-b09e-4f70-973e-8330ee6600f6",
          "display": "Rame Asković"
        },
        "performedDateTime": "2020-08-09"
      }
    },
    {
      "fullUrl": "urn:uuid:07362981-5aed-48eb-b42c-0453a9906b61",
      "resource": {
        "resourceType": "Procedure",
        "id": "07362981-5aed-48eb-b42c-0453a9906b61",
        "meta": {
          "profile": [
            "http://hl7.org/fhir/uv/ips/StructureDefinition/Procedure-uv-ips"
          ]
        },
        "code": {
          "coding": [
            {
              "code": "399208008",
              "system": "http://snomed.info/sct",
              "display": "Plain X-ray of chest (procedure)"
            }
          ],
          "text": "Plain X-ray of chest"
        },
        "status": "completed",
        "subject": {
          "reference": "Patient/b43129c2-b09e-4f70-973e-8330ee6600f6",
          "display": "Rame Asković"
        },
        "performedDateTime": "2020-07-26"
      }
    },
    {
      "fullUrl": "urn:uuid:cf10651e-735c-4cc6-8b1a-ad5e534d93bb",
      "resource": {
        "resourceType": "Immunization",
        "id": "cf10651e-735c-4cc6-8b1a-ad5e534d93bb",
        "meta": {
          "profile": [
            "http://hl7.org/fhir/uv/ips/StructureDefinition/Immunization-uv-ips"
          ]
        },
        "vaccineCode": {
          "coding": [
            {
              "code": "1181000221105",
              "system": "http://snomed.info/sct",
              "display": "Vaccine product containing Influenza virus antigen"
            },
            {
              "code": "J07BB02",
              "system": "http://www.whocc.no/atc",
              "display": "Influenza, inactivated, split virus"
            },
            {
              "code": "140",
              "system": "http://hl7.org/fhir/sid/cvx",
              "display": "Influenza  seasonal  injectable  preservative free"
            }
          ],
          "text": "Influenza virus antigen only vaccine product"
        },
        "site": {
          "coding": [
            {
              "code": "73776007",
              "system": "http://snomed.info/sct",
              "display": "Structure of muscle of upper arm"
            }
          ],
          "text": "Structure of muscle of upper arm"
        },
        "route": {
          "coding": [
            {
              "code": "78421000",
              "system": "http://snomed.info/sct",
              "display": "Intramuscular route"
            }
          ],
          "text": "Intramuscular route"
        },
        "status": "completed",
        "patient": {
          "reference": "Patient/b43129c2-b09e-4f70-973e-8330ee6600f6",
          "display": "Rame Asković"
        },
        "occurrenceDateTime": "2022-09-21",
        "lotNumber": "UF-w3uJRRBG",
        "expirationDate": "2023-09-06"
      }
    },
    {
      "fullUrl": "urn:uuid:cfd15dcd-5332-494d-a266-acf47b035bfd",
      "resource": {
        "resourceType": "Immunization",
        "id": "cfd15dcd-5332-494d-a266-acf47b035bfd",
        "meta": {
          "profile": [
            "http://hl7.org/fhir/uv/ips/StructureDefinition/Immunization-uv-ips"
          ]
        },
        "vaccineCode": {
          "coding": [
            {
              "code": "777725002",
              "system": "http://snomed.info/sct",
              "display": "Vaccine product containing only Clostridium tetani toxoid antigen adsorbed"
            },
            {
              "code": "J07AM51",
              "system": "http://www.whocc.no/atc",
              "display": "Diphtheria-tetanus vaccines, adult type"
            },
            {
              "code": "113",
              "system": "http://hl7.org/fhir/sid/cvx",
              "display": "Td (adult)  5 Lf tetanus toxoid  preservative free  adsorbed"
            }
          ],
          "text": "Clostridium tetani toxoid antigen adsorbed only vaccine product"
        },
        "site": {
          "coding": [
            {
              "code": "73776007",
              "system": "http://snomed.info/sct",
              "display": "Structure of muscle of upper arm"
            }
          ],
          "text": "Structure of muscle of upper arm"
        },
        "route": {
          "coding": [
            {
              "code": "78421000",
              "system": "http://snomed.info/sct",
              "display": "Intramuscular route"
            }
          ],
          "text": "Intramuscular route"
        },
        "status": "completed",
        "patient": {
          "reference": "Patient/b43129c2-b09e-4f70-973e-8330ee6600f6",
          "display": "Rame Asković"
        },
        "occurrenceDateTime": "2019-09-18",
        "lotNumber": "BI-HtwTpZyh",
        "expirationDate": "2020-01-21"
      }
    }
  ],
  "type": "document",
  "timestamp": "2025-06-16T17:28:57Z"
}
