{
  "resourceType": "Bundle",
  "id": "Instance-Bundle-0ae18047-7e26-4218-808b-e4b990a7ebd7",
  "meta": {
    "profile": [
      "http://hl7.eu/fhir/eps/StructureDefinition/bundle-eu-eps"
    ]
  },
  "identifier": {
    "assigner": {
      "display": "HL7 Europe"
    },
    "system": "urn:oid:2.16.840.1.113883.2.51.999",
    "value": "47c549f7-861b-4cf4-b0c1-1ca72de7eaa7"
  },
  "entry": [
    {
      "fullUrl": "urn:uuid:9487000b-3228-4352-9b00-112c9785a074",
      "resource": {
        "resourceType": "Composition",
        "id": "9487000b-3228-4352-9b00-112c9785a074",
        "meta": {
          "profile": [
            "http://hl7.eu/fhir/eps/StructureDefinition/composition-eu-eps"
          ]
        },
        "identifier": {
          "assigner": {
            "display": "HL7 Europe"
          },
          "system": "urn:oid:2.16.840.1.113883.2.51.999",
          "value": "1dc19733-9fa8-4090-bf06-83c9ed31b4a5"
        },
        "type": {
          "coding": [
            {
              "system": "http://loinc.org",
              "code": "60591-5",
              "display": "European Patient Summary"
            }
          ],
          "text": "European Patient Summary"
        },
        "author": [
          {
            "reference": "urn:uuid:10f44692-f4f3-428c-814a-80b8caad31b2"
          }
        ],
        "section": [
          {
            "text": {
              "status": "generated",
              "div": "<div xmlns=\"http://www.w3.org/1999/xhtml\"><table class=\"hl7__ips\"><tr><td>Osteoporosis</td><td>2018-07-06</td><td>active</td></tr><tr><td>Hyperlipidemia</td><td>2000-03-24</td><td>active</td></tr><tr><td>Impacted molars</td><td>2000-01-26</td><td>active</td></tr><tr><td>Septic shock</td><td>1988-04-27</td><td>active</td></tr><tr><td>Sepsis</td><td>1988-04-27</td><td>active</td></tr><tr><td>Bleeding from anus</td><td>1980-12-15</td><td>active</td></tr><tr><td>Anemia</td><td>1972-03-31</td><td>active</td></tr><tr><td>Seizure disorder</td><td>1945-01-27</td><td>active</td></tr><tr><td>Aortic valve stenosis</td><td>1943-01-13</td><td>active</td></tr><tr><td>Gingivitis</td><td>2024-08-09</td><td>inactive</td></tr><tr><td>Viral sinusitis</td><td>2024-02-21</td><td>inactive</td></tr><tr><td>Viral sinusitis</td><td>2023-11-30</td><td>inactive</td></tr><tr><td>Gingivitis</td><td>2023-08-04</td><td>inactive</td></tr><tr><td>Acute bronchitis</td><td>2023-04-19</td><td>inactive</td></tr><tr><td>Gingivitis</td><td>2021-07-23</td><td>inactive</td></tr><tr><td>Primary dental caries</td><td>2018-07-20</td><td>inactive</td></tr></table></div>"
            },
            "entry": [
              {
                "reference": "urn:uuid:d8a932e2-9141-4906-b720-925139008309"
              },
              {
                "reference": "urn:uuid:e6f04454-a031-4c36-b03a-f1ce5940ec05"
              },
              {
                "reference": "urn:uuid:de27dad7-c302-4807-9ec4-78cca29902e4"
              },
              {
                "reference": "urn:uuid:eca333c1-4dec-4040-be17-4d0551e0c880"
              },
              {
                "reference": "urn:uuid:999d0178-2d14-4e74-b5d6-5f017d979418"
              },
              {
                "reference": "urn:uuid:ec305585-14ae-4259-b3f5-721a68ead1c3"
              },
              {
                "reference": "urn:uuid:71ec4f06-cf28-4408-87bc-87f6132f5882"
              },
              {
                "reference": "urn:uuid:a16ac55d-8f0b-4352-be8f-83b7dc0615ab"
              },
              {
                "reference": "urn:uuid:021823a9-4b45-472c-9fcd-e29c657f02fe"
              },
              {
                "reference": "urn:uuid:bd3fdeb8-2488-433f-a235-ec88ead463d1"
              },
              {
                "reference": "urn:uuid:4ed61d89-7041-4765-a121-b569e0cf823f"
              },
              {
                "reference": "urn:uuid:ccf3b08f-c07f-41fa-b88d-979b356898d5"
              },
              {
                "reference": "urn:uuid:8eba4f7a-83d6-47bd-9f28-89e33cfbbc11"
              },
              {
                "reference": "urn:uuid:4fa9337e-3e52-4045-b53c-8bbfb65dbc3a"
              },
              {
                "reference": "urn:uuid:1730ebd9-ff67-44e3-b93f-c09df821fbe6"
              },
              {
                "reference": "urn:uuid:e01457ab-72cf-4273-9f6b-e2daa768ff21"
              }
            ],
            "code": {
              "coding": [
                {
                  "system": "http://loinc.org",
                  "code": "11450-4",
                  "display": "Problem list - Reported"
                }
              ]
            },
            "title": "Problem list"
          },
          {
            "text": {
              "status": "generated",
              "div": "<div xmlns=\"http://www.w3.org/1999/xhtml\"><table class=\"hl7__ips\"><tr><td>Simvastatin 10 mg oral tablet</td><td>2024-08-16</td><td>Oral tablet</td><td>1 tablet (10 mg) by mouth once daily\"</td><td>Reason: Hyperlipidemia (disorder)</td></tr><tr><td>Alendronic acid (as alendronate sodium) 10 mg oral tablet</td><td>2024-08-09</td><td>Oral tablet</td><td>1 tablet (10 mg) once daily\"</td><td>Reason: Osteoporosis (disorder)</td></tr><tr><td>aspirin 81 MG Oral Capsule</td><td>2024-08-09</td><td></td><td>1 capsule (81 mg) by mouth once daily\"</td><td></td></tr></table></div>"
            },
            "entry": [
              {
                "reference": "urn:uuid:73d10de8-00f0-4727-b350-130e4643d936"
              },
              {
                "reference": "urn:uuid:b1cd5af0-ded9-4417-92ed-d80507990c5e"
              },
              {
                "reference": "urn:uuid:037403f1-0081-4dac-b823-a777fa29a1b4"
              }
            ],
            "code": {
              "coding": [
                {
                  "system": "http://loinc.org",
                  "code": "10160-0",
                  "display": "History of Medication use Narrative"
                }
              ]
            },
            "title": "Medication list"
          },
          {
            "text": {
              "status": "generated",
              "div": "<div xmlns=\"http://www.w3.org/1999/xhtml\"><table class=\"hl7__ips\"><tr><td>No known allergies or intolerances</td></tr></table></div>"
            },
            "entry": [
              {
                "reference": "urn:uuid:0c157093-5820-4686-be90-b64b5708ad53"
              }
            ],
            "code": {
              "coding": [
                {
                  "system": "http://loinc.org",
                  "code": "48765-2",
                  "display": "Allergies and adverse reactions Document"
                }
              ]
            },
            "title": "Allergies and Intolerances"
          },
          {
            "text": {
              "status": "generated",
              "div": "<div xmlns=\"http://www.w3.org/1999/xhtml\"><table class=\"hl7__ips\"><tr><td>Patient discharge</td><td>2023-02-19</td><td>-</td></tr><tr><td>Hospice care</td><td>2023-02-18</td><td>-</td></tr><tr><td>Notifications</td><td>2023-01-20</td><td>-</td></tr><tr><td>Certification procedure</td><td>2023-01-20</td><td>-</td></tr><tr><td>Initial patient assessment</td><td>2023-01-20</td><td>-</td></tr><tr><td>Development of individualized plan of care</td><td>2023-01-20</td><td>-</td></tr></table></div>"
            },
            "entry": [
              {
                "reference": "urn:uuid:7afb753e-9b10-49bc-b239-80c0d0d85224"
              },
              {
                "reference": "urn:uuid:eb3f8a02-7b1d-464d-bb57-32aa5d513f5e"
              },
              {
                "reference": "urn:uuid:d0e4565b-def7-4de8-a709-2f6919c00296"
              },
              {
                "reference": "urn:uuid:3fc2eccb-bbd2-4646-81d9-6f5431567574"
              },
              {
                "reference": "urn:uuid:b61d32a9-e169-409f-8416-cd20c9fa5f96"
              },
              {
                "reference": "urn:uuid:546cd15b-63f4-4b8d-b37a-90cab37439ee"
              }
            ],
            "code": {
              "coding": [
                {
                  "system": "http://loinc.org",
                  "code": "47519-4",
                  "display": "History of Procedures Document"
                }
              ]
            },
            "title": "Procedure History list"
          },
          {
            "text": {
              "status": "generated",
              "div": "<div xmlns=\"http://www.w3.org/1999/xhtml\"><table class=\"hl7__ips\"><tr><td>Influenza virus antigen only vaccine product</td><td>2024-08-09</td></tr><tr><td>SARS-CoV-2 mRNA vaccine</td><td>2021-04-02</td></tr><tr><td>Clostridium tetani toxoid antigen adsorbed only vaccine product</td><td>2019-07-12</td></tr></table></div>"
            },
            "entry": [
              {
                "reference": "urn:uuid:c16e3937-98ab-4d39-8af1-9adbc4d9def4"
              },
              {
                "reference": "urn:uuid:1696c4cd-3d3c-4719-bce2-d3de6bdaf6b9"
              },
              {
                "reference": "urn:uuid:92e1416f-4b0f-4840-99d0-88958ccc64da"
              }
            ],
            "code": {
              "coding": [
                {
                  "system": "http://loinc.org",
                  "code": "11369-6",
                  "display": "History of Immunization Narrative"
                }
              ]
            },
            "title": "Immunizations list"
          }
        ],
        "title": "European Patient Summary",
        "status": "final",
        "subject": {
          "reference": "urn:uuid:ae4ab734-d9fa-44a0-bac6-f42403aaefec"
        },
        "custodian": {
          "reference": "urn:uuid:1b8e0787-17cf-42b4-876b-a2a0be2e4a9b"
        },
        "date": "2025-06-16T17:19:49Z",
        "confidentiality": "N"
      }
    },
    {
      "fullUrl": "urn:uuid:ae4ab734-d9fa-44a0-bac6-f42403aaefec",
      "resource": {
        "resourceType": "Patient",
        "id": "ae4ab734-d9fa-44a0-bac6-f42403aaefec",
        "meta": {
          "profile": [
            "http://hl7.eu/fhir/eps/StructureDefinition/patient-eu-eps"
          ]
        },
        "identifier": [
          {
            "type": {
              "coding": [
                {
                  "code": "NI",
                  "system": "http://terminology.hl7.org/CodeSystem/v2-0203"
                }
              ]
            },
            "system": "http://ec.europa.eu/identifier/eci",
            "value": "2279-613165-8"
          },
          {
            "type": {
              "coding": [
                {
                  "code": "MR",
                  "system": "http://terminology.hl7.org/CodeSystem/v2-0203"
                }
              ]
            },
            "system": "http://local.setting.eu/identifier",
            "value": "59be6f33-cd77-774a-8e0f-3286eff96d1c"
          }
        ],
        "name": [
          {
            "given": [
              "Reijer"
            ],
            "family": "van Woerkom",
            "text": "Reijer van Woerkom"
          }
        ],
        "address": [
          {
            "line": [
              "Dorpsstraat 112"
            ],
            "use": "home",
            "type": "physical",
            "city": "Zevenhuizen",
            "postalCode": "2761 AN",
            "country": "Netherlands"
          }
        ],
        "telecom": [
          {
            "system": "phone",
            "value": "+31 06-10416101"
          }
        ],
        "gender": "male",
        "birthDate": "1941-12-26"
      }
    },
    {
      "fullUrl": "urn:uuid:10f44692-f4f3-428c-814a-80b8caad31b2",
      "resource": {
        "resourceType": "PractitionerRole",
        "id": "10f44692-f4f3-428c-814a-80b8caad31b2",
        "meta": {
          "profile": [
            "http://hl7.eu/fhir/base/StructureDefinition/practitionerRole-eu"
          ]
        },
        "practitioner": {
          "reference": "urn:uuid:9944eec4-256e-48e0-b2da-59352af21c98"
        },
        "organization": {
          "reference": "urn:uuid:1b8e0787-17cf-42b4-876b-a2a0be2e4a9b"
        }
      }
    },
    {
      "fullUrl": "urn:uuid:9944eec4-256e-48e0-b2da-59352af21c98",
      "resource": {
        "resourceType": "Practitioner",
        "id": "9944eec4-256e-48e0-b2da-59352af21c98",
        "meta": {
          "profile": [
            "http://hl7.eu/fhir/base/StructureDefinition/practitioner-eu"
          ]
        },
        "name": [
          {
            "prefix": [
              "Dr."
            ],
            "given": [
              "Hel"
            ],
            "family": "Ping"
          }
        ]
      }
    },
    {
      "fullUrl": "urn:uuid:d8a932e2-9141-4906-b720-925139008309",
      "resource": {
        "resourceType": "Condition",
        "id": "d8a932e2-9141-4906-b720-925139008309",
        "meta": {
          "profile": [
            "http://hl7.org/fhir/uv/ips/StructureDefinition/Condition-uv-ips"
          ]
        },
        "category": [
          {
            "coding": [
              {
                "code": "problem-list-item",
                "system": "http://terminology.hl7.org/CodeSystem/condition-category",
                "display": "Problem List Item"
              }
            ]
          }
        ],
        "code": {
          "coding": [
            {
              "code": "64859006",
              "system": "http://snomed.info/sct",
              "display": "Osteoporosis (disorder)"
            }
          ],
          "text": "Osteoporosis"
        },
        "onsetDateTime": "2018-07-06",
        "clinicalStatus": {
          "coding": [
            {
              "code": "active",
              "system": "http://terminology.hl7.org/CodeSystem/condition-clinical"
            }
          ]
        },
        "subject": {
          "reference": "Patient/ae4ab734-d9fa-44a0-bac6-f42403aaefec",
          "display": "Reijer van Woerkom"
        },
        "asserter": {
          "reference": "Practitioner/9944eec4-256e-48e0-b2da-59352af21c98",
          "display": "Dr. Hel Ping"
        }
      }
    },
    {
      "fullUrl": "urn:uuid:e6f04454-a031-4c36-b03a-f1ce5940ec05",
      "resource": {
        "resourceType": "Condition",
        "id": "e6f04454-a031-4c36-b03a-f1ce5940ec05",
        "meta": {
          "profile": [
            "http://hl7.org/fhir/uv/ips/StructureDefinition/Condition-uv-ips"
          ]
        },
        "category": [
          {
            "coding": [
              {
                "code": "problem-list-item",
                "system": "http://terminology.hl7.org/CodeSystem/condition-category",
                "display": "Problem List Item"
              }
            ]
          }
        ],
        "code": {
          "coding": [
            {
              "code": "55822004",
              "system": "http://snomed.info/sct",
              "display": "Hyperlipidemia (disorder)"
            }
          ],
          "text": "Hyperlipidemia"
        },
        "onsetDateTime": "2000-03-24",
        "clinicalStatus": {
          "coding": [
            {
              "code": "active",
              "system": "http://terminology.hl7.org/CodeSystem/condition-clinical"
            }
          ]
        },
        "subject": {
          "reference": "Patient/ae4ab734-d9fa-44a0-bac6-f42403aaefec",
          "display": "Reijer van Woerkom"
        },
        "asserter": {
          "reference": "Practitioner/9944eec4-256e-48e0-b2da-59352af21c98",
          "display": "Dr. Hel Ping"
        }
      }
    },
    {
      "fullUrl": "urn:uuid:de27dad7-c302-4807-9ec4-78cca29902e4",
      "resource": {
        "resourceType": "Condition",
        "id": "de27dad7-c302-4807-9ec4-78cca29902e4",
        "meta": {
          "profile": [
            "http://hl7.org/fhir/uv/ips/StructureDefinition/Condition-uv-ips"
          ]
        },
        "category": [
          {
            "coding": [
              {
                "code": "problem-list-item",
                "system": "http://terminology.hl7.org/CodeSystem/condition-category",
                "display": "Problem List Item"
              }
            ]
          }
        ],
        "code": {
          "coding": [
            {
              "code": "196416002",
              "system": "http://snomed.info/sct",
              "display": "Impacted molars (disorder)"
            }
          ],
          "text": "Impacted molars"
        },
        "onsetDateTime": "2000-01-26",
        "clinicalStatus": {
          "coding": [
            {
              "code": "active",
              "system": "http://terminology.hl7.org/CodeSystem/condition-clinical"
            }
          ]
        },
        "subject": {
          "reference": "Patient/ae4ab734-d9fa-44a0-bac6-f42403aaefec",
          "display": "Reijer van Woerkom"
        },
        "asserter": {
          "reference": "Practitioner/9944eec4-256e-48e0-b2da-59352af21c98",
          "display": "Dr. Hel Ping"
        }
      }
    },
    {
      "fullUrl": "urn:uuid:eca333c1-4dec-4040-be17-4d0551e0c880",
      "resource": {
        "resourceType": "Condition",
        "id": "eca333c1-4dec-4040-be17-4d0551e0c880",
        "meta": {
          "profile": [
            "http://hl7.org/fhir/uv/ips/StructureDefinition/Condition-uv-ips"
          ]
        },
        "category": [
          {
            "coding": [
              {
                "code": "problem-list-item",
                "system": "http://terminology.hl7.org/CodeSystem/condition-category",
                "display": "Problem List Item"
              }
            ]
          }
        ],
        "code": {
          "coding": [
            {
              "code": "76571007",
              "system": "http://snomed.info/sct",
              "display": "Septic shock (disorder)"
            }
          ],
          "text": "Septic shock"
        },
        "onsetDateTime": "1988-04-27",
        "clinicalStatus": {
          "coding": [
            {
              "code": "active",
              "system": "http://terminology.hl7.org/CodeSystem/condition-clinical"
            }
          ]
        },
        "subject": {
          "reference": "Patient/ae4ab734-d9fa-44a0-bac6-f42403aaefec",
          "display": "Reijer van Woerkom"
        },
        "asserter": {
          "reference": "Practitioner/9944eec4-256e-48e0-b2da-59352af21c98",
          "display": "Dr. Hel Ping"
        }
      }
    },
    {
      "fullUrl": "urn:uuid:999d0178-2d14-4e74-b5d6-5f017d979418",
      "resource": {
        "resourceType": "Condition",
        "id": "999d0178-2d14-4e74-b5d6-5f017d979418",
        "meta": {
          "profile": [
            "http://hl7.org/fhir/uv/ips/StructureDefinition/Condition-uv-ips"
          ]
        },
        "category": [
          {
            "coding": [
              {
                "code": "problem-list-item",
                "system": "http://terminology.hl7.org/CodeSystem/condition-category",
                "display": "Problem List Item"
              }
            ]
          }
        ],
        "code": {
          "coding": [
            {
              "code": "91302008",
              "system": "http://snomed.info/sct",
              "display": "Sepsis (disorder)"
            }
          ],
          "text": "Sepsis"
        },
        "onsetDateTime": "1988-04-27",
        "clinicalStatus": {
          "coding": [
            {
              "code": "active",
              "system": "http://terminology.hl7.org/CodeSystem/condition-clinical"
            }
          ]
        },
        "subject": {
          "reference": "Patient/ae4ab734-d9fa-44a0-bac6-f42403aaefec",
          "display": "Reijer van Woerkom"
        },
        "asserter": {
          "reference": "Practitioner/9944eec4-256e-48e0-b2da-59352af21c98",
          "display": "Dr. Hel Ping"
        }
      }
    },
    {
      "fullUrl": "urn:uuid:ec305585-14ae-4259-b3f5-721a68ead1c3",
      "resource": {
        "resourceType": "Condition",
        "id": "ec305585-14ae-4259-b3f5-721a68ead1c3",
        "meta": {
          "profile": [
            "http://hl7.org/fhir/uv/ips/StructureDefinition/Condition-uv-ips"
          ]
        },
        "category": [
          {
            "coding": [
              {
                "code": "problem-list-item",
                "system": "http://terminology.hl7.org/CodeSystem/condition-category",
                "display": "Problem List Item"
              }
            ]
          }
        ],
        "code": {
          "coding": [
            {
              "code": "6072007",
              "system": "http://snomed.info/sct",
              "display": "Bleeding from anus (disorder)"
            }
          ],
          "text": "Bleeding from anus"
        },
        "onsetDateTime": "1980-12-15",
        "clinicalStatus": {
          "coding": [
            {
              "code": "active",
              "system": "http://terminology.hl7.org/CodeSystem/condition-clinical"
            }
          ]
        },
        "subject": {
          "reference": "Patient/ae4ab734-d9fa-44a0-bac6-f42403aaefec",
          "display": "Reijer van Woerkom"
        },
        "asserter": {
          "reference": "Practitioner/9944eec4-256e-48e0-b2da-59352af21c98",
          "display": "Dr. Hel Ping"
        }
      }
    },
    {
      "fullUrl": "urn:uuid:71ec4f06-cf28-4408-87bc-87f6132f5882",
      "resource": {
        "resourceType": "Condition",
        "id": "71ec4f06-cf28-4408-87bc-87f6132f5882",
        "meta": {
          "profile": [
            "http://hl7.org/fhir/uv/ips/StructureDefinition/Condition-uv-ips"
          ]
        },
        "category": [
          {
            "coding": [
              {
                "code": "problem-list-item",
                "system": "http://terminology.hl7.org/CodeSystem/condition-category",
                "display": "Problem List Item"
              }
            ]
          }
        ],
        "code": {
          "coding": [
            {
              "code": "271737000",
              "system": "http://snomed.info/sct",
              "display": "Anemia (disorder)"
            }
          ],
          "text": "Anemia"
        },
        "onsetDateTime": "1972-03-31",
        "clinicalStatus": {
          "coding": [
            {
              "code": "active",
              "system": "http://terminology.hl7.org/CodeSystem/condition-clinical"
            }
          ]
        },
        "subject": {
          "reference": "Patient/ae4ab734-d9fa-44a0-bac6-f42403aaefec",
          "display": "Reijer van Woerkom"
        },
        "asserter": {
          "reference": "Practitioner/9944eec4-256e-48e0-b2da-59352af21c98",
          "display": "Dr. Hel Ping"
        }
      }
    },
    {
      "fullUrl": "urn:uuid:a16ac55d-8f0b-4352-be8f-83b7dc0615ab",
      "resource": {
        "resourceType": "Condition",
        "id": "a16ac55d-8f0b-4352-be8f-83b7dc0615ab",
        "meta": {
          "profile": [
            "http://hl7.org/fhir/uv/ips/StructureDefinition/Condition-uv-ips"
          ]
        },
        "category": [
          {
            "coding": [
              {
                "code": "problem-list-item",
                "system": "http://terminology.hl7.org/CodeSystem/condition-category",
                "display": "Problem List Item"
              }
            ]
          }
        ],
        "code": {
          "coding": [
            {
              "code": "128613002",
              "system": "http://snomed.info/sct",
              "display": "Seizure disorder (disorder)"
            }
          ],
          "text": "Seizure disorder"
        },
        "onsetDateTime": "1945-01-27",
        "clinicalStatus": {
          "coding": [
            {
              "code": "active",
              "system": "http://terminology.hl7.org/CodeSystem/condition-clinical"
            }
          ]
        },
        "subject": {
          "reference": "Patient/ae4ab734-d9fa-44a0-bac6-f42403aaefec",
          "display": "Reijer van Woerkom"
        },
        "asserter": {
          "reference": "Practitioner/9944eec4-256e-48e0-b2da-59352af21c98",
          "display": "Dr. Hel Ping"
        }
      }
    },
    {
      "fullUrl": "urn:uuid:021823a9-4b45-472c-9fcd-e29c657f02fe",
      "resource": {
        "resourceType": "Condition",
        "id": "021823a9-4b45-472c-9fcd-e29c657f02fe",
        "meta": {
          "profile": [
            "http://hl7.org/fhir/uv/ips/StructureDefinition/Condition-uv-ips"
          ]
        },
        "category": [
          {
            "coding": [
              {
                "code": "problem-list-item",
                "system": "http://terminology.hl7.org/CodeSystem/condition-category",
                "display": "Problem List Item"
              }
            ]
          }
        ],
        "code": {
          "coding": [
            {
              "code": "60573004",
              "system": "http://snomed.info/sct",
              "display": "Aortic valve stenosis (disorder)"
            }
          ],
          "text": "Aortic valve stenosis"
        },
        "onsetDateTime": "1943-01-13",
        "clinicalStatus": {
          "coding": [
            {
              "code": "active",
              "system": "http://terminology.hl7.org/CodeSystem/condition-clinical"
            }
          ]
        },
        "subject": {
          "reference": "Patient/ae4ab734-d9fa-44a0-bac6-f42403aaefec",
          "display": "Reijer van Woerkom"
        },
        "asserter": {
          "reference": "Practitioner/9944eec4-256e-48e0-b2da-59352af21c98",
          "display": "Dr. Hel Ping"
        }
      }
    },
    {
      "fullUrl": "urn:uuid:bd3fdeb8-2488-433f-a235-ec88ead463d1",
      "resource": {
        "resourceType": "Condition",
        "id": "bd3fdeb8-2488-433f-a235-ec88ead463d1",
        "meta": {
          "profile": [
            "http://hl7.org/fhir/uv/ips/StructureDefinition/Condition-uv-ips"
          ]
        },
        "category": [
          {
            "coding": [
              {
                "code": "problem-list-item",
                "system": "http://terminology.hl7.org/CodeSystem/condition-category",
                "display": "Problem List Item"
              }
            ]
          }
        ],
        "code": {
          "coding": [
            {
              "code": "66383009",
              "system": "http://snomed.info/sct",
              "display": "Gingivitis (disorder)"
            }
          ],
          "text": "Gingivitis"
        },
        "onsetDateTime": "2024-08-09",
        "clinicalStatus": {
          "coding": [
            {
              "code": "inactive",
              "system": "http://terminology.hl7.org/CodeSystem/condition-clinical"
            }
          ]
        },
        "subject": {
          "reference": "Patient/ae4ab734-d9fa-44a0-bac6-f42403aaefec",
          "display": "Reijer van Woerkom"
        },
        "asserter": {
          "reference": "Practitioner/9944eec4-256e-48e0-b2da-59352af21c98",
          "display": "Dr. Hel Ping"
        }
      }
    },
    {
      "fullUrl": "urn:uuid:4ed61d89-7041-4765-a121-b569e0cf823f",
      "resource": {
        "resourceType": "Condition",
        "id": "4ed61d89-7041-4765-a121-b569e0cf823f",
        "meta": {
          "profile": [
            "http://hl7.org/fhir/uv/ips/StructureDefinition/Condition-uv-ips"
          ]
        },
        "category": [
          {
            "coding": [
              {
                "code": "problem-list-item",
                "system": "http://terminology.hl7.org/CodeSystem/condition-category",
                "display": "Problem List Item"
              }
            ]
          }
        ],
        "code": {
          "coding": [
            {
              "code": "444814009",
              "system": "http://snomed.info/sct",
              "display": "Viral sinusitis (disorder)"
            }
          ],
          "text": "Viral sinusitis"
        },
        "onsetDateTime": "2024-02-21",
        "clinicalStatus": {
          "coding": [
            {
              "code": "inactive",
              "system": "http://terminology.hl7.org/CodeSystem/condition-clinical"
            }
          ]
        },
        "subject": {
          "reference": "Patient/ae4ab734-d9fa-44a0-bac6-f42403aaefec",
          "display": "Reijer van Woerkom"
        },
        "asserter": {
          "reference": "Practitioner/9944eec4-256e-48e0-b2da-59352af21c98",
          "display": "Dr. Hel Ping"
        }
      }
    },
    {
      "fullUrl": "urn:uuid:ccf3b08f-c07f-41fa-b88d-979b356898d5",
      "resource": {
        "resourceType": "Condition",
        "id": "ccf3b08f-c07f-41fa-b88d-979b356898d5",
        "meta": {
          "profile": [
            "http://hl7.org/fhir/uv/ips/StructureDefinition/Condition-uv-ips"
          ]
        },
        "category": [
          {
            "coding": [
              {
                "code": "problem-list-item",
                "system": "http://terminology.hl7.org/CodeSystem/condition-category",
                "display": "Problem List Item"
              }
            ]
          }
        ],
        "code": {
          "coding": [
            {
              "code": "444814009",
              "system": "http://snomed.info/sct",
              "display": "Viral sinusitis (disorder)"
            }
          ],
          "text": "Viral sinusitis"
        },
        "onsetDateTime": "2023-11-30",
        "clinicalStatus": {
          "coding": [
            {
              "code": "inactive",
              "system": "http://terminology.hl7.org/CodeSystem/condition-clinical"
            }
          ]
        },
        "subject": {
          "reference": "Patient/ae4ab734-d9fa-44a0-bac6-f42403aaefec",
          "display": "Reijer van Woerkom"
        },
        "asserter": {
          "reference": "Practitioner/9944eec4-256e-48e0-b2da-59352af21c98",
          "display": "Dr. Hel Ping"
        }
      }
    },
    {
      "fullUrl": "urn:uuid:8eba4f7a-83d6-47bd-9f28-89e33cfbbc11",
      "resource": {
        "resourceType": "Condition",
        "id": "8eba4f7a-83d6-47bd-9f28-89e33cfbbc11",
        "meta": {
          "profile": [
            "http://hl7.org/fhir/uv/ips/StructureDefinition/Condition-uv-ips"
          ]
        },
        "category": [
          {
            "coding": [
              {
                "code": "problem-list-item",
                "system": "http://terminology.hl7.org/CodeSystem/condition-category",
                "display": "Problem List Item"
              }
            ]
          }
        ],
        "code": {
          "coding": [
            {
              "code": "66383009",
              "system": "http://snomed.info/sct",
              "display": "Gingivitis (disorder)"
            }
          ],
          "text": "Gingivitis"
        },
        "onsetDateTime": "2023-08-04",
        "clinicalStatus": {
          "coding": [
            {
              "code": "inactive",
              "system": "http://terminology.hl7.org/CodeSystem/condition-clinical"
            }
          ]
        },
        "subject": {
          "reference": "Patient/ae4ab734-d9fa-44a0-bac6-f42403aaefec",
          "display": "Reijer van Woerkom"
        },
        "asserter": {
          "reference": "Practitioner/9944eec4-256e-48e0-b2da-59352af21c98",
          "display": "Dr. Hel Ping"
        }
      }
    },
    {
      "fullUrl": "urn:uuid:4fa9337e-3e52-4045-b53c-8bbfb65dbc3a",
      "resource": {
        "resourceType": "Condition",
        "id": "4fa9337e-3e52-4045-b53c-8bbfb65dbc3a",
        "meta": {
          "profile": [
            "http://hl7.org/fhir/uv/ips/StructureDefinition/Condition-uv-ips"
          ]
        },
        "category": [
          {
            "coding": [
              {
                "code": "problem-list-item",
                "system": "http://terminology.hl7.org/CodeSystem/condition-category",
                "display": "Problem List Item"
              }
            ]
          }
        ],
        "code": {
          "coding": [
            {
              "code": "10509002",
              "system": "http://snomed.info/sct",
              "display": "Acute bronchitis (disorder)"
            }
          ],
          "text": "Acute bronchitis"
        },
        "onsetDateTime": "2023-04-19",
        "clinicalStatus": {
          "coding": [
            {
              "code": "inactive",
              "system": "http://terminology.hl7.org/CodeSystem/condition-clinical"
            }
          ]
        },
        "subject": {
          "reference": "Patient/ae4ab734-d9fa-44a0-bac6-f42403aaefec",
          "display": "Reijer van Woerkom"
        },
        "asserter": {
          "reference": "Practitioner/9944eec4-256e-48e0-b2da-59352af21c98",
          "display": "Dr. Hel Ping"
        }
      }
    },
    {
      "fullUrl": "urn:uuid:1730ebd9-ff67-44e3-b93f-c09df821fbe6",
      "resource": {
        "resourceType": "Condition",
        "id": "1730ebd9-ff67-44e3-b93f-c09df821fbe6",
        "meta": {
          "profile": [
            "http://hl7.org/fhir/uv/ips/StructureDefinition/Condition-uv-ips"
          ]
        },
        "category": [
          {
            "coding": [
              {
                "code": "problem-list-item",
                "system": "http://terminology.hl7.org/CodeSystem/condition-category",
                "display": "Problem List Item"
              }
            ]
          }
        ],
        "code": {
          "coding": [
            {
              "code": "66383009",
              "system": "http://snomed.info/sct",
              "display": "Gingivitis (disorder)"
            }
          ],
          "text": "Gingivitis"
        },
        "onsetDateTime": "2021-07-23",
        "clinicalStatus": {
          "coding": [
            {
              "code": "inactive",
              "system": "http://terminology.hl7.org/CodeSystem/condition-clinical"
            }
          ]
        },
        "subject": {
          "reference": "Patient/ae4ab734-d9fa-44a0-bac6-f42403aaefec",
          "display": "Reijer van Woerkom"
        },
        "asserter": {
          "reference": "Practitioner/9944eec4-256e-48e0-b2da-59352af21c98",
          "display": "Dr. Hel Ping"
        }
      }
    },
    {
      "fullUrl": "urn:uuid:e01457ab-72cf-4273-9f6b-e2daa768ff21",
      "resource": {
        "resourceType": "Condition",
        "id": "e01457ab-72cf-4273-9f6b-e2daa768ff21",
        "meta": {
          "profile": [
            "http://hl7.org/fhir/uv/ips/StructureDefinition/Condition-uv-ips"
          ]
        },
        "category": [
          {
            "coding": [
              {
                "code": "problem-list-item",
                "system": "http://terminology.hl7.org/CodeSystem/condition-category",
                "display": "Problem List Item"
              }
            ]
          }
        ],
        "code": {
          "coding": [
            {
              "code": "109570002",
              "system": "http://snomed.info/sct",
              "display": "Primary dental caries (disorder)"
            }
          ],
          "text": "Primary dental caries"
        },
        "onsetDateTime": "2018-07-20",
        "clinicalStatus": {
          "coding": [
            {
              "code": "inactive",
              "system": "http://terminology.hl7.org/CodeSystem/condition-clinical"
            }
          ]
        },
        "subject": {
          "reference": "Patient/ae4ab734-d9fa-44a0-bac6-f42403aaefec",
          "display": "Reijer van Woerkom"
        },
        "asserter": {
          "reference": "Practitioner/9944eec4-256e-48e0-b2da-59352af21c98",
          "display": "Dr. Hel Ping"
        }
      }
    },
    {
      "fullUrl": "urn:uuid:1bb7a13b-ed2b-44a8-b1be-7adc93302e62",
      "resource": {
        "resourceType": "Medication",
        "id": "1bb7a13b-ed2b-44a8-b1be-7adc93302e62",
        "meta": {
          "profile": [
            "http://hl7.org/fhir/uv/ips/StructureDefinition/Medication-uv-ips"
          ]
        },
        "code": {
          "coding": [
            {
              "code": "314231",
              "system": "http://www.nlm.nih.gov/research/umls/rxnorm",
              "display": "simvastatin 10 MG Oral Tablet"
            },
            {
              "code": "319996000",
              "system": "http://snomed.info/sct",
              "display": "Product containing precisely simvastatin 10 milligram/1 each conventional release oral tablet (clinical drug)"
            }
          ],
          "text": "Simvastatin 10 mg oral tablet"
        },
        "form": {
          "coding": [
            {
              "code": "421026006",
              "system": "http://snomed.info/sct",
              "display": "Oral tablet"
            }
          ]
        },
        "ingredient": [
          {
            "itemCodeableConcept": {
              "coding": [
                {
                  "code": "387584000",
                  "system": "http://snomed.info/sct",
                  "display": "Simvastatin"
                }
              ]
            },
            "isActive": true
          }
        ]
      }
    },
    {
      "fullUrl": "urn:uuid:73d10de8-00f0-4727-b350-130e4643d936",
      "resource": {
        "resourceType": "MedicationStatement",
        "id": "73d10de8-00f0-4727-b350-130e4643d936",
        "effectivePeriod": {
          "start": "2024-08-16"
        },
        "dosage": [
          {
            "doseAndRate": [
              {
                "doseQuantity": {
                  "value": 1,
                  "unit": "{tbl}",
                  "code": "{tbl}"
                }
              }
            ],
            "timing": {
              "repeat": {
                "frequency": 1,
                "period": 1,
                "periodUnit": "d"
              }
            },
            "text": "1 tablet (10 mg) by mouth once daily",
            "asNeededBoolean": false
          }
        ],
        "reasonCode": [
          {
            "coding": [
              {
                "code": "55822004",
                "system": "http://snomed.info/sct",
                "display": "Hyperlipidemia (disorder)"
              }
            ]
          }
        ],
        "status": "active",
        "medicationReference": {
          "reference": "Medication/1bb7a13b-ed2b-44a8-b1be-7adc93302e62",
          "display": "Simvastatin 10 mg oral tablet"
        },
        "subject": {
          "reference": "Patient/ae4ab734-d9fa-44a0-bac6-f42403aaefec",
          "display": "Reijer van Woerkom"
        }
      }
    },
    {
      "fullUrl": "urn:uuid:fb609b16-3f2e-4182-98fd-1855cfc600fa",
      "resource": {
        "resourceType": "Medication",
        "id": "fb609b16-3f2e-4182-98fd-1855cfc600fa",
        "meta": {
          "profile": [
            "http://hl7.org/fhir/uv/ips/StructureDefinition/Medication-uv-ips"
          ]
        },
        "code": {
          "coding": [
            {
              "code": "904419",
              "system": "http://www.nlm.nih.gov/research/umls/rxnorm",
              "display": "alendronic acid 10 MG Oral Tablet"
            },
            {
              "code": "783144007",
              "system": "http://snomed.info/sct",
              "display": "Product containing precisely alendronic acid (as alendronate sodium) 10 milligram/1 each conventional release oral tablet (clinical drug)"
            }
          ],
          "text": "Alendronic acid (as alendronate sodium) 10 mg oral tablet"
        },
        "form": {
          "coding": [
            {
              "code": "421026006",
              "system": "http://snomed.info/sct",
              "display": "Oral tablet"
            }
          ]
        },
        "ingredient": [
          {
            "itemCodeableConcept": {
              "coding": [
                {
                  "code": "391729003",
                  "system": "http://snomed.info/sct",
                  "display": "Alendronate sodium"
                }
              ]
            },
            "isActive": true
          }
        ]
      }
    },
    {
      "fullUrl": "urn:uuid:b1cd5af0-ded9-4417-92ed-d80507990c5e",
      "resource": {
        "resourceType": "MedicationStatement",
        "id": "b1cd5af0-ded9-4417-92ed-d80507990c5e",
        "effectivePeriod": {
          "start": "2024-08-09"
        },
        "dosage": [
          {
            "doseAndRate": [
              {
                "doseQuantity": {
                  "value": 1,
                  "unit": "{tbl}",
                  "code": "{tbl}"
                }
              }
            ],
            "timing": {
              "repeat": {
                "frequency": 1,
                "period": 1,
                "periodUnit": "d"
              }
            },
            "text": "1 tablet (10 mg) once daily",
            "asNeededBoolean": false
          }
        ],
        "reasonCode": [
          {
            "coding": [
              {
                "code": "64859006",
                "system": "http://snomed.info/sct",
                "display": "Osteoporosis (disorder)"
              }
            ]
          }
        ],
        "status": "active",
        "medicationReference": {
          "reference": "Medication/fb609b16-3f2e-4182-98fd-1855cfc600fa",
          "display": "Alendronic acid (as alendronate sodium) 10 mg oral tablet"
        },
        "subject": {
          "reference": "Patient/ae4ab734-d9fa-44a0-bac6-f42403aaefec",
          "display": "Reijer van Woerkom"
        }
      }
    },
    {
      "fullUrl": "urn:uuid:bf9bb61c-6b23-4586-b0bb-50e599994646",
      "resource": {
        "resourceType": "Medication",
        "id": "bf9bb61c-6b23-4586-b0bb-50e599994646",
        "meta": {
          "profile": [
            "http://hl7.org/fhir/uv/ips/StructureDefinition/Medication-uv-ips"
          ]
        },
        "code": {
          "coding": [
            {
              "code": "2563431",
              "system": "http://www.nlm.nih.gov/research/umls/rxnorm",
              "display": "aspirin 81 MG Oral Capsule"
            }
          ],
          "text": "aspirin 81 MG Oral Capsule"
        }
      }
    },
    {
      "fullUrl": "urn:uuid:037403f1-0081-4dac-b823-a777fa29a1b4",
      "resource": {
        "resourceType": "MedicationStatement",
        "id": "037403f1-0081-4dac-b823-a777fa29a1b4",
        "effectivePeriod": {
          "start": "2024-08-09"
        },
        "dosage": [
          {
            "doseAndRate": [
              {
                "doseQuantity": {
                  "value": 1,
                  "unit": "{cap}",
                  "code": "{cap}"
                }
              }
            ],
            "timing": {
              "repeat": {
                "frequency": 1,
                "period": 1,
                "periodUnit": "d"
              }
            },
            "text": "1 capsule (81 mg) by mouth once daily",
            "asNeededBoolean": false
          }
        ],
        "status": "active",
        "medicationReference": {
          "reference": "Medication/bf9bb61c-6b23-4586-b0bb-50e599994646",
          "display": "aspirin 81 MG Oral Capsule"
        },
        "subject": {
          "reference": "Patient/ae4ab734-d9fa-44a0-bac6-f42403aaefec",
          "display": "Reijer van Woerkom"
        }
      }
    },
    {
      "fullUrl": "urn:uuid:0c157093-5820-4686-be90-b64b5708ad53",
      "resource": {
        "resourceType": "AllergyIntolerance",
        "id": "0c157093-5820-4686-be90-b64b5708ad53",
        "meta": {
          "profile": [
            "http://hl7.eu/fhir/eps/StructureDefinition/allergyIntolerance-eu-eps"
          ]
        },
        "code": {
          "coding": [
            {
              "code": "716186003",
              "system": "http://snomed.info/sct",
              "display": "No known allergy (situation)"
            }
          ]
        },
        "patient": {
          "reference": "Patient/ae4ab734-d9fa-44a0-bac6-f42403aaefec",
          "display": "Reijer van Woerkom"
        },
        "_onsetDateTime": {
          "extension": [
            {
              "url": "http://hl7.org/fhir/StructureDefinition/data-absent-reason",
              "valueCode": "unknown"
            }
          ]
        }
      }
    },
    {
      "fullUrl": "urn:uuid:7afb753e-9b10-49bc-b239-80c0d0d85224",
      "resource": {
        "resourceType": "Procedure",
        "id": "7afb753e-9b10-49bc-b239-80c0d0d85224",
        "meta": {
          "profile": [
            "http://hl7.org/fhir/uv/ips/StructureDefinition/Procedure-uv-ips"
          ]
        },
        "code": {
          "coding": [
            {
              "code": "58000006",
              "system": "http://snomed.info/sct",
              "display": "Patient discharge (procedure)"
            }
          ],
          "text": "Patient discharge"
        },
        "status": "completed",
        "subject": {
          "reference": "Patient/ae4ab734-d9fa-44a0-bac6-f42403aaefec",
          "display": "Reijer van Woerkom"
        },
        "performedDateTime": "2023-02-19"
      }
    },
    {
      "fullUrl": "urn:uuid:eb3f8a02-7b1d-464d-bb57-32aa5d513f5e",
      "resource": {
        "resourceType": "Procedure",
        "id": "eb3f8a02-7b1d-464d-bb57-32aa5d513f5e",
        "meta": {
          "profile": [
            "http://hl7.org/fhir/uv/ips/StructureDefinition/Procedure-uv-ips"
          ]
        },
        "code": {
          "coding": [
            {
              "code": "385763009",
              "system": "http://snomed.info/sct",
              "display": "Hospice care (regime/therapy)"
            }
          ],
          "text": "Hospice care"
        },
        "status": "completed",
        "subject": {
          "reference": "Patient/ae4ab734-d9fa-44a0-bac6-f42403aaefec",
          "display": "Reijer van Woerkom"
        },
        "performedDateTime": "2023-02-18"
      }
    },
    {
      "fullUrl": "urn:uuid:d0e4565b-def7-4de8-a709-2f6919c00296",
      "resource": {
        "resourceType": "Procedure",
        "id": "d0e4565b-def7-4de8-a709-2f6919c00296",
        "meta": {
          "profile": [
            "http://hl7.org/fhir/uv/ips/StructureDefinition/Procedure-uv-ips"
          ]
        },
        "code": {
          "coding": [
            {
              "code": "185087000",
              "system": "http://snomed.info/sct",
              "display": "Notifications (procedure)"
            }
          ],
          "text": "Notifications"
        },
        "status": "completed",
        "subject": {
          "reference": "Patient/ae4ab734-d9fa-44a0-bac6-f42403aaefec",
          "display": "Reijer van Woerkom"
        },
        "performedDateTime": "2023-01-20"
      }
    },
    {
      "fullUrl": "urn:uuid:3fc2eccb-bbd2-4646-81d9-6f5431567574",
      "resource": {
        "resourceType": "Procedure",
        "id": "3fc2eccb-bbd2-4646-81d9-6f5431567574",
        "meta": {
          "profile": [
            "http://hl7.org/fhir/uv/ips/StructureDefinition/Procedure-uv-ips"
          ]
        },
        "code": {
          "coding": [
            {
              "code": "310417005",
              "system": "http://snomed.info/sct",
              "display": "Certification procedure (procedure)"
            }
          ],
          "text": "Certification procedure"
        },
        "status": "completed",
        "subject": {
          "reference": "Patient/ae4ab734-d9fa-44a0-bac6-f42403aaefec",
          "display": "Reijer van Woerkom"
        },
        "performedDateTime": "2023-01-20"
      }
    },
    {
      "fullUrl": "urn:uuid:b61d32a9-e169-409f-8416-cd20c9fa5f96",
      "resource": {
        "resourceType": "Procedure",
        "id": "b61d32a9-e169-409f-8416-cd20c9fa5f96",
        "meta": {
          "profile": [
            "http://hl7.org/fhir/uv/ips/StructureDefinition/Procedure-uv-ips"
          ]
        },
        "code": {
          "coding": [
            {
              "code": "315639002",
              "system": "http://snomed.info/sct",
              "display": "Initial patient assessment (procedure)"
            }
          ],
          "text": "Initial patient assessment"
        },
        "status": "completed",
        "subject": {
          "reference": "Patient/ae4ab734-d9fa-44a0-bac6-f42403aaefec",
          "display": "Reijer van Woerkom"
        },
        "performedDateTime": "2023-01-20"
      }
    },
    {
      "fullUrl": "urn:uuid:546cd15b-63f4-4b8d-b37a-90cab37439ee",
      "resource": {
        "resourceType": "Procedure",
        "id": "546cd15b-63f4-4b8d-b37a-90cab37439ee",
        "meta": {
          "profile": [
            "http://hl7.org/fhir/uv/ips/StructureDefinition/Procedure-uv-ips"
          ]
        },
        "code": {
          "coding": [
            {
              "code": "370789001",
              "system": "http://snomed.info/sct",
              "display": "Development of individualized plan of care (procedure)"
            }
          ],
          "text": "Development of individualized plan of care"
        },
        "status": "completed",
        "subject": {
          "reference": "Patient/ae4ab734-d9fa-44a0-bac6-f42403aaefec",
          "display": "Reijer van Woerkom"
        },
        "performedDateTime": "2023-01-20"
      }
    },
    {
      "fullUrl": "urn:uuid:c16e3937-98ab-4d39-8af1-9adbc4d9def4",
      "resource": {
        "resourceType": "Immunization",
        "id": "c16e3937-98ab-4d39-8af1-9adbc4d9def4",
        "meta": {
          "profile": [
            "http://hl7.org/fhir/uv/ips/StructureDefinition/Immunization-uv-ips"
          ]
        },
        "vaccineCode": {
          "coding": [
            {
              "code": "1181000221105",
              "system": "http://snomed.info/sct",
              "display": "Vaccine product containing Influenza virus antigen"
            },
            {
              "code": "J07BB02",
              "system": "http://www.whocc.no/atc",
              "display": "Influenza, inactivated, split virus"
            },
            {
              "code": "140",
              "system": "http://hl7.org/fhir/sid/cvx",
              "display": "Influenza  seasonal  injectable  preservative free"
            }
          ],
          "text": "Influenza virus antigen only vaccine product"
        },
        "site": {
          "coding": [
            {
              "code": "73776007",
              "system": "http://snomed.info/sct",
              "display": "Structure of muscle of upper arm"
            }
          ],
          "text": "Structure of muscle of upper arm"
        },
        "route": {
          "coding": [
            {
              "code": "78421000",
              "system": "http://snomed.info/sct",
              "display": "Intramuscular route"
            }
          ],
          "text": "Intramuscular route"
        },
        "status": "completed",
        "patient": {
          "reference": "Patient/ae4ab734-d9fa-44a0-bac6-f42403aaefec",
          "display": "Reijer van Woerkom"
        },
        "occurrenceDateTime": "2024-08-09",
        "lotNumber": "VS-J9xBc1Pw9",
        "expirationDate": "2025-06-25"
      }
    },
    {
      "fullUrl": "urn:uuid:1696c4cd-3d3c-4719-bce2-d3de6bdaf6b9",
      "resource": {
        "resourceType": "Immunization",
        "id": "1696c4cd-3d3c-4719-bce2-d3de6bdaf6b9",
        "meta": {
          "profile": [
            "http://hl7.org/fhir/uv/ips/StructureDefinition/Immunization-uv-ips"
          ]
        },
        "vaccineCode": {
          "coding": [
            {
              "code": "1119349007",
              "system": "http://snomed.info/sct",
              "display": "Vaccine product containing SARS-CoV-2 mRNA"
            },
            {
              "code": "J07BX03",
              "system": "http://www.whocc.no/atc",
              "display": "COVID-19 mRNA vaccines"
            },
            {
              "code": "207",
              "system": "http://hl7.org/fhir/sid/cvx",
              "display": "COVID-19  mRNA  LNP-S  PF  100 mcg/0.5mL dose or 50 mcg/0.25mL dose"
            }
          ],
          "text": "SARS-CoV-2 mRNA vaccine"
        },
        "site": {
          "coding": [
            {
              "code": "73776007",
              "system": "http://snomed.info/sct",
              "display": "Structure of muscle of upper arm"
            }
          ],
          "text": "Structure of muscle of upper arm"
        },
        "route": {
          "coding": [
            {
              "code": "78421000",
              "system": "http://snomed.info/sct",
              "display": "Intramuscular route"
            }
          ],
          "text": "Intramuscular route"
        },
        "status": "completed",
        "patient": {
          "reference": "Patient/ae4ab734-d9fa-44a0-bac6-f42403aaefec",
          "display": "Reijer van Woerkom"
        },
        "occurrenceDateTime": "2021-04-02",
        "lotNumber": "UV-nJu5",
        "expirationDate": "2021-09-12"
      }
    },
    {
      "fullUrl": "urn:uuid:92e1416f-4b0f-4840-99d0-88958ccc64da",
      "resource": {
        "resourceType": "Immunization",
        "id": "92e1416f-4b0f-4840-99d0-88958ccc64da",
        "meta": {
          "profile": [
            "http://hl7.org/fhir/uv/ips/StructureDefinition/Immunization-uv-ips"
          ]
        },
        "vaccineCode": {
          "coding": [
            {
              "code": "777725002",
              "system": "http://snomed.info/sct",
              "display": "Vaccine product containing only Clostridium tetani toxoid antigen adsorbed"
            },
            {
              "code": "J07AM51",
              "system": "http://www.whocc.no/atc",
              "display": "Diphtheria-tetanus vaccines, adult type"
            },
            {
              "code": "113",
              "system": "http://hl7.org/fhir/sid/cvx",
              "display": "Td (adult)  5 Lf tetanus toxoid  preservative free  adsorbed"
            }
          ],
          "text": "Clostridium tetani toxoid antigen adsorbed only vaccine product"
        },
        "site": {
          "coding": [
            {
              "code": "73776007",
              "system": "http://snomed.info/sct",
              "display": "Structure of muscle of upper arm"
            }
          ],
          "text": "Structure of muscle of upper arm"
        },
        "route": {
          "coding": [
            {
              "code": "78421000",
              "system": "http://snomed.info/sct",
              "display": "Intramuscular route"
            }
          ],
          "text": "Intramuscular route"
        },
        "status": "completed",
        "patient": {
          "reference": "Patient/ae4ab734-d9fa-44a0-bac6-f42403aaefec",
          "display": "Reijer van Woerkom"
        },
        "occurrenceDateTime": "2019-07-12",
        "lotNumber": "SU-uSKk",
        "expirationDate": "2020-03-26"
      }
    }
  ],
  "type": "document",
  "timestamp": "2025-06-16T17:19:49Z"
}
