{
  "resourceType": "Bundle",
  "id": "024a4bcd-eb55-47f5-9c03-2cdd000db119",
  "meta": {
    "profile": [
      "http://hl7.eu/fhir/eps/StructureDefinition/bundle-eu-eps"
    ]
  },
  "identifier": {
    "assigner": {
      "display": "HL7 Europe"
    },
    "system": "urn:oid:2.16.840.1.113883.2.51.999",
    "value": "22238c4c-5a28-4490-a57a-c8720e0398cf"
  },
  "entry": [
    {
      "fullUrl": "urn:uuid:7ae81fe4-2e0e-44ad-b4dc-600965caf981",
      "resource": {
        "resourceType": "Composition",
        "id": "7ae81fe4-2e0e-44ad-b4dc-600965caf981",
        "meta": {
          "security": [
            {
              "system": "http://terminology.hl7.org/CodeSystem/v3-ActReason",
              "code": "HTEST"
            },
            {
              "system": "http://terminology.hl7.org/CodeSystem/v3-ActReason",
              "code": "TRAIN"
            }
          ],
          "tag": [
            {
              "system": "https://synderai.net/fhir/CodeSystem/tags",
              "code": "synthetic",
              "display": "SYNDERAI Synthetic data"
            }
          ],
          "profile": [
            "http://hl7.eu/fhir/eps/StructureDefinition/composition-eu-eps"
          ]
        },
        "identifier": {
          "assigner": {
            "display": "HL7 Europe"
          },
          "system": "urn:oid:2.16.840.1.113883.2.51.999",
          "value": "973c6276-35d9-4129-9ed0-580181d3fcfb"
        },
        "type": {
          "coding": [
            {
              "system": "http://loinc.org",
              "code": "60591-5",
              "display": "Patient summary Document"
            }
          ],
          "text": "Patient summary Document"
        },
        "author": [
          {
            "reference": "urn:uuid:5cd2ee3c-e08d-4fe9-b826-f7313f0eaca9"
          }
        ],
        "section": [
          {
            "text": {
              "status": "generated",
              "div": "<div xmlns=\"http://www.w3.org/1999/xhtml\"><table class=\"hl7__ips\"><tr><td>No known problems or disabilities</td></tr></table></div>"
            },
            "entry": [
              {
                "reference": "urn:uuid:819cfd96-7bb2-4b74-a0bf-0209d29f0b94"
              }
            ],
            "code": {
              "coding": [
                {
                  "system": "http://loinc.org",
                  "code": "11450-4",
                  "display": "Problem list - Reported"
                }
              ]
            },
            "title": "Problem list"
          },
          {
            "text": {
              "status": "generated"
            },
            "entry": [
              {
                "reference": "urn:uuid:d285f794-fef5-4029-909d-3377b1abd95a"
              },
              {
                "reference": "urn:uuid:d285f794-fef5-4029-909d-3377b1abd95a"
              }
            ],
            "code": {
              "coding": [
                {
                  "system": "http://loinc.org",
                  "code": "10160-0",
                  "display": "History of Medication use Narrative"
                }
              ]
            },
            "title": "Medication list"
          },
          {
            "text": {
              "status": "generated",
              "div": "<div xmlns=\"http://www.w3.org/1999/xhtml\"><table class=\"hl7__ips\"><tr><th>Vaccine</th><th>Date</th></tr><tr><td>Influenza virus antigen only vaccine product</td><td><span class=\"nb\">15-Nov-2024</span></td></tr><tr><td>Clostridium tetani toxoid antigen adsorbed only vaccine product</td><td><span class=\"nb\">04-Nov-2022</span></td></tr><tr><td>Live attenuated Human alphaherpesvirus 3 only vaccine product</td><td><span class=\"nb\">04-Nov-2022</span></td></tr></table></div>"
            },
            "entry": [
              {
                "reference": "urn:uuid:56d7e022-bc07-4668-8829-3aa09ce7b1d3"
              },
              {
                "reference": "urn:uuid:e54afa43-e641-446e-99ab-990a79e23a29"
              },
              {
                "reference": "urn:uuid:2eca5c3d-9757-4a97-a711-c488a9fb4a1d"
              }
            ],
            "code": {
              "coding": [
                {
                  "system": "http://loinc.org",
                  "code": "11369-6",
                  "display": "History of Immunization note"
                }
              ]
            },
            "title": "Immunizations list"
          },
          {
            "text": {
              "status": "generated",
              "div": "<div xmlns=\"http://www.w3.org/1999/xhtml\"><table class=\"hl7__ips\"><tr><th>Procedure</th><th>Date</th><th>Reason</th></tr><tr><td>Suture open wound</td><td><span class=\"nb\">27-Aug-2022</span></td><td>Laceration of thigh</td></tr><tr><td>Radiography of humerus</td><td><span class=\"nb\">14-Jun-2017</span></td><td>-</td></tr><tr><td>Bone immobilization</td><td><span class=\"nb\">14-Jun-2017</span></td><td>Fracture of forearm</td></tr></table></div>"
            },
            "entry": [
              {
                "reference": "urn:uuid:59cf9ca3-c651-4e02-96d7-ba87b44b196b"
              },
              {
                "reference": "urn:uuid:08f91ced-b07d-4a2d-b402-a3128e5342b0"
              },
              {
                "reference": "urn:uuid:760ac935-a0f3-4581-b948-9f4abe5aa951"
              }
            ],
            "code": {
              "coding": [
                {
                  "system": "http://loinc.org",
                  "code": "47519-4",
                  "display": "History of Procedures Document"
                }
              ]
            },
            "title": "Procedure History list"
          },
          {
            "text": {
              "status": "generated",
              "div": "<div xmlns=\"http://www.w3.org/1999/xhtml\"><table class=\"hl7__ips\"><tr><th>Allergy/Intolerance</th><th>Onset Date</th><th>Status</th><th>Type</th><th>Reaction</th></tr><tr><td></td><td>?</td><td>active</td><td>?</td><td></td></tr></table></div>"
            },
            "entry": [
              {
                "reference": "urn:uuid:0b42f24f-4b15-4b7e-bee3-101a64c5821c"
              }
            ],
            "code": {
              "coding": [
                {
                  "system": "http://loinc.org",
                  "code": "48765-2",
                  "display": "Allergies and adverse reactions Document"
                }
              ]
            },
            "title": "Allergies and Intolerances"
          },
          {
            "text": {
              "status": "generated",
              "div": "<div xmlns=\"http://www.w3.org/1999/xhtml\"><table class=\"hl7__ips\"><tr><th>Vital Signs</th><th>2024-11-15</th><th>2023-11-10</th></tr><tr><td>Body Height</td><td>169.1 cm</td><td>169.1 cm</td></tr><tr><td>Pain severity - 0-10 verbal numeric rating [Score] - Reported</td><td>0 {score}</td><td>1 {score}</td></tr><tr><td>Body Weight</td><td>78.5 kg</td><td>78.5 kg</td></tr><tr><td>Body mass index (BMI) [Ratio]</td><td>27.5 kg/m2</td><td>27.5 kg/m2</td></tr><tr><td>Diastolic Blood Pressure</td><td>78 mm[Hg]</td><td>84 mm[Hg]</td></tr><tr><td>Systolic Blood Pressure</td><td>127 mm[Hg]</td><td>126 mm[Hg]</td></tr><tr><td>Heart rate</td><td>99 /min</td><td>96 /min</td></tr><tr><td>Respiratory rate</td><td>14 /min</td><td>15 /min</td></tr></table></div>"
            },
            "entry": [
              {
                "reference": "urn:uuid:80cee250-7b87-407f-acf3-b2fc3ae460b8"
              },
              {
                "reference": "urn:uuid:0ef8da99-636b-443b-bbfe-b6a462c0ca46"
              },
              {
                "reference": "urn:uuid:6bc88a32-e226-484f-9f59-4d82b4274d79"
              },
              {
                "reference": "urn:uuid:85b9cbb8-867f-4e7b-85fa-8bbbb81e3ce2"
              },
              {
                "reference": "urn:uuid:006889f9-3b3c-44b0-a4b2-426fc1e21b1c"
              },
              {
                "reference": "urn:uuid:93c2b177-c810-4556-9350-bd5d6f5f0257"
              },
              {
                "reference": "urn:uuid:95ef424a-0b31-4e4f-bdae-9728f4677d98"
              },
              {
                "reference": "urn:uuid:9e4ccfcf-4cda-48e0-ac17-e20f81b6c2a4"
              },
              {
                "reference": "urn:uuid:1b04da55-0bca-43e0-a6ab-d217f8008743"
              },
              {
                "reference": "urn:uuid:bd82b968-1801-4355-a247-1418e7e897c4"
              },
              {
                "reference": "urn:uuid:10ea3d5e-9ba4-4e24-8866-9e07f7269f48"
              },
              {
                "reference": "urn:uuid:1847c430-d383-43be-bf32-5f09b36d675c"
              },
              {
                "reference": "urn:uuid:595ec7f1-7369-4120-b913-249b7bdd61c5"
              },
              {
                "reference": "urn:uuid:0a8688ab-3e0c-4ffe-906e-846880216b00"
              },
              {
                "reference": "urn:uuid:b93ce3d2-9376-427d-840e-93e2d525127f"
              },
              {
                "reference": "urn:uuid:b82cf95b-f31e-4f4a-a14b-024aab5e0702"
              }
            ],
            "code": {
              "coding": [
                {
                  "system": "http://loinc.org",
                  "code": "8716-3",
                  "display": "Vital signs note"
                }
              ]
            },
            "title": "Vital Signs"
          },
          {
            "text": {
              "status": "generated",
              "div": "<div xmlns=\"http://www.w3.org/1999/xhtml\"><table class=\"hl7__ips\"><table class=\"hl7__ips\"><thead><tr><th>Recent Lab Observations</th><th>15-NOV-2024</th><th>Reference&#xA0;Range</th><th>Unit</th></tr></thead><tbody><tr><td>Cholesterol [Mass/volume] in Serum or Plasma</td><td><strong>205.8 H</strong></td><td>125 - 200</td><td>mg/dL</td></tr><tr><td>Triglyceride [Mass/volume] in Serum or Plasma</td><td>147.2</td><td>0 - 150</td><td>mg/dL</td></tr><tr><td>Cholesterol in LDL [Mass/volume] in Serum or Plasma by Direct assay</td><td>117.9</td><td>0 - 130</td><td>mg/dL</td></tr><tr><td>Cholesterol in HDL [Mass/volume] in Serum or Plasma</td><td>58.4</td><td>40 - 60</td><td>mg/dL</td></tr></tbody></table></table></div>"
            },
            "entry": [
              {
                "reference": "urn:uuid:24527aeb-7629-44dd-852a-31428783b71d"
              },
              {
                "reference": "urn:uuid:3c115eed-6da5-408e-a75d-d2fb23af4521"
              },
              {
                "reference": "urn:uuid:14b99beb-3092-4f01-abab-2b47bbd6527f"
              },
              {
                "reference": "urn:uuid:3ba93b51-12f3-47f6-8b2c-7f01e08c48bc"
              }
            ],
            "code": {
              "coding": [
                {
                  "system": "http://loinc.org",
                  "code": "30954-2",
                  "display": "Relevant diagnostic tests/laboratory data note"
                }
              ]
            },
            "title": "Relevant diagnostic tests/laboratory data"
          }
        ],
        "title": "European Patient Summary",
        "status": "final",
        "subject": {
          "reference": "urn:uuid:e5e178c4-9a39-4715-8c1e-b0e360907630",
          "display": "Elias Höfig"
        },
        "custodian": {
          "reference": "urn:uuid:9d7cb4f6-fce8-45ea-b548-4d7966124693"
        },
        "date": "2024-11-15",
        "confidentiality": "N"
      }
    },
    {
      "fullUrl": "urn:uuid:e5e178c4-9a39-4715-8c1e-b0e360907630",
      "resource": {
        "resourceType": "Patient",
        "id": "e5e178c4-9a39-4715-8c1e-b0e360907630",
        "meta": {
          "security": [
            {
              "system": "http://terminology.hl7.org/CodeSystem/v3-ActReason",
              "code": "HTEST"
            },
            {
              "system": "http://terminology.hl7.org/CodeSystem/v3-ActReason",
              "code": "TRAIN"
            }
          ],
          "tag": [
            {
              "system": "https://synderai.net/fhir/CodeSystem/tags",
              "code": "synthetic",
              "display": "SYNDERAI Synthetic data"
            }
          ],
          "profile": [
            "http://hl7.eu/fhir/eps/StructureDefinition/patient-eu-eps"
          ]
        },
        "identifier": [
          {
            "type": {
              "coding": [
                {
                  "code": "PT",
                  "system": "http://terminology.hl7.org/CodeSystem/v2-0203"
                }
              ]
            },
            "system": "http://ec.europa.eu/identifier/eci",
            "value": "7833-401919-3"
          },
          {
            "type": {
              "coding": [
                {
                  "code": "MR",
                  "system": "http://terminology.hl7.org/CodeSystem/v2-0203"
                }
              ]
            },
            "system": "http://local.setting.eu/identifier",
            "value": "55b3d71c-a283-2178-4db6-d251ed0e1404"
          }
        ],
        "name": [
          {
            "family": "Höfig"
          },
          {
            "given": [
              "Elias"
            ]
          },
          {
            "text": "Elias Höfig"
          }
        ],
        "address": [
          {
            "line": [
              "Pauline-Schwital-Allee 6-2"
            ],
            "use": "home",
            "type": "physical",
            "postalCode": "39326",
            "city": "Wolmirstedt",
            "country": "Germany"
          }
        ],
        "telecom": [
          {
            "system": "phone",
            "value": "+49 (0) 4602 154908"
          }
        ],
        "extension": [
          {
            "url": "http://hl7.org/fhir/StructureDefinition/patient-nationality",
            "valueCodeableConcept": {
              "coding": [
                {
                  "code": "DE",
                  "system": "http://hl7.org/fhir/ValueSet/country"
                }
              ]
            }
          }
        ],
        "text": {
          "status": "generated",
          "div": "<div xmlns=\"http://www.w3.org/1999/xhtml\"><table class=\"hl7__ips\"><tr><td>Elias Höfig</td><td>male</td><td>19-May-1974</td></tr></table></div>"
        },
        "gender": "male",
        "birthDate": "1974-05-19"
      }
    },
    {
      "fullUrl": "urn:uuid:5cd2ee3c-e08d-4fe9-b826-f7313f0eaca9",
      "resource": {
        "resourceType": "PractitionerRole",
        "id": "5cd2ee3c-e08d-4fe9-b826-f7313f0eaca9",
        "meta": {
          "profile": [
            "http://hl7.eu/fhir/base/StructureDefinition/practitionerRole-eu"
          ]
        },
        "text": {
          "status": "generated",
          "div": "<div xmlns=\"http://www.w3.org/1999/xhtml\"><table class=\"hl7__ips\">Provider Role Id 5cd2ee3c-e08d-4fe9-b826-f7313f0eaca9</table></div>"
        },
        "practitioner": {
          "reference": "urn:uuid:f4b3dddc-9863-46b3-ae81-96667065a894"
        },
        "organization": {
          "reference": "urn:uuid:9d7cb4f6-fce8-45ea-b548-4d7966124693"
        }
      }
    },
    {
      "fullUrl": "urn:uuid:f4b3dddc-9863-46b3-ae81-96667065a894",
      "resource": {
        "resourceType": "Practitioner",
        "id": "f4b3dddc-9863-46b3-ae81-96667065a894",
        "meta": {
          "profile": [
            "http://hl7.eu/fhir/base/StructureDefinition/practitioner-eu"
          ]
        },
        "name": [
          {
            "prefix": [
              "Dr."
            ],
            "given": [
              "Hel"
            ],
            "family": "Ping"
          }
        ],
        "text": {
          "status": "generated",
          "div": "<div xmlns=\"http://www.w3.org/1999/xhtml\"><table class=\"hl7__ips\">Dr. Hel Ping</table></div>"
        }
      }
    },
    {
      "fullUrl": "urn:uuid:9d7cb4f6-fce8-45ea-b548-4d7966124693",
      "resource": {
        "resourceType": "Organization",
        "id": "9d7cb4f6-fce8-45ea-b548-4d7966124693",
        "meta": {
          "profile": [
            "http://hl7.eu/fhir/base/StructureDefinition/organization-eu"
          ]
        },
        "identifier": [
          {
            "assigner": {
              "display": "HL7 Europe"
            },
            "system": "urn:oid:2.16.840.1.113883.2.51.999",
            "value": "ebdf4f81-3b22-4b11-80ec-0e643bc0d379"
          }
        ],
        "address": [
          {
            "line": [
              "Birkenallee 34"
            ],
            "city": "Magdeburg",
            "postalCode": "39130",
            "country": "Germany"
          }
        ],
        "text": {
          "status": "generated",
          "div": "<div xmlns=\"http://www.w3.org/1999/xhtml\"><table class=\"hl7__ips\">Klinikum Magdeburg</table></div>"
        },
        "name": "Klinikum Magdeburg"
      }
    },
    {
      "fullUrl": "urn:uuid:819cfd96-7bb2-4b74-a0bf-0209d29f0b94",
      "resource": {
        "resourceType": "Condition",
        "id": "819cfd96-7bb2-4b74-a0bf-0209d29f0b94",
        "meta": {
          "profile": [
            "http://hl7.org/fhir/uv/ips/StructureDefinition/Condition-uv-ips"
          ]
        },
        "code": {
          "coding": [
            {
              "code": "160245001",
              "system": "http://snomed.info/sct",
              "display": "No current problems or disability (situation)"
            }
          ]
        },
        "text": {
          "status": "generated",
          "div": "<div xmlns=\"http://www.w3.org/1999/xhtml\"><table class=\"hl7__ips\"><tr><td>No known problems or disabilities</td></tr></table></div>"
        },
        "subject": {
          "reference": "Patient/e5e178c4-9a39-4715-8c1e-b0e360907630",
          "display": "Elias Höfig"
        },
        "_onsetDateTime": {
          "extension": [
            {
              "url": "http://hl7.org/fhir/StructureDefinition/data-absent-reason",
              "valueCode": "unknown\""
            }
          ]
        }
      }
    },
    {
      "fullUrl": "urn:uuid:d285f794-fef5-4029-909d-3377b1abd95a",
      "resource": {
        "resourceType": "MedicationStatement",
        "id": "d285f794-fef5-4029-909d-3377b1abd95a",
        "meta": {
          "profile": [
            "http://hl7.eu/fhir/eps/StructureDefinition/MedicationStatement-eu-eps"
          ]
        },
        "effectivePeriod": {
          "extension": [
            {
              "url": "http://hl7.org/fhir/StructureDefinition/data-absent-reason",
              "valueCode": "unknown"
            }
          ]
        },
        "status": "active",
        "medicationCodeableConcept": {
          "coding": [
            {
              "code": "787481004",
              "system": "http://snomed.info/sct",
              "display": "No known medications (situation)"
            }
          ]
        },
        "subject": {
          "reference": "urn:uuid:e5e178c4-9a39-4715-8c1e-b0e360907630",
          "display": "Elias Höfig"
        }
      }
    },
    {
      "fullUrl": "urn:uuid:d285f794-fef5-4029-909d-3377b1abd95a",
      "resource": {
        "resourceType": "MedicationStatement",
        "id": "d285f794-fef5-4029-909d-3377b1abd95a",
        "meta": {
          "profile": [
            "http://hl7.eu/fhir/eps/StructureDefinition/MedicationStatement-eu-eps"
          ]
        },
        "effectivePeriod": {
          "extension": [
            {
              "url": "http://hl7.org/fhir/StructureDefinition/data-absent-reason",
              "valueCode": "unknown"
            }
          ]
        },
        "status": "active",
        "medicationCodeableConcept": {
          "coding": [
            {
              "code": "787481004",
              "system": "http://snomed.info/sct",
              "display": "No known medications (situation)"
            }
          ]
        },
        "subject": {
          "reference": "urn:uuid:e5e178c4-9a39-4715-8c1e-b0e360907630",
          "display": "Elias Höfig"
        }
      }
    },
    {
      "fullUrl": "urn:uuid:56d7e022-bc07-4668-8829-3aa09ce7b1d3",
      "resource": {
        "resourceType": "Immunization",
        "id": "56d7e022-bc07-4668-8829-3aa09ce7b1d3",
        "meta": {
          "profile": [
            "http://hl7.org/fhir/uv/ips/StructureDefinition/Immunization-uv-ips"
          ]
        },
        "vaccineCode": {
          "coding": [
            {
              "code": "1181000221105",
              "system": "http://snomed.info/sct",
              "display": "Vaccine product containing Influenza virus antigen"
            },
            {
              "code": "J07BB02",
              "system": "http://www.whocc.no/atc",
              "display": "Influenza, inactivated, split virus"
            }
          ],
          "text": "Influenza virus antigen only vaccine product"
        },
        "site": {
          "coding": [
            {
              "code": "244979005",
              "system": "http://snomed.info/sct",
              "display": "Entire muscle of upper arm"
            }
          ],
          "text": "Entire muscle of upper arm"
        },
        "route": {
          "coding": [
            {
              "code": "78421000",
              "system": "http://snomed.info/sct",
              "display": "Intramuscular route"
            }
          ],
          "text": "Intramuscular route"
        },
        "text": {
          "status": "generated",
          "div": "<div xmlns=\"http://www.w3.org/1999/xhtml\"><table class=\"hl7__ips\"><tr><td>Influenza virus antigen only vaccine product</td><td><span class=\"nb\">15-Nov-2024</span></td></tr></table></div>"
        },
        "status": "completed",
        "patient": {
          "reference": "urn:uuid:e5e178c4-9a39-4715-8c1e-b0e360907630",
          "display": "Elias Höfig"
        },
        "occurrenceDateTime": "2024-11-15",
        "lotNumber": "NK-G6oTTdc",
        "expirationDate": "2025-08-21"
      }
    },
    {
      "fullUrl": "urn:uuid:e54afa43-e641-446e-99ab-990a79e23a29",
      "resource": {
        "resourceType": "Immunization",
        "id": "e54afa43-e641-446e-99ab-990a79e23a29",
        "meta": {
          "profile": [
            "http://hl7.org/fhir/uv/ips/StructureDefinition/Immunization-uv-ips"
          ]
        },
        "vaccineCode": {
          "coding": [
            {
              "code": "777725002",
              "system": "http://snomed.info/sct",
              "display": "Vaccine product containing only Clostridium tetani toxoid antigen adsorbed"
            },
            {
              "code": "J07AM51",
              "system": "http://www.whocc.no/atc",
              "display": "Diphtheria-tetanus vaccines, adult type"
            }
          ],
          "text": "Clostridium tetani toxoid antigen adsorbed only vaccine product"
        },
        "site": {
          "coding": [
            {
              "code": "244979005",
              "system": "http://snomed.info/sct",
              "display": "Entire muscle of upper arm"
            }
          ],
          "text": "Entire muscle of upper arm"
        },
        "route": {
          "coding": [
            {
              "code": "78421000",
              "system": "http://snomed.info/sct",
              "display": "Intramuscular route"
            }
          ],
          "text": "Intramuscular route"
        },
        "text": {
          "status": "generated",
          "div": "<div xmlns=\"http://www.w3.org/1999/xhtml\"><table class=\"hl7__ips\"><tr><td>Clostridium tetani toxoid antigen adsorbed only vaccine product</td><td><span class=\"nb\">04-Nov-2022</span></td></tr></table></div>"
        },
        "status": "completed",
        "patient": {
          "reference": "urn:uuid:e5e178c4-9a39-4715-8c1e-b0e360907630",
          "display": "Elias Höfig"
        },
        "occurrenceDateTime": "2022-11-04",
        "lotNumber": "CO-BM90r9JyE",
        "expirationDate": "2023-03-16"
      }
    },
    {
      "fullUrl": "urn:uuid:2eca5c3d-9757-4a97-a711-c488a9fb4a1d",
      "resource": {
        "resourceType": "Immunization",
        "id": "2eca5c3d-9757-4a97-a711-c488a9fb4a1d",
        "meta": {
          "profile": [
            "http://hl7.org/fhir/uv/ips/StructureDefinition/Immunization-uv-ips"
          ]
        },
        "vaccineCode": {
          "coding": [
            {
              "code": "2221000221107",
              "system": "http://snomed.info/sct",
              "display": "Live attenuated Varicella-zoster vaccine"
            },
            {
              "code": "J07BK02",
              "system": "http://www.whocc.no/atc",
              "display": "Varicella-zoster vaccines"
            }
          ],
          "text": "Live attenuated Human alphaherpesvirus 3 only vaccine product"
        },
        "site": {
          "coding": [
            {
              "code": "368208006",
              "system": "http://snomed.info/sct",
              "display": "Left upper arm structure"
            }
          ],
          "text": "Left upper arm structure"
        },
        "route": {
          "coding": [
            {
              "code": "34206005",
              "system": "http://snomed.info/sct",
              "display": "Subcutaneous route"
            }
          ],
          "text": "Subcutaneous route"
        },
        "text": {
          "status": "generated",
          "div": "<div xmlns=\"http://www.w3.org/1999/xhtml\"><table class=\"hl7__ips\"><tr><td>Live attenuated Human alphaherpesvirus 3 only vaccine product</td><td><span class=\"nb\">04-Nov-2022</span></td></tr></table></div>"
        },
        "status": "completed",
        "patient": {
          "reference": "urn:uuid:e5e178c4-9a39-4715-8c1e-b0e360907630",
          "display": "Elias Höfig"
        },
        "occurrenceDateTime": "2022-11-04",
        "lotNumber": "TQ-TiltNI",
        "expirationDate": "2023-05-08"
      }
    },
    {
      "fullUrl": "urn:uuid:59cf9ca3-c651-4e02-96d7-ba87b44b196b",
      "resource": {
        "resourceType": "Procedure",
        "id": "59cf9ca3-c651-4e02-96d7-ba87b44b196b",
        "meta": {
          "profile": [
            "http://hl7.org/fhir/uv/ips/StructureDefinition/Procedure-uv-ips"
          ]
        },
        "code": {
          "coding": [
            {
              "code": "288086009",
              "system": "http://snomed.info/sct",
              "display": "Suture open wound"
            }
          ],
          "text": "Suture open wound"
        },
        "reasonCode": [
          {
            "coding": [
              {
                "code": "283385000",
                "system": "http://snomed.info/sct",
                "display": "Laceration of thigh"
              }
            ]
          }
        ],
        "text": {
          "status": "generated",
          "div": "<div xmlns=\"http://www.w3.org/1999/xhtml\"><table class=\"hl7__ips\"><tr><td>Suture open wound</td><td><span class=\"nb\">27-Aug-2022</span></td><td>Laceration of thigh</td></tr></table></div>"
        },
        "status": "completed",
        "performedDateTime": "2022-08-27",
        "subject": {
          "reference": "urn:uuid:",
          "display": "Elias Höfig"
        }
      }
    },
    {
      "fullUrl": "urn:uuid:08f91ced-b07d-4a2d-b402-a3128e5342b0",
      "resource": {
        "resourceType": "Procedure",
        "id": "08f91ced-b07d-4a2d-b402-a3128e5342b0",
        "meta": {
          "profile": [
            "http://hl7.org/fhir/uv/ips/StructureDefinition/Procedure-uv-ips"
          ]
        },
        "code": {
          "coding": [
            {
              "code": "1225002",
              "system": "http://snomed.info/sct",
              "display": "Upper arm X-ray"
            }
          ],
          "text": "Radiography of humerus"
        },
        "text": {
          "status": "generated",
          "div": "<div xmlns=\"http://www.w3.org/1999/xhtml\"><table class=\"hl7__ips\"><tr><td>Radiography of humerus</td><td><span class=\"nb\">14-Jun-2017</span></td><td>-</td></tr></table></div>"
        },
        "status": "completed",
        "performedDateTime": "2017-06-14",
        "subject": {
          "reference": "urn:uuid:",
          "display": "Elias Höfig"
        }
      }
    },
    {
      "fullUrl": "urn:uuid:760ac935-a0f3-4581-b948-9f4abe5aa951",
      "resource": {
        "resourceType": "Procedure",
        "id": "760ac935-a0f3-4581-b948-9f4abe5aa951",
        "meta": {
          "profile": [
            "http://hl7.org/fhir/uv/ips/StructureDefinition/Procedure-uv-ips"
          ]
        },
        "code": {
          "coding": [
            {
              "code": "274474001",
              "system": "http://snomed.info/sct",
              "display": "Bone immobilization"
            }
          ],
          "text": "Bone immobilization"
        },
        "reasonCode": [
          {
            "coding": [
              {
                "code": "65966004",
                "system": "http://snomed.info/sct",
                "display": "Fracture of forearm"
              }
            ]
          }
        ],
        "text": {
          "status": "generated",
          "div": "<div xmlns=\"http://www.w3.org/1999/xhtml\"><table class=\"hl7__ips\"><tr><td>Bone immobilization</td><td><span class=\"nb\">14-Jun-2017</span></td><td>Fracture of forearm</td></tr></table></div>"
        },
        "status": "completed",
        "performedDateTime": "2017-06-14",
        "subject": {
          "reference": "urn:uuid:",
          "display": "Elias Höfig"
        }
      }
    },
    {
      "fullUrl": "urn:uuid:0b42f24f-4b15-4b7e-bee3-101a64c5821c",
      "resource": {
        "resourceType": "AllergyIntolerance",
        "id": "0b42f24f-4b15-4b7e-bee3-101a64c5821c",
        "meta": {
          "profile": [
            "http://hl7.eu/fhir/eps/StructureDefinition/allergyIntolerance-eu-eps"
          ]
        },
        "code": {
          "text": ""
        },
        "clinicalStatus": {
          "coding": [
            {
              "code": "active",
              "system": "http://terminology.hl7.org/CodeSystem/allergyintolerance-clinical"
            }
          ]
        },
        "text": {
          "status": "generated",
          "div": "<div xmlns=\"http://www.w3.org/1999/xhtml\"><table class=\"hl7__ips\"><tr><th>Allergy/Intolerance</th><th>Onset Date</th><th>Status</th><th>Type</th><th>Reaction</th></tr><tr><td></td><td>?</td><td>active</td><td>?</td><td></td></tr></table></div>"
        },
        "verificationStatus": {
          "coding": [
            {
              "code": "confirmed",
              "system": "http://terminology.hl7.org/CodeSystem/allergyintolerance-verification"
            }
          ]
        },
        "patient": {
          "reference": "urn:uuid:e5e178c4-9a39-4715-8c1e-b0e360907630",
          "display": "Elias Höfig"
        },
        "_onsetDateTime": {
          "extension": [
            {
              "url": "http://hl7.org/fhir/StructureDefinition/data-absent-reason",
              "valueCode": "unknown"
            }
          ]
        }
      }
    },
    {
      "fullUrl": "urn:uuid:80cee250-7b87-407f-acf3-b2fc3ae460b8",
      "resource": {
        "resourceType": "Observation",
        "id": "80cee250-7b87-407f-acf3-b2fc3ae460b8",
        "meta": {
          "profile": [
            "http://hl7.org/fhir/StructureDefinition/vitalsigns"
          ]
        },
        "category": [
          {
            "coding": [
              {
                "system": "http://terminology.hl7.org/CodeSystem/observation-category",
                "code": "vital-signs",
                "display": "Vital Signs"
              }
            ]
          }
        ],
        "valueQuantity": {
          "value": 169.1,
          "code": "cm",
          "unit": "cm"
        },
        "text": {
          "status": "generated",
          "div": "<div xmlns=\"http://www.w3.org/1999/xhtml\"><table class=\"hl7__ips\"><tr><th>Vital Sign</th><th>Date</th><th>Measurement</th></tr><tr><td>Body Height</td><td>15-Nov-2024</td><td>169.1 cm</td></tr></table></div>"
        },
        "status": "final",
        "code": {
          "coding": [
            {
              "code": "$8302-2",
              "system": "http://loinc.org",
              "display": "Body Height"
            }
          ]
        },
        "subject": {
          "reference": "urn:uuid:e5e178c4-9a39-4715-8c1e-b0e360907630",
          "display": "Elias Höfig"
        },
        "effectiveDateTime": "2024-11-15"
      }
    },
    {
      "fullUrl": "urn:uuid:0ef8da99-636b-443b-bbfe-b6a462c0ca46",
      "resource": {
        "resourceType": "Observation",
        "id": "0ef8da99-636b-443b-bbfe-b6a462c0ca46",
        "meta": {
          "profile": [
            "http://hl7.org/fhir/StructureDefinition/vitalsigns"
          ]
        },
        "category": [
          {
            "coding": [
              {
                "system": "http://terminology.hl7.org/CodeSystem/observation-category",
                "code": "vital-signs",
                "display": "Vital Signs"
              }
            ]
          }
        ],
        "valueQuantity": {
          "value": 0,
          "code": "{score}",
          "unit": "{score}"
        },
        "text": {
          "status": "generated",
          "div": "<div xmlns=\"http://www.w3.org/1999/xhtml\"><table class=\"hl7__ips\"><tr><th>Vital Sign</th><th>Date</th><th>Measurement</th></tr><tr><td>Pain severity - 0-10 verbal numeric rating [Score] - Reported</td><td>15-Nov-2024</td><td>0 {score}</td></tr></table></div>"
        },
        "status": "final",
        "code": {
          "coding": [
            {
              "code": "$72514-3",
              "system": "http://loinc.org",
              "display": "Pain severity - 0-10 verbal numeric rating [Score] - Reported"
            }
          ]
        },
        "subject": {
          "reference": "urn:uuid:e5e178c4-9a39-4715-8c1e-b0e360907630",
          "display": "Elias Höfig"
        },
        "effectiveDateTime": "2024-11-15"
      }
    },
    {
      "fullUrl": "urn:uuid:6bc88a32-e226-484f-9f59-4d82b4274d79",
      "resource": {
        "resourceType": "Observation",
        "id": "6bc88a32-e226-484f-9f59-4d82b4274d79",
        "meta": {
          "profile": [
            "http://hl7.org/fhir/StructureDefinition/vitalsigns"
          ]
        },
        "category": [
          {
            "coding": [
              {
                "system": "http://terminology.hl7.org/CodeSystem/observation-category",
                "code": "vital-signs",
                "display": "Vital Signs"
              }
            ]
          }
        ],
        "valueQuantity": {
          "value": 78.5,
          "code": "kg",
          "unit": "kg"
        },
        "text": {
          "status": "generated",
          "div": "<div xmlns=\"http://www.w3.org/1999/xhtml\"><table class=\"hl7__ips\"><tr><th>Vital Sign</th><th>Date</th><th>Measurement</th></tr><tr><td>Body Weight</td><td>15-Nov-2024</td><td>78.5 kg</td></tr></table></div>"
        },
        "status": "final",
        "code": {
          "coding": [
            {
              "code": "$29463-7",
              "system": "http://loinc.org",
              "display": "Body Weight"
            }
          ]
        },
        "subject": {
          "reference": "urn:uuid:e5e178c4-9a39-4715-8c1e-b0e360907630",
          "display": "Elias Höfig"
        },
        "effectiveDateTime": "2024-11-15"
      }
    },
    {
      "fullUrl": "urn:uuid:85b9cbb8-867f-4e7b-85fa-8bbbb81e3ce2",
      "resource": {
        "resourceType": "Observation",
        "id": "85b9cbb8-867f-4e7b-85fa-8bbbb81e3ce2",
        "meta": {
          "profile": [
            "http://hl7.org/fhir/StructureDefinition/vitalsigns"
          ]
        },
        "category": [
          {
            "coding": [
              {
                "system": "http://terminology.hl7.org/CodeSystem/observation-category",
                "code": "vital-signs",
                "display": "Vital Signs"
              }
            ]
          }
        ],
        "valueQuantity": {
          "value": 27.5,
          "code": "kg/m2",
          "unit": "kg/m2"
        },
        "text": {
          "status": "generated",
          "div": "<div xmlns=\"http://www.w3.org/1999/xhtml\"><table class=\"hl7__ips\"><tr><th>Vital Sign</th><th>Date</th><th>Measurement</th></tr><tr><td>Body mass index (BMI) [Ratio]</td><td>15-Nov-2024</td><td>27.5 kg/m2</td></tr></table></div>"
        },
        "status": "final",
        "code": {
          "coding": [
            {
              "code": "$39156-5",
              "system": "http://loinc.org",
              "display": "Body mass index (BMI) [Ratio]"
            }
          ]
        },
        "subject": {
          "reference": "urn:uuid:e5e178c4-9a39-4715-8c1e-b0e360907630",
          "display": "Elias Höfig"
        },
        "effectiveDateTime": "2024-11-15"
      }
    },
    {
      "fullUrl": "urn:uuid:006889f9-3b3c-44b0-a4b2-426fc1e21b1c",
      "resource": {
        "resourceType": "Observation",
        "id": "006889f9-3b3c-44b0-a4b2-426fc1e21b1c",
        "meta": {
          "profile": [
            "http://hl7.org/fhir/StructureDefinition/vitalsigns"
          ]
        },
        "category": [
          {
            "coding": [
              {
                "system": "http://terminology.hl7.org/CodeSystem/observation-category",
                "code": "vital-signs",
                "display": "Vital Signs"
              }
            ]
          }
        ],
        "valueQuantity": {
          "value": 78,
          "code": "mm[Hg]",
          "unit": "mm[Hg]"
        },
        "text": {
          "status": "generated",
          "div": "<div xmlns=\"http://www.w3.org/1999/xhtml\"><table class=\"hl7__ips\"><tr><th>Vital Sign</th><th>Date</th><th>Measurement</th></tr><tr><td>Diastolic Blood Pressure</td><td>15-Nov-2024</td><td>78 mm[Hg]</td></tr></table></div>"
        },
        "status": "final",
        "code": {
          "coding": [
            {
              "code": "$8462-4",
              "system": "http://loinc.org",
              "display": "Diastolic Blood Pressure"
            }
          ]
        },
        "subject": {
          "reference": "urn:uuid:e5e178c4-9a39-4715-8c1e-b0e360907630",
          "display": "Elias Höfig"
        },
        "effectiveDateTime": "2024-11-15"
      }
    },
    {
      "fullUrl": "urn:uuid:93c2b177-c810-4556-9350-bd5d6f5f0257",
      "resource": {
        "resourceType": "Observation",
        "id": "93c2b177-c810-4556-9350-bd5d6f5f0257",
        "meta": {
          "profile": [
            "http://hl7.org/fhir/StructureDefinition/vitalsigns"
          ]
        },
        "category": [
          {
            "coding": [
              {
                "system": "http://terminology.hl7.org/CodeSystem/observation-category",
                "code": "vital-signs",
                "display": "Vital Signs"
              }
            ]
          }
        ],
        "valueQuantity": {
          "value": 127,
          "code": "mm[Hg]",
          "unit": "mm[Hg]"
        },
        "text": {
          "status": "generated",
          "div": "<div xmlns=\"http://www.w3.org/1999/xhtml\"><table class=\"hl7__ips\"><tr><th>Vital Sign</th><th>Date</th><th>Measurement</th></tr><tr><td>Systolic Blood Pressure</td><td>15-Nov-2024</td><td>127 mm[Hg]</td></tr></table></div>"
        },
        "status": "final",
        "code": {
          "coding": [
            {
              "code": "$8480-6",
              "system": "http://loinc.org",
              "display": "Systolic Blood Pressure"
            }
          ]
        },
        "subject": {
          "reference": "urn:uuid:e5e178c4-9a39-4715-8c1e-b0e360907630",
          "display": "Elias Höfig"
        },
        "effectiveDateTime": "2024-11-15"
      }
    },
    {
      "fullUrl": "urn:uuid:95ef424a-0b31-4e4f-bdae-9728f4677d98",
      "resource": {
        "resourceType": "Observation",
        "id": "95ef424a-0b31-4e4f-bdae-9728f4677d98",
        "meta": {
          "profile": [
            "http://hl7.org/fhir/StructureDefinition/vitalsigns"
          ]
        },
        "category": [
          {
            "coding": [
              {
                "system": "http://terminology.hl7.org/CodeSystem/observation-category",
                "code": "vital-signs",
                "display": "Vital Signs"
              }
            ]
          }
        ],
        "valueQuantity": {
          "value": 99,
          "code": "/min",
          "unit": "/min"
        },
        "text": {
          "status": "generated",
          "div": "<div xmlns=\"http://www.w3.org/1999/xhtml\"><table class=\"hl7__ips\"><tr><th>Vital Sign</th><th>Date</th><th>Measurement</th></tr><tr><td>Heart rate</td><td>15-Nov-2024</td><td>99 /min</td></tr></table></div>"
        },
        "status": "final",
        "code": {
          "coding": [
            {
              "code": "$8867-4",
              "system": "http://loinc.org",
              "display": "Heart rate"
            }
          ]
        },
        "subject": {
          "reference": "urn:uuid:e5e178c4-9a39-4715-8c1e-b0e360907630",
          "display": "Elias Höfig"
        },
        "effectiveDateTime": "2024-11-15"
      }
    },
    {
      "fullUrl": "urn:uuid:9e4ccfcf-4cda-48e0-ac17-e20f81b6c2a4",
      "resource": {
        "resourceType": "Observation",
        "id": "9e4ccfcf-4cda-48e0-ac17-e20f81b6c2a4",
        "meta": {
          "profile": [
            "http://hl7.org/fhir/StructureDefinition/vitalsigns"
          ]
        },
        "category": [
          {
            "coding": [
              {
                "system": "http://terminology.hl7.org/CodeSystem/observation-category",
                "code": "vital-signs",
                "display": "Vital Signs"
              }
            ]
          }
        ],
        "valueQuantity": {
          "value": 14,
          "code": "/min",
          "unit": "/min"
        },
        "text": {
          "status": "generated",
          "div": "<div xmlns=\"http://www.w3.org/1999/xhtml\"><table class=\"hl7__ips\"><tr><th>Vital Sign</th><th>Date</th><th>Measurement</th></tr><tr><td>Respiratory rate</td><td>15-Nov-2024</td><td>14 /min</td></tr></table></div>"
        },
        "status": "final",
        "code": {
          "coding": [
            {
              "code": "$9279-1",
              "system": "http://loinc.org",
              "display": "Respiratory rate"
            }
          ]
        },
        "subject": {
          "reference": "urn:uuid:e5e178c4-9a39-4715-8c1e-b0e360907630",
          "display": "Elias Höfig"
        },
        "effectiveDateTime": "2024-11-15"
      }
    },
    {
      "fullUrl": "urn:uuid:1b04da55-0bca-43e0-a6ab-d217f8008743",
      "resource": {
        "resourceType": "Observation",
        "id": "1b04da55-0bca-43e0-a6ab-d217f8008743",
        "meta": {
          "profile": [
            "http://hl7.org/fhir/StructureDefinition/vitalsigns"
          ]
        },
        "category": [
          {
            "coding": [
              {
                "system": "http://terminology.hl7.org/CodeSystem/observation-category",
                "code": "vital-signs",
                "display": "Vital Signs"
              }
            ]
          }
        ],
        "valueQuantity": {
          "value": 169.1,
          "code": "cm",
          "unit": "cm"
        },
        "text": {
          "status": "generated",
          "div": "<div xmlns=\"http://www.w3.org/1999/xhtml\"><table class=\"hl7__ips\"><tr><th>Vital Sign</th><th>Date</th><th>Measurement</th></tr><tr><td>Body Height</td><td>10-Nov-2023</td><td>169.1 cm</td></tr></table></div>"
        },
        "status": "final",
        "code": {
          "coding": [
            {
              "code": "$8302-2",
              "system": "http://loinc.org",
              "display": "Body Height"
            }
          ]
        },
        "subject": {
          "reference": "urn:uuid:e5e178c4-9a39-4715-8c1e-b0e360907630",
          "display": "Elias Höfig"
        },
        "effectiveDateTime": "2023-11-10"
      }
    },
    {
      "fullUrl": "urn:uuid:bd82b968-1801-4355-a247-1418e7e897c4",
      "resource": {
        "resourceType": "Observation",
        "id": "bd82b968-1801-4355-a247-1418e7e897c4",
        "meta": {
          "profile": [
            "http://hl7.org/fhir/StructureDefinition/vitalsigns"
          ]
        },
        "category": [
          {
            "coding": [
              {
                "system": "http://terminology.hl7.org/CodeSystem/observation-category",
                "code": "vital-signs",
                "display": "Vital Signs"
              }
            ]
          }
        ],
        "valueQuantity": {
          "value": 1,
          "code": "{score}",
          "unit": "{score}"
        },
        "text": {
          "status": "generated",
          "div": "<div xmlns=\"http://www.w3.org/1999/xhtml\"><table class=\"hl7__ips\"><tr><th>Vital Sign</th><th>Date</th><th>Measurement</th></tr><tr><td>Pain severity - 0-10 verbal numeric rating [Score] - Reported</td><td>10-Nov-2023</td><td>1 {score}</td></tr></table></div>"
        },
        "status": "final",
        "code": {
          "coding": [
            {
              "code": "$72514-3",
              "system": "http://loinc.org",
              "display": "Pain severity - 0-10 verbal numeric rating [Score] - Reported"
            }
          ]
        },
        "subject": {
          "reference": "urn:uuid:e5e178c4-9a39-4715-8c1e-b0e360907630",
          "display": "Elias Höfig"
        },
        "effectiveDateTime": "2023-11-10"
      }
    },
    {
      "fullUrl": "urn:uuid:10ea3d5e-9ba4-4e24-8866-9e07f7269f48",
      "resource": {
        "resourceType": "Observation",
        "id": "10ea3d5e-9ba4-4e24-8866-9e07f7269f48",
        "meta": {
          "profile": [
            "http://hl7.org/fhir/StructureDefinition/vitalsigns"
          ]
        },
        "category": [
          {
            "coding": [
              {
                "system": "http://terminology.hl7.org/CodeSystem/observation-category",
                "code": "vital-signs",
                "display": "Vital Signs"
              }
            ]
          }
        ],
        "valueQuantity": {
          "value": 78.5,
          "code": "kg",
          "unit": "kg"
        },
        "text": {
          "status": "generated",
          "div": "<div xmlns=\"http://www.w3.org/1999/xhtml\"><table class=\"hl7__ips\"><tr><th>Vital Sign</th><th>Date</th><th>Measurement</th></tr><tr><td>Body Weight</td><td>10-Nov-2023</td><td>78.5 kg</td></tr></table></div>"
        },
        "status": "final",
        "code": {
          "coding": [
            {
              "code": "$29463-7",
              "system": "http://loinc.org",
              "display": "Body Weight"
            }
          ]
        },
        "subject": {
          "reference": "urn:uuid:e5e178c4-9a39-4715-8c1e-b0e360907630",
          "display": "Elias Höfig"
        },
        "effectiveDateTime": "2023-11-10"
      }
    },
    {
      "fullUrl": "urn:uuid:1847c430-d383-43be-bf32-5f09b36d675c",
      "resource": {
        "resourceType": "Observation",
        "id": "1847c430-d383-43be-bf32-5f09b36d675c",
        "meta": {
          "profile": [
            "http://hl7.org/fhir/StructureDefinition/vitalsigns"
          ]
        },
        "category": [
          {
            "coding": [
              {
                "system": "http://terminology.hl7.org/CodeSystem/observation-category",
                "code": "vital-signs",
                "display": "Vital Signs"
              }
            ]
          }
        ],
        "valueQuantity": {
          "value": 27.5,
          "code": "kg/m2",
          "unit": "kg/m2"
        },
        "text": {
          "status": "generated",
          "div": "<div xmlns=\"http://www.w3.org/1999/xhtml\"><table class=\"hl7__ips\"><tr><th>Vital Sign</th><th>Date</th><th>Measurement</th></tr><tr><td>Body mass index (BMI) [Ratio]</td><td>10-Nov-2023</td><td>27.5 kg/m2</td></tr></table></div>"
        },
        "status": "final",
        "code": {
          "coding": [
            {
              "code": "$39156-5",
              "system": "http://loinc.org",
              "display": "Body mass index (BMI) [Ratio]"
            }
          ]
        },
        "subject": {
          "reference": "urn:uuid:e5e178c4-9a39-4715-8c1e-b0e360907630",
          "display": "Elias Höfig"
        },
        "effectiveDateTime": "2023-11-10"
      }
    },
    {
      "fullUrl": "urn:uuid:595ec7f1-7369-4120-b913-249b7bdd61c5",
      "resource": {
        "resourceType": "Observation",
        "id": "595ec7f1-7369-4120-b913-249b7bdd61c5",
        "meta": {
          "profile": [
            "http://hl7.org/fhir/StructureDefinition/vitalsigns"
          ]
        },
        "category": [
          {
            "coding": [
              {
                "system": "http://terminology.hl7.org/CodeSystem/observation-category",
                "code": "vital-signs",
                "display": "Vital Signs"
              }
            ]
          }
        ],
        "valueQuantity": {
          "value": 84,
          "code": "mm[Hg]",
          "unit": "mm[Hg]"
        },
        "text": {
          "status": "generated",
          "div": "<div xmlns=\"http://www.w3.org/1999/xhtml\"><table class=\"hl7__ips\"><tr><th>Vital Sign</th><th>Date</th><th>Measurement</th></tr><tr><td>Diastolic Blood Pressure</td><td>10-Nov-2023</td><td>84 mm[Hg]</td></tr></table></div>"
        },
        "status": "final",
        "code": {
          "coding": [
            {
              "code": "$8462-4",
              "system": "http://loinc.org",
              "display": "Diastolic Blood Pressure"
            }
          ]
        },
        "subject": {
          "reference": "urn:uuid:e5e178c4-9a39-4715-8c1e-b0e360907630",
          "display": "Elias Höfig"
        },
        "effectiveDateTime": "2023-11-10"
      }
    },
    {
      "fullUrl": "urn:uuid:0a8688ab-3e0c-4ffe-906e-846880216b00",
      "resource": {
        "resourceType": "Observation",
        "id": "0a8688ab-3e0c-4ffe-906e-846880216b00",
        "meta": {
          "profile": [
            "http://hl7.org/fhir/StructureDefinition/vitalsigns"
          ]
        },
        "category": [
          {
            "coding": [
              {
                "system": "http://terminology.hl7.org/CodeSystem/observation-category",
                "code": "vital-signs",
                "display": "Vital Signs"
              }
            ]
          }
        ],
        "valueQuantity": {
          "value": 126,
          "code": "mm[Hg]",
          "unit": "mm[Hg]"
        },
        "text": {
          "status": "generated",
          "div": "<div xmlns=\"http://www.w3.org/1999/xhtml\"><table class=\"hl7__ips\"><tr><th>Vital Sign</th><th>Date</th><th>Measurement</th></tr><tr><td>Systolic Blood Pressure</td><td>10-Nov-2023</td><td>126 mm[Hg]</td></tr></table></div>"
        },
        "status": "final",
        "code": {
          "coding": [
            {
              "code": "$8480-6",
              "system": "http://loinc.org",
              "display": "Systolic Blood Pressure"
            }
          ]
        },
        "subject": {
          "reference": "urn:uuid:e5e178c4-9a39-4715-8c1e-b0e360907630",
          "display": "Elias Höfig"
        },
        "effectiveDateTime": "2023-11-10"
      }
    },
    {
      "fullUrl": "urn:uuid:b93ce3d2-9376-427d-840e-93e2d525127f",
      "resource": {
        "resourceType": "Observation",
        "id": "b93ce3d2-9376-427d-840e-93e2d525127f",
        "meta": {
          "profile": [
            "http://hl7.org/fhir/StructureDefinition/vitalsigns"
          ]
        },
        "category": [
          {
            "coding": [
              {
                "system": "http://terminology.hl7.org/CodeSystem/observation-category",
                "code": "vital-signs",
                "display": "Vital Signs"
              }
            ]
          }
        ],
        "valueQuantity": {
          "value": 96,
          "code": "/min",
          "unit": "/min"
        },
        "text": {
          "status": "generated",
          "div": "<div xmlns=\"http://www.w3.org/1999/xhtml\"><table class=\"hl7__ips\"><tr><th>Vital Sign</th><th>Date</th><th>Measurement</th></tr><tr><td>Heart rate</td><td>10-Nov-2023</td><td>96 /min</td></tr></table></div>"
        },
        "status": "final",
        "code": {
          "coding": [
            {
              "code": "$8867-4",
              "system": "http://loinc.org",
              "display": "Heart rate"
            }
          ]
        },
        "subject": {
          "reference": "urn:uuid:e5e178c4-9a39-4715-8c1e-b0e360907630",
          "display": "Elias Höfig"
        },
        "effectiveDateTime": "2023-11-10"
      }
    },
    {
      "fullUrl": "urn:uuid:b82cf95b-f31e-4f4a-a14b-024aab5e0702",
      "resource": {
        "resourceType": "Observation",
        "id": "b82cf95b-f31e-4f4a-a14b-024aab5e0702",
        "meta": {
          "profile": [
            "http://hl7.org/fhir/StructureDefinition/vitalsigns"
          ]
        },
        "category": [
          {
            "coding": [
              {
                "system": "http://terminology.hl7.org/CodeSystem/observation-category",
                "code": "vital-signs",
                "display": "Vital Signs"
              }
            ]
          }
        ],
        "valueQuantity": {
          "value": 15,
          "code": "/min",
          "unit": "/min"
        },
        "text": {
          "status": "generated",
          "div": "<div xmlns=\"http://www.w3.org/1999/xhtml\"><table class=\"hl7__ips\"><tr><th>Vital Sign</th><th>Date</th><th>Measurement</th></tr><tr><td>Respiratory rate</td><td>10-Nov-2023</td><td>15 /min</td></tr></table></div>"
        },
        "status": "final",
        "code": {
          "coding": [
            {
              "code": "$9279-1",
              "system": "http://loinc.org",
              "display": "Respiratory rate"
            }
          ]
        },
        "subject": {
          "reference": "urn:uuid:e5e178c4-9a39-4715-8c1e-b0e360907630",
          "display": "Elias Höfig"
        },
        "effectiveDateTime": "2023-11-10"
      }
    },
    {
      "fullUrl": "urn:uuid:24527aeb-7629-44dd-852a-31428783b71d",
      "resource": {
        "resourceType": "Observation",
        "id": "24527aeb-7629-44dd-852a-31428783b71d",
        "meta": {
          "profile": [
            "http://hl7.eu/fhir/laboratory/StructureDefinition/Observation-resultslab-eu-lab"
          ]
        },
        "performer": [
          {
            "display": "The Central European Lab"
          }
        ],
        "category": [
          {
            "coding": [
              {
                "system": "http://terminology.hl7.org/CodeSystem/observation-category",
                "code": "laboratory"
              }
            ]
          }
        ],
        "code": {
          "coding": [
            {
              "code": "2093-3",
              "system": "http://loinc.org",
              "display": "Cholesterol [Mass/volume] in Serum or Plasma"
            }
          ],
          "text": "Cholesterol [Mass/volume] in Serum or Plasma"
        },
        "valueQuantity": {
          "system": "http://unitsofmeasure.org",
          "value": 205.8,
          "unit": "mg/dL",
          "code": "mg/dL"
        },
        "referenceRange": [
          {
            "low": {
              "value": 125,
              "code": "mg/dL",
              "system": "http://unitsofmeasure.org"
            }
          },
          {
            "high": {
              "value": 200,
              "code": "mg/dL",
              "system": "http://unitsofmeasure.org"
            }
          }
        ],
        "interpretation": [
          {
            "coding": [
              {
                "code": "H",
                "system": "http://terminology.hl7.org/CodeSystem/v3-ObservationInterpretation",
                "display": "High"
              }
            ]
          }
        ],
        "text": {
          "status": "generated",
          "div": "<div xmlns=\"http://www.w3.org/1999/xhtml\"><table class=\"hl7__eu__lab__report\"><tr><th>Test</th><th>15-Nov-2024</th><th>Reference&#xA0;Range</th><th>Unit</th></tr><tr><td>Cholesterol [Mass/volume] in Serum or Plasma</td><td>205.8</td><td>125 - 200</td><td>H</td><td>mg/dL</td></tr></table></div>"
        },
        "status": "final",
        "subject": {
          "reference": "urn:uuid:e5e178c4-9a39-4715-8c1e-b0e360907630",
          "display": "Elias Höfig"
        },
        "effectiveDateTime": "2024-11-15T09:47:46Z"
      }
    },
    {
      "fullUrl": "urn:uuid:3c115eed-6da5-408e-a75d-d2fb23af4521",
      "resource": {
        "resourceType": "Observation",
        "id": "3c115eed-6da5-408e-a75d-d2fb23af4521",
        "meta": {
          "profile": [
            "http://hl7.eu/fhir/laboratory/StructureDefinition/Observation-resultslab-eu-lab"
          ]
        },
        "performer": [
          {
            "display": "The Central European Lab"
          }
        ],
        "category": [
          {
            "coding": [
              {
                "system": "http://terminology.hl7.org/CodeSystem/observation-category",
                "code": "laboratory"
              }
            ]
          }
        ],
        "code": {
          "coding": [
            {
              "code": "2571-8",
              "system": "http://loinc.org",
              "display": "Triglyceride [Mass/volume] in Serum or Plasma"
            }
          ],
          "text": "Triglyceride [Mass/volume] in Serum or Plasma"
        },
        "valueQuantity": {
          "system": "http://unitsofmeasure.org",
          "value": 147.2,
          "unit": "mg/dL",
          "code": "mg/dL"
        },
        "referenceRange": [
          {
            "low": {
              "value": 0,
              "code": "mg/dL",
              "system": "http://unitsofmeasure.org"
            }
          },
          {
            "high": {
              "value": 150,
              "code": "mg/dL",
              "system": "http://unitsofmeasure.org"
            }
          }
        ],
        "text": {
          "status": "generated",
          "div": "<div xmlns=\"http://www.w3.org/1999/xhtml\"><table class=\"hl7__eu__lab__report\"><tr><th>Test</th><th>15-Nov-2024</th><th>Reference&#xA0;Range</th><th>Unit</th></tr><tr><td>Triglyceride [Mass/volume] in Serum or Plasma</td><td>147.2</td><td>0 - 150</td><td></td><td>mg/dL</td></tr></table></div>"
        },
        "status": "final",
        "subject": {
          "reference": "urn:uuid:e5e178c4-9a39-4715-8c1e-b0e360907630",
          "display": "Elias Höfig"
        },
        "effectiveDateTime": "2024-11-15T09:47:46Z"
      }
    },
    {
      "fullUrl": "urn:uuid:14b99beb-3092-4f01-abab-2b47bbd6527f",
      "resource": {
        "resourceType": "Observation",
        "id": "14b99beb-3092-4f01-abab-2b47bbd6527f",
        "meta": {
          "profile": [
            "http://hl7.eu/fhir/laboratory/StructureDefinition/Observation-resultslab-eu-lab"
          ]
        },
        "performer": [
          {
            "display": "The Central European Lab"
          }
        ],
        "category": [
          {
            "coding": [
              {
                "system": "http://terminology.hl7.org/CodeSystem/observation-category",
                "code": "laboratory"
              }
            ]
          }
        ],
        "code": {
          "coding": [
            {
              "code": "18262-6",
              "system": "http://loinc.org",
              "display": "Cholesterol in LDL [Mass/volume] in Serum or Plasma by Direct assay"
            }
          ],
          "text": "Cholesterol in LDL [Mass/volume] in Serum or Plasma by Direct assay"
        },
        "valueQuantity": {
          "system": "http://unitsofmeasure.org",
          "value": 117.9,
          "unit": "mg/dL",
          "code": "mg/dL"
        },
        "referenceRange": [
          {
            "low": {
              "value": 0,
              "code": "mg/dL",
              "system": "http://unitsofmeasure.org"
            }
          },
          {
            "high": {
              "value": 130,
              "code": "mg/dL",
              "system": "http://unitsofmeasure.org"
            }
          }
        ],
        "text": {
          "status": "generated",
          "div": "<div xmlns=\"http://www.w3.org/1999/xhtml\"><table class=\"hl7__eu__lab__report\"><tr><th>Test</th><th>15-Nov-2024</th><th>Reference&#xA0;Range</th><th>Unit</th></tr><tr><td>Cholesterol in LDL [Mass/volume] in Serum or Plasma by Direct assay</td><td>117.9</td><td>0 - 130</td><td></td><td>mg/dL</td></tr></table></div>"
        },
        "status": "final",
        "subject": {
          "reference": "urn:uuid:e5e178c4-9a39-4715-8c1e-b0e360907630",
          "display": "Elias Höfig"
        },
        "effectiveDateTime": "2024-11-15T09:47:46Z"
      }
    },
    {
      "fullUrl": "urn:uuid:3ba93b51-12f3-47f6-8b2c-7f01e08c48bc",
      "resource": {
        "resourceType": "Observation",
        "id": "3ba93b51-12f3-47f6-8b2c-7f01e08c48bc",
        "meta": {
          "profile": [
            "http://hl7.eu/fhir/laboratory/StructureDefinition/Observation-resultslab-eu-lab"
          ]
        },
        "performer": [
          {
            "display": "The Central European Lab"
          }
        ],
        "category": [
          {
            "coding": [
              {
                "system": "http://terminology.hl7.org/CodeSystem/observation-category",
                "code": "laboratory"
              }
            ]
          }
        ],
        "code": {
          "coding": [
            {
              "code": "2085-9",
              "system": "http://loinc.org",
              "display": "Cholesterol in HDL [Mass/volume] in Serum or Plasma"
            }
          ],
          "text": "Cholesterol in HDL [Mass/volume] in Serum or Plasma"
        },
        "valueQuantity": {
          "system": "http://unitsofmeasure.org",
          "value": 58.4,
          "unit": "mg/dL",
          "code": "mg/dL"
        },
        "referenceRange": [
          {
            "low": {
              "value": 40,
              "code": "mg/dL",
              "system": "http://unitsofmeasure.org"
            }
          },
          {
            "high": {
              "value": 60,
              "code": "mg/dL",
              "system": "http://unitsofmeasure.org"
            }
          }
        ],
        "text": {
          "status": "generated",
          "div": "<div xmlns=\"http://www.w3.org/1999/xhtml\"><table class=\"hl7__eu__lab__report\"><tr><th>Test</th><th>15-Nov-2024</th><th>Reference&#xA0;Range</th><th>Unit</th></tr><tr><td>Cholesterol in HDL [Mass/volume] in Serum or Plasma</td><td>58.4</td><td>40 - 60</td><td></td><td>mg/dL</td></tr></table></div>"
        },
        "status": "final",
        "subject": {
          "reference": "urn:uuid:e5e178c4-9a39-4715-8c1e-b0e360907630",
          "display": "Elias Höfig"
        },
        "effectiveDateTime": "2024-11-15T09:47:46Z"
      }
    },
    {
      "fullUrl": "urn:uuid:92280dbc-71ed-4934-9b07-a458a7041249",
      "resource": {
        "resourceType": "Device",
        "id": "92280dbc-71ed-4934-9b07-a458a7041249",
        "deviceName": [
          {
            "name": "SYNDERAI Synthetic Generator",
            "type": "manufacturer-name"
          }
        ],
        "version": [
          {
            "value": "5.0"
          }
        ],
        "text": {
          "status": "generated",
          "div": "<div xmlns=\"http://www.w3.org/1999/xhtml\">SYNDERAI Synthetic Generator v5.0</div>"
        },
        "status": "active\"",
        "distinctIdentifier": "synderai-generator-50",
        "manufacturer": "SYNDERAI Project"
      }
    },
    {
      "fullUrl": "urn:uuid:21a3296a-2151-41ef-a4b5-33fab7ab6bf3",
      "resource": {
        "resourceType": "Provenance",
        "id": "21a3296a-2151-41ef-a4b5-33fab7ab6bf3",
        "target": [
          {
            "reference": "Patient/e5e178c4-9a39-4715-8c1e-b0e360907630"
          },
          {
            "reference": "Bundle/024a4bcd-eb55-47f5-9c03-2cdd000db119"
          },
          {
            "reference": "Composition/7ae81fe4-2e0e-44ad-b4dc-600965caf981"
          },
          {
            "reference": "PractitionerRole/5cd2ee3c-e08d-4fe9-b826-f7313f0eaca9"
          },
          {
            "reference": "Organization/9d7cb4f6-fce8-45ea-b548-4d7966124693"
          },
          {
            "reference": "Practitioner/f4b3dddc-9863-46b3-ae81-96667065a894"
          }
        ],
        "activity": {
          "text": "Synthetic Example Data Generation"
        },
        "policy": [
          "https://synderai.net/synderai-synthetic-data-policy"
        ],
        "agent": [
          {
            "type": {
              "text": "author"
            },
            "who": {
              "reference": "Device/92280dbc-71ed-4934-9b07-a458a7041249"
            }
          }
        ],
        "reason": [
          {
            "text": "Interoperability Testing and Training (non-clinical use)"
          }
        ],
        "text": {
          "status": "generated",
          "div": "<div xmlns=\"http://www.w3.org/1999/xhtml\">Provenance for SYNDERAI Synthetic Example Data Resource</div>"
        },
        "recorded": "2024-11-15T09:47:46Z"
      }
    }
  ],
  "type": "document",
  "timestamp": "2024-11-15T09:47:46Z"
}
