{
  "resourceType": "Bundle",
  "id": "3f9971ea-8cb0-4d74-b56a-e13099460313",
  "meta": {
    "profile": [
      "http://hl7.eu/fhir/eps/StructureDefinition/bundle-eu-eps"
    ]
  },
  "identifier": {
    "assigner": {
      "display": "HL7 Europe"
    },
    "system": "urn:oid:2.16.840.1.113883.2.51.999",
    "value": "55a58bad-7fa3-4d11-a6fe-390ec21970bb"
  },
  "entry": [
    {
      "fullUrl": "urn:uuid:9adac905-5e2f-45c6-8b99-ce34c812b86d",
      "resource": {
        "resourceType": "Composition",
        "id": "9adac905-5e2f-45c6-8b99-ce34c812b86d",
        "meta": {
          "security": [
            {
              "system": "http://terminology.hl7.org/CodeSystem/v3-ActReason",
              "code": "HTEST"
            },
            {
              "system": "http://terminology.hl7.org/CodeSystem/v3-ActReason",
              "code": "TRAIN"
            }
          ],
          "tag": [
            {
              "system": "https://synderai.net/fhir/CodeSystem/tags",
              "code": "synthetic",
              "display": "SYNDERAI Synthetic data"
            }
          ],
          "profile": [
            "http://hl7.eu/fhir/eps/StructureDefinition/composition-eu-eps"
          ]
        },
        "identifier": {
          "assigner": {
            "display": "HL7 Europe"
          },
          "system": "urn:oid:2.16.840.1.113883.2.51.999",
          "value": "171b7d7b-aeea-4255-a60b-99807d86cf59"
        },
        "type": {
          "coding": [
            {
              "system": "http://loinc.org",
              "code": "60591-5",
              "display": "Patient summary Document"
            }
          ],
          "text": "Patient summary Document"
        },
        "author": [
          {
            "reference": "urn:uuid:4c6954f2-1ecd-4def-9ab9-63ad8ee7b89c"
          }
        ],
        "section": [
          {
            "text": {
              "status": "generated",
              "div": "<div xmlns=\"http://www.w3.org/1999/xhtml\"><table class=\"hl7__ips\"><tr><td>No known problems or disabilities</td></tr></table></div>"
            },
            "entry": [
              {
                "reference": "urn:uuid:960eabba-7982-493e-a3e7-963a6512a870"
              }
            ],
            "code": {
              "coding": [
                {
                  "system": "http://loinc.org",
                  "code": "11450-4",
                  "display": "Problem list - Reported"
                }
              ]
            },
            "title": "Problem list"
          },
          {
            "text": {
              "status": "generated"
            },
            "entry": [
              {
                "reference": "urn:uuid:96800413-feb4-4b08-9110-ef3a3533b88a"
              },
              {
                "reference": "urn:uuid:96800413-feb4-4b08-9110-ef3a3533b88a"
              }
            ],
            "code": {
              "coding": [
                {
                  "system": "http://loinc.org",
                  "code": "10160-0",
                  "display": "History of Medication use Narrative"
                }
              ]
            },
            "title": "Medication list"
          },
          {
            "text": {
              "status": "generated",
              "div": "<div xmlns=\"http://www.w3.org/1999/xhtml\"><table class=\"hl7__ips\"><tr><th>Vaccine</th><th>Date</th></tr><tr><td>Influenza virus antigen only vaccine product</td><td><span class=\"nb\">22-Dec-2024</span></td></tr><tr><td>Neisseria meningitidis antigen-containing vaccine product</td><td><span class=\"nb\">05-Dec-2021</span></td></tr><tr><td>SARS-CoV-2 mRNA vaccine</td><td><span class=\"nb\">07-Nov-2021</span></td></tr><tr><td>Human papillomavirus 6</td><td><span class=\"nb\">18-Nov-2018</span></td></tr><tr><td>Bordetella pertussis and Clostridium tetani and Corynebacterium diphtheriae antigens only vaccine product</td><td><span class=\"nb\">06-Nov-2016</span></td></tr></table></div>"
            },
            "entry": [
              {
                "reference": "urn:uuid:7b469aa9-12e4-465d-a590-a0e911c17da0"
              },
              {
                "reference": "urn:uuid:9fc05d71-1539-427f-96be-b0ad1ecf673b"
              },
              {
                "reference": "urn:uuid:d8e98108-7dd9-4cc4-b9f4-6ffb2cbae4f3"
              },
              {
                "reference": "urn:uuid:3fbb3ce6-47f9-43d6-9eaf-e10adb147740"
              },
              {
                "reference": "urn:uuid:bb24754c-b777-4ea6-a607-bfa439ec4051"
              }
            ],
            "code": {
              "coding": [
                {
                  "system": "http://loinc.org",
                  "code": "11369-6",
                  "display": "History of Immunization note"
                }
              ]
            },
            "title": "Immunizations list"
          },
          {
            "text": {
              "status": "generated",
              "div": "<div xmlns=\"http://www.w3.org/1999/xhtml\"><table class=\"hl7__ips\"><tr><th>Procedure</th><th>Date</th><th>Reason</th></tr><tr><td>Appendectomy</td><td><span class=\"nb\">22-Jun-2016</span></td><td>Appendicitis</td></tr></table></div>"
            },
            "entry": [
              {
                "reference": "urn:uuid:4b379ea6-70f9-4509-8e65-caf110368149"
              }
            ],
            "code": {
              "coding": [
                {
                  "system": "http://loinc.org",
                  "code": "47519-4",
                  "display": "History of Procedures Document"
                }
              ]
            },
            "title": "Procedure History list"
          },
          {
            "text": {
              "status": "generated",
              "div": "<div xmlns=\"http://www.w3.org/1999/xhtml\"><table class=\"hl7__ips\"><tr><th>Allergy/Intolerance</th><th>Onset Date</th><th>Status</th><th>Type</th><th>Reaction</th></tr><tr><td></td><td>?</td><td>active</td><td>?</td><td></td></tr></table></div>"
            },
            "entry": [
              {
                "reference": "urn:uuid:426c95ca-58bc-471e-8a5f-8f4842e15881"
              }
            ],
            "code": {
              "coding": [
                {
                  "system": "http://loinc.org",
                  "code": "48765-2",
                  "display": "Allergies and adverse reactions Document"
                }
              ]
            },
            "title": "Allergies and Intolerances"
          },
          {
            "text": {
              "status": "generated",
              "div": "<div xmlns=\"http://www.w3.org/1999/xhtml\"><table class=\"hl7__ips\"><tr><th>Vital Signs</th><th>2024-12-22</th><th>2023-12-17</th></tr><tr><td>Body Height</td><td>181.4 cm</td><td>181 cm</td></tr><tr><td>Pain severity - 0-10 verbal numeric rating [Score] - Reported</td><td>1 {score}</td><td>4 {score}</td></tr><tr><td>Body Weight</td><td>64.4 kg</td><td>66.9 kg</td></tr><tr><td>Body mass index (BMI) [Ratio]</td><td>19.6 kg/m2</td><td>20.4 kg/m2</td></tr><tr><td>Body mass index (BMI) [Percentile] Per age and sex</td><td>11.2 %</td><td>28 %</td></tr><tr><td>Diastolic Blood Pressure</td><td>73 mm[Hg]</td><td>68 mm[Hg]</td></tr><tr><td>Systolic Blood Pressure</td><td>117 mm[Hg]</td><td>127 mm[Hg]</td></tr><tr><td>Heart rate</td><td>91 /min</td><td>87 /min</td></tr><tr><td>Respiratory rate</td><td>13 /min</td><td>15 /min</td></tr></table></div>"
            },
            "entry": [
              {
                "reference": "urn:uuid:26db60d1-b4f8-43a2-a9d8-2e5181fb8666"
              },
              {
                "reference": "urn:uuid:3d6cc20f-1c58-48ce-8e2d-1d42ed805723"
              },
              {
                "reference": "urn:uuid:d791ba22-63a5-409d-842f-408105fafe7f"
              },
              {
                "reference": "urn:uuid:0b4be1f2-3b8a-4b8f-989c-89eff3c1097e"
              },
              {
                "reference": "urn:uuid:ccb7766f-e09d-4416-9938-86ddc03964e7"
              },
              {
                "reference": "urn:uuid:51d35914-8bdf-4b84-807c-f3533c5401f7"
              },
              {
                "reference": "urn:uuid:a9bf5738-ed75-4039-974b-4041c49134e9"
              },
              {
                "reference": "urn:uuid:d9481268-96da-4a86-b5e3-1d63d26954db"
              },
              {
                "reference": "urn:uuid:610c1fde-bad6-43b7-9de7-fb4de186b876"
              },
              {
                "reference": "urn:uuid:7dd235ba-bcdd-42ea-9f4a-169be174a1bb"
              },
              {
                "reference": "urn:uuid:c1f9fa7d-6941-4962-a478-1728bf55eb97"
              },
              {
                "reference": "urn:uuid:283b567a-55eb-45f4-b551-223aebe4b796"
              },
              {
                "reference": "urn:uuid:2e93dd3c-f943-417d-87ae-f0a781460738"
              },
              {
                "reference": "urn:uuid:0998c736-a254-456c-8d13-071f7485de5a"
              },
              {
                "reference": "urn:uuid:13919f54-98aa-4101-9b10-5d1448170347"
              },
              {
                "reference": "urn:uuid:e9f4f165-7c93-4b68-a699-70b2213ca419"
              },
              {
                "reference": "urn:uuid:c7f85e3d-0ea0-401e-8791-9115454deef2"
              },
              {
                "reference": "urn:uuid:12f6f43b-b02b-4725-934e-2859ef72743d"
              }
            ],
            "code": {
              "coding": [
                {
                  "system": "http://loinc.org",
                  "code": "8716-3",
                  "display": "Vital signs note"
                }
              ]
            },
            "title": "Vital Signs"
          },
          {
            "text": {
              "status": "generated",
              "div": "<div xmlns=\"http://www.w3.org/1999/xhtml\"><table class=\"hl7__ips\"><table class=\"hl7__ips\"><thead><tr><th>Recent Lab Observations</th><th>05-DEC-2021</th><th>Reference&#xA0;Range</th><th>Unit</th></tr></thead><tbody><tr><td>Leukocytes [#/volume] in Blood by Automated count</td><td>6.7</td><td>4.5 - 10.5</td><td>10*3/uL</td></tr><tr><td>Erythrocytes [#/volume] in Blood by Automated count</td><td>5.5</td><td>4.5 - 6.2</td><td>10*6/uL</td></tr><tr><td>Hemoglobin [Mass/volume] in Blood</td><td>16.5</td><td>13.5 - 17.5</td><td>g/dL</td></tr><tr><td>Hematocrit [Volume Fraction] of Blood by Automated count</td><td><strong>36.7 L</strong></td><td>38 - 50</td><td>%</td></tr><tr><td>MCV [Entitic volume] by Automated count</td><td>81.2</td><td>76 - 98</td><td>fL</td></tr><tr><td>MCH [Entitic mass] by Automated count</td><td>32.6</td><td>27 - 34.5</td><td>pg</td></tr><tr><td>MCHC [Mass/volume] by Automated count</td><td>35.1</td><td>31 - 37</td><td>g/dL</td></tr><tr><td>Erythrocyte distribution width [Entitic volume] by Automated count</td><td>44.2</td><td>36 - 55</td><td>fL</td></tr><tr><td>Platelets [#/volume] in Blood by Automated count</td><td><strong>351.9 H</strong></td><td>150 - 350</td><td>10*3/uL</td></tr><tr><td>Platelet distribution width [Entitic volume] in Blood by Automated count</td><td><strong>286.6 H</strong></td><td>13.4 - 17.4</td><td>fL</td></tr><tr><td>Platelet mean volume [Entitic volume] in Blood by Automated count</td><td>11.4</td><td>9.4 - 12</td><td>fL</td></tr></tbody></table></table></div>"
            },
            "entry": [
              {
                "reference": "urn:uuid:ffb05265-cd9c-49cc-88a1-ad7d51ce47eb"
              },
              {
                "reference": "urn:uuid:97938f5b-d038-4074-b3d9-d0f38b4c8ff0"
              },
              {
                "reference": "urn:uuid:3ba70b63-49d1-47ed-a88f-c280a9d2f9bc"
              },
              {
                "reference": "urn:uuid:897d4bd0-6a13-4ce5-89e3-eec738f604e4"
              },
              {
                "reference": "urn:uuid:0c02d931-8abc-44d3-9506-148993aef294"
              },
              {
                "reference": "urn:uuid:2203b11c-0bf4-4365-8331-6564595d90fd"
              },
              {
                "reference": "urn:uuid:c23f8e65-4320-4dae-a92e-d94ea2a51168"
              },
              {
                "reference": "urn:uuid:b62130f8-cc70-4960-bc04-88418cdd96c7"
              },
              {
                "reference": "urn:uuid:add23148-6f8e-47a4-b946-7d05da5c2b3b"
              },
              {
                "reference": "urn:uuid:823b157c-4dc6-4185-b13e-6e61fcf8f2c2"
              },
              {
                "reference": "urn:uuid:acbf6c73-7da2-4be6-b53f-2a28e3f40914"
              }
            ],
            "code": {
              "coding": [
                {
                  "system": "http://loinc.org",
                  "code": "30954-2",
                  "display": "Relevant diagnostic tests/laboratory data note"
                }
              ]
            },
            "title": "Relevant diagnostic tests/laboratory data"
          }
        ],
        "title": "European Patient Summary",
        "status": "final",
        "subject": {
          "reference": "urn:uuid:364d404e-70bf-476c-90af-15604f2fada0",
          "display": "Amadeo Andreozzi"
        },
        "custodian": {
          "reference": "urn:uuid:b7b254e2-6105-484f-8990-1d7e4cda735a"
        },
        "date": "2021-12-05",
        "confidentiality": "N"
      }
    },
    {
      "fullUrl": "urn:uuid:364d404e-70bf-476c-90af-15604f2fada0",
      "resource": {
        "resourceType": "Patient",
        "id": "364d404e-70bf-476c-90af-15604f2fada0",
        "meta": {
          "security": [
            {
              "system": "http://terminology.hl7.org/CodeSystem/v3-ActReason",
              "code": "HTEST"
            },
            {
              "system": "http://terminology.hl7.org/CodeSystem/v3-ActReason",
              "code": "TRAIN"
            }
          ],
          "tag": [
            {
              "system": "https://synderai.net/fhir/CodeSystem/tags",
              "code": "synthetic",
              "display": "SYNDERAI Synthetic data"
            }
          ],
          "profile": [
            "http://hl7.eu/fhir/eps/StructureDefinition/patient-eu-eps"
          ]
        },
        "identifier": [
          {
            "type": {
              "coding": [
                {
                  "code": "PT",
                  "system": "http://terminology.hl7.org/CodeSystem/v2-0203"
                }
              ]
            },
            "system": "http://ec.europa.eu/identifier/eci",
            "value": "9798-276056-9"
          },
          {
            "type": {
              "coding": [
                {
                  "code": "MR",
                  "system": "http://terminology.hl7.org/CodeSystem/v2-0203"
                }
              ]
            },
            "system": "http://local.setting.eu/identifier",
            "value": "67df392d-f7bc-1bdd-7268-bc75454231cd"
          }
        ],
        "name": [
          {
            "family": "Andreozzi"
          },
          {
            "given": [
              "Amadeo"
            ]
          },
          {
            "text": "Amadeo Andreozzi"
          }
        ],
        "address": [
          {
            "line": [
              "Canale Riccardo, 887 Appartamento 1"
            ],
            "use": "home",
            "type": "physical",
            "postalCode": "23887",
            "city": "Valle San Nicolao",
            "country": "Italy"
          }
        ],
        "telecom": [
          {
            "system": "phone",
            "value": "+39 08231278688"
          }
        ],
        "extension": [
          {
            "url": "http://hl7.org/fhir/StructureDefinition/patient-nationality",
            "valueCodeableConcept": {
              "coding": [
                {
                  "code": "IT",
                  "system": "http://hl7.org/fhir/ValueSet/country"
                }
              ]
            }
          }
        ],
        "text": {
          "status": "generated",
          "div": "<div xmlns=\"http://www.w3.org/1999/xhtml\"><table class=\"hl7__ips\"><tr><td>Amadeo Andreozzi</td><td>male</td><td>09-Apr-2007</td></tr></table></div>"
        },
        "gender": "male",
        "birthDate": "2007-04-09"
      }
    },
    {
      "fullUrl": "urn:uuid:4c6954f2-1ecd-4def-9ab9-63ad8ee7b89c",
      "resource": {
        "resourceType": "PractitionerRole",
        "id": "4c6954f2-1ecd-4def-9ab9-63ad8ee7b89c",
        "meta": {
          "profile": [
            "http://hl7.eu/fhir/base/StructureDefinition/practitionerRole-eu"
          ]
        },
        "text": {
          "status": "generated",
          "div": "<div xmlns=\"http://www.w3.org/1999/xhtml\"><table class=\"hl7__ips\">Provider Role Id 4c6954f2-1ecd-4def-9ab9-63ad8ee7b89c</table></div>"
        },
        "practitioner": {
          "reference": "urn:uuid:9565a8fd-ee00-4ac9-9a9d-b5ef936610cd"
        },
        "organization": {
          "reference": "urn:uuid:b7b254e2-6105-484f-8990-1d7e4cda735a"
        }
      }
    },
    {
      "fullUrl": "urn:uuid:9565a8fd-ee00-4ac9-9a9d-b5ef936610cd",
      "resource": {
        "resourceType": "Practitioner",
        "id": "9565a8fd-ee00-4ac9-9a9d-b5ef936610cd",
        "meta": {
          "profile": [
            "http://hl7.eu/fhir/base/StructureDefinition/practitioner-eu"
          ]
        },
        "name": [
          {
            "prefix": [
              "Dr."
            ],
            "given": [
              "Hel"
            ],
            "family": "Ping"
          }
        ],
        "text": {
          "status": "generated",
          "div": "<div xmlns=\"http://www.w3.org/1999/xhtml\"><table class=\"hl7__ips\">Dr. Hel Ping</table></div>"
        }
      }
    },
    {
      "fullUrl": "urn:uuid:b7b254e2-6105-484f-8990-1d7e4cda735a",
      "resource": {
        "resourceType": "Organization",
        "id": "b7b254e2-6105-484f-8990-1d7e4cda735a",
        "meta": {
          "profile": [
            "http://hl7.eu/fhir/base/StructureDefinition/organization-eu"
          ]
        },
        "identifier": [
          {
            "assigner": {
              "display": "HL7 Europe"
            },
            "system": "urn:oid:2.16.840.1.113883.2.51.999",
            "value": "6f70b8d2-b0e1-4191-aa2e-53a117745765"
          }
        ],
        "address": [
          {
            "line": [
              "Largo Beato Leopoldo Mandic 1"
            ],
            "city": "Merate",
            "postalCode": "23807",
            "country": "Italy"
          }
        ],
        "text": {
          "status": "generated",
          "div": "<div xmlns=\"http://www.w3.org/1999/xhtml\"><table class=\"hl7__ips\">Ospedale San Leopoldo Mandic</table></div>"
        },
        "name": "Ospedale San Leopoldo Mandic"
      }
    },
    {
      "fullUrl": "urn:uuid:960eabba-7982-493e-a3e7-963a6512a870",
      "resource": {
        "resourceType": "Condition",
        "id": "960eabba-7982-493e-a3e7-963a6512a870",
        "meta": {
          "profile": [
            "http://hl7.org/fhir/uv/ips/StructureDefinition/Condition-uv-ips"
          ]
        },
        "code": {
          "coding": [
            {
              "code": "160245001",
              "system": "http://snomed.info/sct",
              "display": "No current problems or disability (situation)"
            }
          ]
        },
        "text": {
          "status": "generated",
          "div": "<div xmlns=\"http://www.w3.org/1999/xhtml\"><table class=\"hl7__ips\"><tr><td>No known problems or disabilities</td></tr></table></div>"
        },
        "subject": {
          "reference": "Patient/364d404e-70bf-476c-90af-15604f2fada0",
          "display": "Amadeo Andreozzi"
        },
        "_onsetDateTime": {
          "extension": [
            {
              "url": "http://hl7.org/fhir/StructureDefinition/data-absent-reason",
              "valueCode": "unknown\""
            }
          ]
        }
      }
    },
    {
      "fullUrl": "urn:uuid:96800413-feb4-4b08-9110-ef3a3533b88a",
      "resource": {
        "resourceType": "MedicationStatement",
        "id": "96800413-feb4-4b08-9110-ef3a3533b88a",
        "meta": {
          "profile": [
            "http://hl7.eu/fhir/eps/StructureDefinition/MedicationStatement-eu-eps"
          ]
        },
        "effectivePeriod": {
          "extension": [
            {
              "url": "http://hl7.org/fhir/StructureDefinition/data-absent-reason",
              "valueCode": "unknown"
            }
          ]
        },
        "status": "active",
        "medicationCodeableConcept": {
          "coding": [
            {
              "code": "787481004",
              "system": "http://snomed.info/sct",
              "display": "No known medications (situation)"
            }
          ]
        },
        "subject": {
          "reference": "urn:uuid:364d404e-70bf-476c-90af-15604f2fada0",
          "display": "Amadeo Andreozzi"
        }
      }
    },
    {
      "fullUrl": "urn:uuid:96800413-feb4-4b08-9110-ef3a3533b88a",
      "resource": {
        "resourceType": "MedicationStatement",
        "id": "96800413-feb4-4b08-9110-ef3a3533b88a",
        "meta": {
          "profile": [
            "http://hl7.eu/fhir/eps/StructureDefinition/MedicationStatement-eu-eps"
          ]
        },
        "effectivePeriod": {
          "extension": [
            {
              "url": "http://hl7.org/fhir/StructureDefinition/data-absent-reason",
              "valueCode": "unknown"
            }
          ]
        },
        "status": "active",
        "medicationCodeableConcept": {
          "coding": [
            {
              "code": "787481004",
              "system": "http://snomed.info/sct",
              "display": "No known medications (situation)"
            }
          ]
        },
        "subject": {
          "reference": "urn:uuid:364d404e-70bf-476c-90af-15604f2fada0",
          "display": "Amadeo Andreozzi"
        }
      }
    },
    {
      "fullUrl": "urn:uuid:7b469aa9-12e4-465d-a590-a0e911c17da0",
      "resource": {
        "resourceType": "Immunization",
        "id": "7b469aa9-12e4-465d-a590-a0e911c17da0",
        "meta": {
          "profile": [
            "http://hl7.org/fhir/uv/ips/StructureDefinition/Immunization-uv-ips"
          ]
        },
        "vaccineCode": {
          "coding": [
            {
              "code": "1181000221105",
              "system": "http://snomed.info/sct",
              "display": "Vaccine product containing Influenza virus antigen"
            },
            {
              "code": "J07BB02",
              "system": "http://www.whocc.no/atc",
              "display": "Influenza, inactivated, split virus"
            }
          ],
          "text": "Influenza virus antigen only vaccine product"
        },
        "site": {
          "coding": [
            {
              "code": "244979005",
              "system": "http://snomed.info/sct",
              "display": "Entire muscle of upper arm"
            }
          ],
          "text": "Entire muscle of upper arm"
        },
        "route": {
          "coding": [
            {
              "code": "78421000",
              "system": "http://snomed.info/sct",
              "display": "Intramuscular route"
            }
          ],
          "text": "Intramuscular route"
        },
        "text": {
          "status": "generated",
          "div": "<div xmlns=\"http://www.w3.org/1999/xhtml\"><table class=\"hl7__ips\"><tr><td>Influenza virus antigen only vaccine product</td><td><span class=\"nb\">22-Dec-2024</span></td></tr></table></div>"
        },
        "status": "completed",
        "patient": {
          "reference": "urn:uuid:364d404e-70bf-476c-90af-15604f2fada0",
          "display": "Amadeo Andreozzi"
        },
        "occurrenceDateTime": "2024-12-22",
        "lotNumber": "KG-QnyRs8Z",
        "expirationDate": "2025-11-01"
      }
    },
    {
      "fullUrl": "urn:uuid:9fc05d71-1539-427f-96be-b0ad1ecf673b",
      "resource": {
        "resourceType": "Immunization",
        "id": "9fc05d71-1539-427f-96be-b0ad1ecf673b",
        "meta": {
          "profile": [
            "http://hl7.org/fhir/uv/ips/StructureDefinition/Immunization-uv-ips"
          ]
        },
        "vaccineCode": {
          "coding": [
            {
              "code": "836401009",
              "system": "http://snomed.info/sct",
              "display": "Vaccine product containing Neisseria meningitidis antigen"
            },
            {
              "code": "J07AH08",
              "system": "http://www.whocc.no/atc",
              "display": "Meningococcal vaccines, conjugated"
            }
          ],
          "text": "Neisseria meningitidis antigen-containing vaccine product"
        },
        "site": {
          "coding": [
            {
              "code": "244979005",
              "system": "http://snomed.info/sct",
              "display": "Entire muscle of upper arm"
            }
          ],
          "text": "Entire muscle of upper arm"
        },
        "route": {
          "coding": [
            {
              "code": "78421000",
              "system": "http://snomed.info/sct",
              "display": "Intramuscular route"
            }
          ],
          "text": "Intramuscular route"
        },
        "text": {
          "status": "generated",
          "div": "<div xmlns=\"http://www.w3.org/1999/xhtml\"><table class=\"hl7__ips\"><tr><td>Neisseria meningitidis antigen-containing vaccine product</td><td><span class=\"nb\">05-Dec-2021</span></td></tr></table></div>"
        },
        "status": "completed",
        "patient": {
          "reference": "urn:uuid:364d404e-70bf-476c-90af-15604f2fada0",
          "display": "Amadeo Andreozzi"
        },
        "occurrenceDateTime": "2021-12-05",
        "lotNumber": "ZD-yrbHM4e",
        "expirationDate": "2022-08-14"
      }
    },
    {
      "fullUrl": "urn:uuid:d8e98108-7dd9-4cc4-b9f4-6ffb2cbae4f3",
      "resource": {
        "resourceType": "Immunization",
        "id": "d8e98108-7dd9-4cc4-b9f4-6ffb2cbae4f3",
        "meta": {
          "profile": [
            "http://hl7.org/fhir/uv/ips/StructureDefinition/Immunization-uv-ips"
          ]
        },
        "vaccineCode": {
          "coding": [
            {
              "code": "1119349007",
              "system": "http://snomed.info/sct",
              "display": "Vaccine product containing SARS-CoV-2 mRNA"
            },
            {
              "code": "J07BX03",
              "system": "http://www.whocc.no/atc",
              "display": "COVID-19 mRNA vaccines"
            }
          ],
          "text": "SARS-CoV-2 mRNA vaccine"
        },
        "site": {
          "coding": [
            {
              "code": "244979005",
              "system": "http://snomed.info/sct",
              "display": "Entire muscle of upper arm"
            }
          ],
          "text": "Entire muscle of upper arm"
        },
        "route": {
          "coding": [
            {
              "code": "78421000",
              "system": "http://snomed.info/sct",
              "display": "Intramuscular route"
            }
          ],
          "text": "Intramuscular route"
        },
        "text": {
          "status": "generated",
          "div": "<div xmlns=\"http://www.w3.org/1999/xhtml\"><table class=\"hl7__ips\"><tr><td>SARS-CoV-2 mRNA vaccine</td><td><span class=\"nb\">07-Nov-2021</span></td></tr></table></div>"
        },
        "status": "completed",
        "patient": {
          "reference": "urn:uuid:364d404e-70bf-476c-90af-15604f2fada0",
          "display": "Amadeo Andreozzi"
        },
        "occurrenceDateTime": "2021-11-07",
        "lotNumber": "CH-YDdxa",
        "expirationDate": "2022-11-14"
      }
    },
    {
      "fullUrl": "urn:uuid:3fbb3ce6-47f9-43d6-9eaf-e10adb147740",
      "resource": {
        "resourceType": "Immunization",
        "id": "3fbb3ce6-47f9-43d6-9eaf-e10adb147740",
        "meta": {
          "profile": [
            "http://hl7.org/fhir/uv/ips/StructureDefinition/Immunization-uv-ips"
          ]
        },
        "vaccineCode": {
          "coding": [
            {
              "code": "2001000221108",
              "system": "http://snomed.info/sct",
              "display": "Vaccine product containing HPV 6, 11, 16, and 18 antigens"
            },
            {
              "code": "J07BM02",
              "system": "http://www.whocc.no/atc",
              "display": "Human papillomavirus vaccines"
            }
          ],
          "text": "Human papillomavirus 6"
        },
        "site": {
          "coding": [
            {
              "code": "244979005",
              "system": "http://snomed.info/sct",
              "display": "Entire muscle of upper arm"
            }
          ],
          "text": "Entire muscle of upper arm"
        },
        "route": {
          "coding": [
            {
              "code": "78421000",
              "system": "http://snomed.info/sct",
              "display": "Intramuscular route"
            }
          ],
          "text": "Intramuscular route"
        },
        "text": {
          "status": "generated",
          "div": "<div xmlns=\"http://www.w3.org/1999/xhtml\"><table class=\"hl7__ips\"><tr><td>Human papillomavirus 6</td><td><span class=\"nb\">18-Nov-2018</span></td></tr></table></div>"
        },
        "status": "completed",
        "patient": {
          "reference": "urn:uuid:364d404e-70bf-476c-90af-15604f2fada0",
          "display": "Amadeo Andreozzi"
        },
        "occurrenceDateTime": "2018-11-18",
        "lotNumber": "MF-MAuIn",
        "expirationDate": "2019-02-08"
      }
    },
    {
      "fullUrl": "urn:uuid:bb24754c-b777-4ea6-a607-bfa439ec4051",
      "resource": {
        "resourceType": "Immunization",
        "id": "bb24754c-b777-4ea6-a607-bfa439ec4051",
        "meta": {
          "profile": [
            "http://hl7.org/fhir/uv/ips/StructureDefinition/Immunization-uv-ips"
          ]
        },
        "vaccineCode": {
          "coding": [
            {
              "code": "871875004",
              "system": "http://snomed.info/sct",
              "display": "Vaccine product containing Bordetella pertussis, Clostridium tetani, and Corynebacterium diphtheriae antigens"
            },
            {
              "code": "J07AM52",
              "system": "http://www.whocc.no/atc",
              "display": "Diphtheria-tetanus-pertussis vaccines, adult type"
            }
          ],
          "text": "Bordetella pertussis and Clostridium tetani and Corynebacterium diphtheriae antigens only vaccine product"
        },
        "site": {
          "coding": [
            {
              "code": "244979005",
              "system": "http://snomed.info/sct",
              "display": "Entire muscle of upper arm"
            }
          ],
          "text": "Entire muscle of upper arm"
        },
        "route": {
          "coding": [
            {
              "code": "78421000",
              "system": "http://snomed.info/sct",
              "display": "Intramuscular route"
            }
          ],
          "text": "Intramuscular route"
        },
        "text": {
          "status": "generated",
          "div": "<div xmlns=\"http://www.w3.org/1999/xhtml\"><table class=\"hl7__ips\"><tr><td>Bordetella pertussis and Clostridium tetani and Corynebacterium diphtheriae antigens only vaccine product</td><td><span class=\"nb\">06-Nov-2016</span></td></tr></table></div>"
        },
        "status": "completed",
        "patient": {
          "reference": "urn:uuid:364d404e-70bf-476c-90af-15604f2fada0",
          "display": "Amadeo Andreozzi"
        },
        "occurrenceDateTime": "2016-11-06",
        "lotNumber": "JP-A0YAeBV",
        "expirationDate": "2017-09-25"
      }
    },
    {
      "fullUrl": "urn:uuid:4b379ea6-70f9-4509-8e65-caf110368149",
      "resource": {
        "resourceType": "Procedure",
        "id": "4b379ea6-70f9-4509-8e65-caf110368149",
        "meta": {
          "profile": [
            "http://hl7.org/fhir/uv/ips/StructureDefinition/Procedure-uv-ips"
          ]
        },
        "code": {
          "coding": [
            {
              "code": "80146002",
              "system": "http://snomed.info/sct",
              "display": "Appendectomy"
            }
          ],
          "text": "Appendectomy"
        },
        "reasonCode": [
          {
            "coding": [
              {
                "code": "74400008",
                "system": "http://snomed.info/sct",
                "display": "Appendicitis"
              }
            ]
          }
        ],
        "text": {
          "status": "generated",
          "div": "<div xmlns=\"http://www.w3.org/1999/xhtml\"><table class=\"hl7__ips\"><tr><td>Appendectomy</td><td><span class=\"nb\">22-Jun-2016</span></td><td>Appendicitis</td></tr></table></div>"
        },
        "status": "completed",
        "performedDateTime": "2016-06-22",
        "subject": {
          "reference": "urn:uuid:",
          "display": "Amadeo Andreozzi"
        }
      }
    },
    {
      "fullUrl": "urn:uuid:426c95ca-58bc-471e-8a5f-8f4842e15881",
      "resource": {
        "resourceType": "AllergyIntolerance",
        "id": "426c95ca-58bc-471e-8a5f-8f4842e15881",
        "meta": {
          "profile": [
            "http://hl7.eu/fhir/eps/StructureDefinition/allergyIntolerance-eu-eps"
          ]
        },
        "code": {
          "text": ""
        },
        "clinicalStatus": {
          "coding": [
            {
              "code": "active",
              "system": "http://terminology.hl7.org/CodeSystem/allergyintolerance-clinical"
            }
          ]
        },
        "text": {
          "status": "generated",
          "div": "<div xmlns=\"http://www.w3.org/1999/xhtml\"><table class=\"hl7__ips\"><tr><th>Allergy/Intolerance</th><th>Onset Date</th><th>Status</th><th>Type</th><th>Reaction</th></tr><tr><td></td><td>?</td><td>active</td><td>?</td><td></td></tr></table></div>"
        },
        "verificationStatus": {
          "coding": [
            {
              "code": "confirmed",
              "system": "http://terminology.hl7.org/CodeSystem/allergyintolerance-verification"
            }
          ]
        },
        "patient": {
          "reference": "urn:uuid:364d404e-70bf-476c-90af-15604f2fada0",
          "display": "Amadeo Andreozzi"
        },
        "_onsetDateTime": {
          "extension": [
            {
              "url": "http://hl7.org/fhir/StructureDefinition/data-absent-reason",
              "valueCode": "unknown"
            }
          ]
        }
      }
    },
    {
      "fullUrl": "urn:uuid:26db60d1-b4f8-43a2-a9d8-2e5181fb8666",
      "resource": {
        "resourceType": "Observation",
        "id": "26db60d1-b4f8-43a2-a9d8-2e5181fb8666",
        "meta": {
          "profile": [
            "http://hl7.org/fhir/StructureDefinition/vitalsigns"
          ]
        },
        "category": [
          {
            "coding": [
              {
                "system": "http://terminology.hl7.org/CodeSystem/observation-category",
                "code": "vital-signs",
                "display": "Vital Signs"
              }
            ]
          }
        ],
        "valueQuantity": {
          "value": 181.4,
          "code": "cm",
          "unit": "cm"
        },
        "text": {
          "status": "generated",
          "div": "<div xmlns=\"http://www.w3.org/1999/xhtml\"><table class=\"hl7__ips\"><tr><th>Vital Sign</th><th>Date</th><th>Measurement</th></tr><tr><td>Body Height</td><td>22-Dec-2024</td><td>181.4 cm</td></tr></table></div>"
        },
        "status": "final",
        "code": {
          "coding": [
            {
              "code": "$8302-2",
              "system": "http://loinc.org",
              "display": "Body Height"
            }
          ]
        },
        "subject": {
          "reference": "urn:uuid:364d404e-70bf-476c-90af-15604f2fada0",
          "display": "Amadeo Andreozzi"
        },
        "effectiveDateTime": "2024-12-22"
      }
    },
    {
      "fullUrl": "urn:uuid:3d6cc20f-1c58-48ce-8e2d-1d42ed805723",
      "resource": {
        "resourceType": "Observation",
        "id": "3d6cc20f-1c58-48ce-8e2d-1d42ed805723",
        "meta": {
          "profile": [
            "http://hl7.org/fhir/StructureDefinition/vitalsigns"
          ]
        },
        "category": [
          {
            "coding": [
              {
                "system": "http://terminology.hl7.org/CodeSystem/observation-category",
                "code": "vital-signs",
                "display": "Vital Signs"
              }
            ]
          }
        ],
        "valueQuantity": {
          "value": 1,
          "code": "{score}",
          "unit": "{score}"
        },
        "text": {
          "status": "generated",
          "div": "<div xmlns=\"http://www.w3.org/1999/xhtml\"><table class=\"hl7__ips\"><tr><th>Vital Sign</th><th>Date</th><th>Measurement</th></tr><tr><td>Pain severity - 0-10 verbal numeric rating [Score] - Reported</td><td>22-Dec-2024</td><td>1 {score}</td></tr></table></div>"
        },
        "status": "final",
        "code": {
          "coding": [
            {
              "code": "$72514-3",
              "system": "http://loinc.org",
              "display": "Pain severity - 0-10 verbal numeric rating [Score] - Reported"
            }
          ]
        },
        "subject": {
          "reference": "urn:uuid:364d404e-70bf-476c-90af-15604f2fada0",
          "display": "Amadeo Andreozzi"
        },
        "effectiveDateTime": "2024-12-22"
      }
    },
    {
      "fullUrl": "urn:uuid:d791ba22-63a5-409d-842f-408105fafe7f",
      "resource": {
        "resourceType": "Observation",
        "id": "d791ba22-63a5-409d-842f-408105fafe7f",
        "meta": {
          "profile": [
            "http://hl7.org/fhir/StructureDefinition/vitalsigns"
          ]
        },
        "category": [
          {
            "coding": [
              {
                "system": "http://terminology.hl7.org/CodeSystem/observation-category",
                "code": "vital-signs",
                "display": "Vital Signs"
              }
            ]
          }
        ],
        "valueQuantity": {
          "value": 64.4,
          "code": "kg",
          "unit": "kg"
        },
        "text": {
          "status": "generated",
          "div": "<div xmlns=\"http://www.w3.org/1999/xhtml\"><table class=\"hl7__ips\"><tr><th>Vital Sign</th><th>Date</th><th>Measurement</th></tr><tr><td>Body Weight</td><td>22-Dec-2024</td><td>64.4 kg</td></tr></table></div>"
        },
        "status": "final",
        "code": {
          "coding": [
            {
              "code": "$29463-7",
              "system": "http://loinc.org",
              "display": "Body Weight"
            }
          ]
        },
        "subject": {
          "reference": "urn:uuid:364d404e-70bf-476c-90af-15604f2fada0",
          "display": "Amadeo Andreozzi"
        },
        "effectiveDateTime": "2024-12-22"
      }
    },
    {
      "fullUrl": "urn:uuid:0b4be1f2-3b8a-4b8f-989c-89eff3c1097e",
      "resource": {
        "resourceType": "Observation",
        "id": "0b4be1f2-3b8a-4b8f-989c-89eff3c1097e",
        "meta": {
          "profile": [
            "http://hl7.org/fhir/StructureDefinition/vitalsigns"
          ]
        },
        "category": [
          {
            "coding": [
              {
                "system": "http://terminology.hl7.org/CodeSystem/observation-category",
                "code": "vital-signs",
                "display": "Vital Signs"
              }
            ]
          }
        ],
        "valueQuantity": {
          "value": 19.6,
          "code": "kg/m2",
          "unit": "kg/m2"
        },
        "text": {
          "status": "generated",
          "div": "<div xmlns=\"http://www.w3.org/1999/xhtml\"><table class=\"hl7__ips\"><tr><th>Vital Sign</th><th>Date</th><th>Measurement</th></tr><tr><td>Body mass index (BMI) [Ratio]</td><td>22-Dec-2024</td><td>19.6 kg/m2</td></tr></table></div>"
        },
        "status": "final",
        "code": {
          "coding": [
            {
              "code": "$39156-5",
              "system": "http://loinc.org",
              "display": "Body mass index (BMI) [Ratio]"
            }
          ]
        },
        "subject": {
          "reference": "urn:uuid:364d404e-70bf-476c-90af-15604f2fada0",
          "display": "Amadeo Andreozzi"
        },
        "effectiveDateTime": "2024-12-22"
      }
    },
    {
      "fullUrl": "urn:uuid:ccb7766f-e09d-4416-9938-86ddc03964e7",
      "resource": {
        "resourceType": "Observation",
        "id": "ccb7766f-e09d-4416-9938-86ddc03964e7",
        "meta": {
          "profile": [
            "http://hl7.org/fhir/StructureDefinition/vitalsigns"
          ]
        },
        "category": [
          {
            "coding": [
              {
                "system": "http://terminology.hl7.org/CodeSystem/observation-category",
                "code": "vital-signs",
                "display": "Vital Signs"
              }
            ]
          }
        ],
        "valueQuantity": {
          "value": 11.2,
          "code": "%",
          "unit": "%"
        },
        "text": {
          "status": "generated",
          "div": "<div xmlns=\"http://www.w3.org/1999/xhtml\"><table class=\"hl7__ips\"><tr><th>Vital Sign</th><th>Date</th><th>Measurement</th></tr><tr><td>Body mass index (BMI) [Percentile] Per age and sex</td><td>22-Dec-2024</td><td>11.2 %</td></tr></table></div>"
        },
        "status": "final",
        "code": {
          "coding": [
            {
              "code": "$59576-9",
              "system": "http://loinc.org",
              "display": "Body mass index (BMI) [Percentile] Per age and sex"
            }
          ]
        },
        "subject": {
          "reference": "urn:uuid:364d404e-70bf-476c-90af-15604f2fada0",
          "display": "Amadeo Andreozzi"
        },
        "effectiveDateTime": "2024-12-22"
      }
    },
    {
      "fullUrl": "urn:uuid:51d35914-8bdf-4b84-807c-f3533c5401f7",
      "resource": {
        "resourceType": "Observation",
        "id": "51d35914-8bdf-4b84-807c-f3533c5401f7",
        "meta": {
          "profile": [
            "http://hl7.org/fhir/StructureDefinition/vitalsigns"
          ]
        },
        "category": [
          {
            "coding": [
              {
                "system": "http://terminology.hl7.org/CodeSystem/observation-category",
                "code": "vital-signs",
                "display": "Vital Signs"
              }
            ]
          }
        ],
        "valueQuantity": {
          "value": 73,
          "code": "mm[Hg]",
          "unit": "mm[Hg]"
        },
        "text": {
          "status": "generated",
          "div": "<div xmlns=\"http://www.w3.org/1999/xhtml\"><table class=\"hl7__ips\"><tr><th>Vital Sign</th><th>Date</th><th>Measurement</th></tr><tr><td>Diastolic Blood Pressure</td><td>22-Dec-2024</td><td>73 mm[Hg]</td></tr></table></div>"
        },
        "status": "final",
        "code": {
          "coding": [
            {
              "code": "$8462-4",
              "system": "http://loinc.org",
              "display": "Diastolic Blood Pressure"
            }
          ]
        },
        "subject": {
          "reference": "urn:uuid:364d404e-70bf-476c-90af-15604f2fada0",
          "display": "Amadeo Andreozzi"
        },
        "effectiveDateTime": "2024-12-22"
      }
    },
    {
      "fullUrl": "urn:uuid:a9bf5738-ed75-4039-974b-4041c49134e9",
      "resource": {
        "resourceType": "Observation",
        "id": "a9bf5738-ed75-4039-974b-4041c49134e9",
        "meta": {
          "profile": [
            "http://hl7.org/fhir/StructureDefinition/vitalsigns"
          ]
        },
        "category": [
          {
            "coding": [
              {
                "system": "http://terminology.hl7.org/CodeSystem/observation-category",
                "code": "vital-signs",
                "display": "Vital Signs"
              }
            ]
          }
        ],
        "valueQuantity": {
          "value": 117,
          "code": "mm[Hg]",
          "unit": "mm[Hg]"
        },
        "text": {
          "status": "generated",
          "div": "<div xmlns=\"http://www.w3.org/1999/xhtml\"><table class=\"hl7__ips\"><tr><th>Vital Sign</th><th>Date</th><th>Measurement</th></tr><tr><td>Systolic Blood Pressure</td><td>22-Dec-2024</td><td>117 mm[Hg]</td></tr></table></div>"
        },
        "status": "final",
        "code": {
          "coding": [
            {
              "code": "$8480-6",
              "system": "http://loinc.org",
              "display": "Systolic Blood Pressure"
            }
          ]
        },
        "subject": {
          "reference": "urn:uuid:364d404e-70bf-476c-90af-15604f2fada0",
          "display": "Amadeo Andreozzi"
        },
        "effectiveDateTime": "2024-12-22"
      }
    },
    {
      "fullUrl": "urn:uuid:d9481268-96da-4a86-b5e3-1d63d26954db",
      "resource": {
        "resourceType": "Observation",
        "id": "d9481268-96da-4a86-b5e3-1d63d26954db",
        "meta": {
          "profile": [
            "http://hl7.org/fhir/StructureDefinition/vitalsigns"
          ]
        },
        "category": [
          {
            "coding": [
              {
                "system": "http://terminology.hl7.org/CodeSystem/observation-category",
                "code": "vital-signs",
                "display": "Vital Signs"
              }
            ]
          }
        ],
        "valueQuantity": {
          "value": 91,
          "code": "/min",
          "unit": "/min"
        },
        "text": {
          "status": "generated",
          "div": "<div xmlns=\"http://www.w3.org/1999/xhtml\"><table class=\"hl7__ips\"><tr><th>Vital Sign</th><th>Date</th><th>Measurement</th></tr><tr><td>Heart rate</td><td>22-Dec-2024</td><td>91 /min</td></tr></table></div>"
        },
        "status": "final",
        "code": {
          "coding": [
            {
              "code": "$8867-4",
              "system": "http://loinc.org",
              "display": "Heart rate"
            }
          ]
        },
        "subject": {
          "reference": "urn:uuid:364d404e-70bf-476c-90af-15604f2fada0",
          "display": "Amadeo Andreozzi"
        },
        "effectiveDateTime": "2024-12-22"
      }
    },
    {
      "fullUrl": "urn:uuid:610c1fde-bad6-43b7-9de7-fb4de186b876",
      "resource": {
        "resourceType": "Observation",
        "id": "610c1fde-bad6-43b7-9de7-fb4de186b876",
        "meta": {
          "profile": [
            "http://hl7.org/fhir/StructureDefinition/vitalsigns"
          ]
        },
        "category": [
          {
            "coding": [
              {
                "system": "http://terminology.hl7.org/CodeSystem/observation-category",
                "code": "vital-signs",
                "display": "Vital Signs"
              }
            ]
          }
        ],
        "valueQuantity": {
          "value": 13,
          "code": "/min",
          "unit": "/min"
        },
        "text": {
          "status": "generated",
          "div": "<div xmlns=\"http://www.w3.org/1999/xhtml\"><table class=\"hl7__ips\"><tr><th>Vital Sign</th><th>Date</th><th>Measurement</th></tr><tr><td>Respiratory rate</td><td>22-Dec-2024</td><td>13 /min</td></tr></table></div>"
        },
        "status": "final",
        "code": {
          "coding": [
            {
              "code": "$9279-1",
              "system": "http://loinc.org",
              "display": "Respiratory rate"
            }
          ]
        },
        "subject": {
          "reference": "urn:uuid:364d404e-70bf-476c-90af-15604f2fada0",
          "display": "Amadeo Andreozzi"
        },
        "effectiveDateTime": "2024-12-22"
      }
    },
    {
      "fullUrl": "urn:uuid:7dd235ba-bcdd-42ea-9f4a-169be174a1bb",
      "resource": {
        "resourceType": "Observation",
        "id": "7dd235ba-bcdd-42ea-9f4a-169be174a1bb",
        "meta": {
          "profile": [
            "http://hl7.org/fhir/StructureDefinition/vitalsigns"
          ]
        },
        "category": [
          {
            "coding": [
              {
                "system": "http://terminology.hl7.org/CodeSystem/observation-category",
                "code": "vital-signs",
                "display": "Vital Signs"
              }
            ]
          }
        ],
        "valueQuantity": {
          "value": 181,
          "code": "cm",
          "unit": "cm"
        },
        "text": {
          "status": "generated",
          "div": "<div xmlns=\"http://www.w3.org/1999/xhtml\"><table class=\"hl7__ips\"><tr><th>Vital Sign</th><th>Date</th><th>Measurement</th></tr><tr><td>Body Height</td><td>17-Dec-2023</td><td>181 cm</td></tr></table></div>"
        },
        "status": "final",
        "code": {
          "coding": [
            {
              "code": "$8302-2",
              "system": "http://loinc.org",
              "display": "Body Height"
            }
          ]
        },
        "subject": {
          "reference": "urn:uuid:364d404e-70bf-476c-90af-15604f2fada0",
          "display": "Amadeo Andreozzi"
        },
        "effectiveDateTime": "2023-12-17"
      }
    },
    {
      "fullUrl": "urn:uuid:c1f9fa7d-6941-4962-a478-1728bf55eb97",
      "resource": {
        "resourceType": "Observation",
        "id": "c1f9fa7d-6941-4962-a478-1728bf55eb97",
        "meta": {
          "profile": [
            "http://hl7.org/fhir/StructureDefinition/vitalsigns"
          ]
        },
        "category": [
          {
            "coding": [
              {
                "system": "http://terminology.hl7.org/CodeSystem/observation-category",
                "code": "vital-signs",
                "display": "Vital Signs"
              }
            ]
          }
        ],
        "valueQuantity": {
          "value": 4,
          "code": "{score}",
          "unit": "{score}"
        },
        "text": {
          "status": "generated",
          "div": "<div xmlns=\"http://www.w3.org/1999/xhtml\"><table class=\"hl7__ips\"><tr><th>Vital Sign</th><th>Date</th><th>Measurement</th></tr><tr><td>Pain severity - 0-10 verbal numeric rating [Score] - Reported</td><td>17-Dec-2023</td><td>4 {score}</td></tr></table></div>"
        },
        "status": "final",
        "code": {
          "coding": [
            {
              "code": "$72514-3",
              "system": "http://loinc.org",
              "display": "Pain severity - 0-10 verbal numeric rating [Score] - Reported"
            }
          ]
        },
        "subject": {
          "reference": "urn:uuid:364d404e-70bf-476c-90af-15604f2fada0",
          "display": "Amadeo Andreozzi"
        },
        "effectiveDateTime": "2023-12-17"
      }
    },
    {
      "fullUrl": "urn:uuid:283b567a-55eb-45f4-b551-223aebe4b796",
      "resource": {
        "resourceType": "Observation",
        "id": "283b567a-55eb-45f4-b551-223aebe4b796",
        "meta": {
          "profile": [
            "http://hl7.org/fhir/StructureDefinition/vitalsigns"
          ]
        },
        "category": [
          {
            "coding": [
              {
                "system": "http://terminology.hl7.org/CodeSystem/observation-category",
                "code": "vital-signs",
                "display": "Vital Signs"
              }
            ]
          }
        ],
        "valueQuantity": {
          "value": 66.9,
          "code": "kg",
          "unit": "kg"
        },
        "text": {
          "status": "generated",
          "div": "<div xmlns=\"http://www.w3.org/1999/xhtml\"><table class=\"hl7__ips\"><tr><th>Vital Sign</th><th>Date</th><th>Measurement</th></tr><tr><td>Body Weight</td><td>17-Dec-2023</td><td>66.9 kg</td></tr></table></div>"
        },
        "status": "final",
        "code": {
          "coding": [
            {
              "code": "$29463-7",
              "system": "http://loinc.org",
              "display": "Body Weight"
            }
          ]
        },
        "subject": {
          "reference": "urn:uuid:364d404e-70bf-476c-90af-15604f2fada0",
          "display": "Amadeo Andreozzi"
        },
        "effectiveDateTime": "2023-12-17"
      }
    },
    {
      "fullUrl": "urn:uuid:2e93dd3c-f943-417d-87ae-f0a781460738",
      "resource": {
        "resourceType": "Observation",
        "id": "2e93dd3c-f943-417d-87ae-f0a781460738",
        "meta": {
          "profile": [
            "http://hl7.org/fhir/StructureDefinition/vitalsigns"
          ]
        },
        "category": [
          {
            "coding": [
              {
                "system": "http://terminology.hl7.org/CodeSystem/observation-category",
                "code": "vital-signs",
                "display": "Vital Signs"
              }
            ]
          }
        ],
        "valueQuantity": {
          "value": 20.4,
          "code": "kg/m2",
          "unit": "kg/m2"
        },
        "text": {
          "status": "generated",
          "div": "<div xmlns=\"http://www.w3.org/1999/xhtml\"><table class=\"hl7__ips\"><tr><th>Vital Sign</th><th>Date</th><th>Measurement</th></tr><tr><td>Body mass index (BMI) [Ratio]</td><td>17-Dec-2023</td><td>20.4 kg/m2</td></tr></table></div>"
        },
        "status": "final",
        "code": {
          "coding": [
            {
              "code": "$39156-5",
              "system": "http://loinc.org",
              "display": "Body mass index (BMI) [Ratio]"
            }
          ]
        },
        "subject": {
          "reference": "urn:uuid:364d404e-70bf-476c-90af-15604f2fada0",
          "display": "Amadeo Andreozzi"
        },
        "effectiveDateTime": "2023-12-17"
      }
    },
    {
      "fullUrl": "urn:uuid:0998c736-a254-456c-8d13-071f7485de5a",
      "resource": {
        "resourceType": "Observation",
        "id": "0998c736-a254-456c-8d13-071f7485de5a",
        "meta": {
          "profile": [
            "http://hl7.org/fhir/StructureDefinition/vitalsigns"
          ]
        },
        "category": [
          {
            "coding": [
              {
                "system": "http://terminology.hl7.org/CodeSystem/observation-category",
                "code": "vital-signs",
                "display": "Vital Signs"
              }
            ]
          }
        ],
        "valueQuantity": {
          "value": 28,
          "code": "%",
          "unit": "%"
        },
        "text": {
          "status": "generated",
          "div": "<div xmlns=\"http://www.w3.org/1999/xhtml\"><table class=\"hl7__ips\"><tr><th>Vital Sign</th><th>Date</th><th>Measurement</th></tr><tr><td>Body mass index (BMI) [Percentile] Per age and sex</td><td>17-Dec-2023</td><td>28 %</td></tr></table></div>"
        },
        "status": "final",
        "code": {
          "coding": [
            {
              "code": "$59576-9",
              "system": "http://loinc.org",
              "display": "Body mass index (BMI) [Percentile] Per age and sex"
            }
          ]
        },
        "subject": {
          "reference": "urn:uuid:364d404e-70bf-476c-90af-15604f2fada0",
          "display": "Amadeo Andreozzi"
        },
        "effectiveDateTime": "2023-12-17"
      }
    },
    {
      "fullUrl": "urn:uuid:13919f54-98aa-4101-9b10-5d1448170347",
      "resource": {
        "resourceType": "Observation",
        "id": "13919f54-98aa-4101-9b10-5d1448170347",
        "meta": {
          "profile": [
            "http://hl7.org/fhir/StructureDefinition/vitalsigns"
          ]
        },
        "category": [
          {
            "coding": [
              {
                "system": "http://terminology.hl7.org/CodeSystem/observation-category",
                "code": "vital-signs",
                "display": "Vital Signs"
              }
            ]
          }
        ],
        "valueQuantity": {
          "value": 68,
          "code": "mm[Hg]",
          "unit": "mm[Hg]"
        },
        "text": {
          "status": "generated",
          "div": "<div xmlns=\"http://www.w3.org/1999/xhtml\"><table class=\"hl7__ips\"><tr><th>Vital Sign</th><th>Date</th><th>Measurement</th></tr><tr><td>Diastolic Blood Pressure</td><td>17-Dec-2023</td><td>68 mm[Hg]</td></tr></table></div>"
        },
        "status": "final",
        "code": {
          "coding": [
            {
              "code": "$8462-4",
              "system": "http://loinc.org",
              "display": "Diastolic Blood Pressure"
            }
          ]
        },
        "subject": {
          "reference": "urn:uuid:364d404e-70bf-476c-90af-15604f2fada0",
          "display": "Amadeo Andreozzi"
        },
        "effectiveDateTime": "2023-12-17"
      }
    },
    {
      "fullUrl": "urn:uuid:e9f4f165-7c93-4b68-a699-70b2213ca419",
      "resource": {
        "resourceType": "Observation",
        "id": "e9f4f165-7c93-4b68-a699-70b2213ca419",
        "meta": {
          "profile": [
            "http://hl7.org/fhir/StructureDefinition/vitalsigns"
          ]
        },
        "category": [
          {
            "coding": [
              {
                "system": "http://terminology.hl7.org/CodeSystem/observation-category",
                "code": "vital-signs",
                "display": "Vital Signs"
              }
            ]
          }
        ],
        "valueQuantity": {
          "value": 127,
          "code": "mm[Hg]",
          "unit": "mm[Hg]"
        },
        "text": {
          "status": "generated",
          "div": "<div xmlns=\"http://www.w3.org/1999/xhtml\"><table class=\"hl7__ips\"><tr><th>Vital Sign</th><th>Date</th><th>Measurement</th></tr><tr><td>Systolic Blood Pressure</td><td>17-Dec-2023</td><td>127 mm[Hg]</td></tr></table></div>"
        },
        "status": "final",
        "code": {
          "coding": [
            {
              "code": "$8480-6",
              "system": "http://loinc.org",
              "display": "Systolic Blood Pressure"
            }
          ]
        },
        "subject": {
          "reference": "urn:uuid:364d404e-70bf-476c-90af-15604f2fada0",
          "display": "Amadeo Andreozzi"
        },
        "effectiveDateTime": "2023-12-17"
      }
    },
    {
      "fullUrl": "urn:uuid:c7f85e3d-0ea0-401e-8791-9115454deef2",
      "resource": {
        "resourceType": "Observation",
        "id": "c7f85e3d-0ea0-401e-8791-9115454deef2",
        "meta": {
          "profile": [
            "http://hl7.org/fhir/StructureDefinition/vitalsigns"
          ]
        },
        "category": [
          {
            "coding": [
              {
                "system": "http://terminology.hl7.org/CodeSystem/observation-category",
                "code": "vital-signs",
                "display": "Vital Signs"
              }
            ]
          }
        ],
        "valueQuantity": {
          "value": 87,
          "code": "/min",
          "unit": "/min"
        },
        "text": {
          "status": "generated",
          "div": "<div xmlns=\"http://www.w3.org/1999/xhtml\"><table class=\"hl7__ips\"><tr><th>Vital Sign</th><th>Date</th><th>Measurement</th></tr><tr><td>Heart rate</td><td>17-Dec-2023</td><td>87 /min</td></tr></table></div>"
        },
        "status": "final",
        "code": {
          "coding": [
            {
              "code": "$8867-4",
              "system": "http://loinc.org",
              "display": "Heart rate"
            }
          ]
        },
        "subject": {
          "reference": "urn:uuid:364d404e-70bf-476c-90af-15604f2fada0",
          "display": "Amadeo Andreozzi"
        },
        "effectiveDateTime": "2023-12-17"
      }
    },
    {
      "fullUrl": "urn:uuid:12f6f43b-b02b-4725-934e-2859ef72743d",
      "resource": {
        "resourceType": "Observation",
        "id": "12f6f43b-b02b-4725-934e-2859ef72743d",
        "meta": {
          "profile": [
            "http://hl7.org/fhir/StructureDefinition/vitalsigns"
          ]
        },
        "category": [
          {
            "coding": [
              {
                "system": "http://terminology.hl7.org/CodeSystem/observation-category",
                "code": "vital-signs",
                "display": "Vital Signs"
              }
            ]
          }
        ],
        "valueQuantity": {
          "value": 15,
          "code": "/min",
          "unit": "/min"
        },
        "text": {
          "status": "generated",
          "div": "<div xmlns=\"http://www.w3.org/1999/xhtml\"><table class=\"hl7__ips\"><tr><th>Vital Sign</th><th>Date</th><th>Measurement</th></tr><tr><td>Respiratory rate</td><td>17-Dec-2023</td><td>15 /min</td></tr></table></div>"
        },
        "status": "final",
        "code": {
          "coding": [
            {
              "code": "$9279-1",
              "system": "http://loinc.org",
              "display": "Respiratory rate"
            }
          ]
        },
        "subject": {
          "reference": "urn:uuid:364d404e-70bf-476c-90af-15604f2fada0",
          "display": "Amadeo Andreozzi"
        },
        "effectiveDateTime": "2023-12-17"
      }
    },
    {
      "fullUrl": "urn:uuid:ffb05265-cd9c-49cc-88a1-ad7d51ce47eb",
      "resource": {
        "resourceType": "Observation",
        "id": "ffb05265-cd9c-49cc-88a1-ad7d51ce47eb",
        "meta": {
          "profile": [
            "http://hl7.eu/fhir/laboratory/StructureDefinition/Observation-resultslab-eu-lab"
          ]
        },
        "performer": [
          {
            "display": "The Central European Lab"
          }
        ],
        "category": [
          {
            "coding": [
              {
                "system": "http://terminology.hl7.org/CodeSystem/observation-category",
                "code": "laboratory"
              }
            ]
          }
        ],
        "code": {
          "coding": [
            {
              "code": "6690-2",
              "system": "http://loinc.org",
              "display": "Leukocytes [#/volume] in Blood by Automated count"
            }
          ],
          "text": "Leukocytes [#/volume] in Blood by Automated count"
        },
        "valueQuantity": {
          "system": "http://unitsofmeasure.org",
          "value": 6.7,
          "unit": "10*3/uL",
          "code": "10*3/uL"
        },
        "referenceRange": [
          {
            "low": {
              "value": 4.5,
              "code": "10*3/uL",
              "system": "http://unitsofmeasure.org"
            }
          },
          {
            "high": {
              "value": 10.5,
              "code": "10*3/uL",
              "system": "http://unitsofmeasure.org"
            }
          }
        ],
        "text": {
          "status": "generated",
          "div": "<div xmlns=\"http://www.w3.org/1999/xhtml\"><table class=\"hl7__eu__lab__report\"><tr><th>Test</th><th>05-Dec-2021</th><th>Reference&#xA0;Range</th><th>Unit</th></tr><tr><td>Leukocytes [#/volume] in Blood by Automated count</td><td>6.7</td><td>4.5 - 10.5</td><td></td><td>10*3/uL</td></tr></table></div>"
        },
        "status": "final",
        "subject": {
          "reference": "urn:uuid:364d404e-70bf-476c-90af-15604f2fada0",
          "display": "Amadeo Andreozzi"
        },
        "effectiveDateTime": "2021-12-05T18:42:51Z"
      }
    },
    {
      "fullUrl": "urn:uuid:97938f5b-d038-4074-b3d9-d0f38b4c8ff0",
      "resource": {
        "resourceType": "Observation",
        "id": "97938f5b-d038-4074-b3d9-d0f38b4c8ff0",
        "meta": {
          "profile": [
            "http://hl7.eu/fhir/laboratory/StructureDefinition/Observation-resultslab-eu-lab"
          ]
        },
        "performer": [
          {
            "display": "The Central European Lab"
          }
        ],
        "category": [
          {
            "coding": [
              {
                "system": "http://terminology.hl7.org/CodeSystem/observation-category",
                "code": "laboratory"
              }
            ]
          }
        ],
        "code": {
          "coding": [
            {
              "code": "789-8",
              "system": "http://loinc.org",
              "display": "Erythrocytes [#/volume] in Blood by Automated count"
            }
          ],
          "text": "Erythrocytes [#/volume] in Blood by Automated count"
        },
        "valueQuantity": {
          "system": "http://unitsofmeasure.org",
          "value": 5.5,
          "unit": "10*6/uL",
          "code": "10*6/uL"
        },
        "referenceRange": [
          {
            "low": {
              "value": 4.5,
              "code": "10*6/uL",
              "system": "http://unitsofmeasure.org"
            }
          },
          {
            "high": {
              "value": 6.2,
              "code": "10*6/uL",
              "system": "http://unitsofmeasure.org"
            }
          }
        ],
        "text": {
          "status": "generated",
          "div": "<div xmlns=\"http://www.w3.org/1999/xhtml\"><table class=\"hl7__eu__lab__report\"><tr><th>Test</th><th>05-Dec-2021</th><th>Reference&#xA0;Range</th><th>Unit</th></tr><tr><td>Erythrocytes [#/volume] in Blood by Automated count</td><td>5.5</td><td>4.5 - 6.2</td><td></td><td>10*6/uL</td></tr></table></div>"
        },
        "status": "final",
        "subject": {
          "reference": "urn:uuid:364d404e-70bf-476c-90af-15604f2fada0",
          "display": "Amadeo Andreozzi"
        },
        "effectiveDateTime": "2021-12-05T18:42:51Z"
      }
    },
    {
      "fullUrl": "urn:uuid:3ba70b63-49d1-47ed-a88f-c280a9d2f9bc",
      "resource": {
        "resourceType": "Observation",
        "id": "3ba70b63-49d1-47ed-a88f-c280a9d2f9bc",
        "meta": {
          "profile": [
            "http://hl7.eu/fhir/laboratory/StructureDefinition/Observation-resultslab-eu-lab"
          ]
        },
        "performer": [
          {
            "display": "The Central European Lab"
          }
        ],
        "category": [
          {
            "coding": [
              {
                "system": "http://terminology.hl7.org/CodeSystem/observation-category",
                "code": "laboratory"
              }
            ]
          }
        ],
        "code": {
          "coding": [
            {
              "code": "718-7",
              "system": "http://loinc.org",
              "display": "Hemoglobin [Mass/volume] in Blood"
            }
          ],
          "text": "Hemoglobin [Mass/volume] in Blood"
        },
        "valueQuantity": {
          "system": "http://unitsofmeasure.org",
          "value": 16.5,
          "unit": "g/dL",
          "code": "g/dL"
        },
        "referenceRange": [
          {
            "low": {
              "value": 13.5,
              "code": "g/dL",
              "system": "http://unitsofmeasure.org"
            }
          },
          {
            "high": {
              "value": 17.5,
              "code": "g/dL",
              "system": "http://unitsofmeasure.org"
            }
          }
        ],
        "text": {
          "status": "generated",
          "div": "<div xmlns=\"http://www.w3.org/1999/xhtml\"><table class=\"hl7__eu__lab__report\"><tr><th>Test</th><th>05-Dec-2021</th><th>Reference&#xA0;Range</th><th>Unit</th></tr><tr><td>Hemoglobin [Mass/volume] in Blood</td><td>16.5</td><td>13.5 - 17.5</td><td></td><td>g/dL</td></tr></table></div>"
        },
        "status": "final",
        "subject": {
          "reference": "urn:uuid:364d404e-70bf-476c-90af-15604f2fada0",
          "display": "Amadeo Andreozzi"
        },
        "effectiveDateTime": "2021-12-05T18:42:51Z"
      }
    },
    {
      "fullUrl": "urn:uuid:897d4bd0-6a13-4ce5-89e3-eec738f604e4",
      "resource": {
        "resourceType": "Observation",
        "id": "897d4bd0-6a13-4ce5-89e3-eec738f604e4",
        "meta": {
          "profile": [
            "http://hl7.eu/fhir/laboratory/StructureDefinition/Observation-resultslab-eu-lab"
          ]
        },
        "performer": [
          {
            "display": "The Central European Lab"
          }
        ],
        "category": [
          {
            "coding": [
              {
                "system": "http://terminology.hl7.org/CodeSystem/observation-category",
                "code": "laboratory"
              }
            ]
          }
        ],
        "code": {
          "coding": [
            {
              "code": "4544-3",
              "system": "http://loinc.org",
              "display": "Hematocrit [Volume Fraction] of Blood by Automated count"
            }
          ],
          "text": "Hematocrit [Volume Fraction] of Blood by Automated count"
        },
        "valueQuantity": {
          "system": "http://unitsofmeasure.org",
          "value": 36.7,
          "unit": "%",
          "code": "%"
        },
        "referenceRange": [
          {
            "low": {
              "value": 38,
              "code": "%",
              "system": "http://unitsofmeasure.org"
            }
          },
          {
            "high": {
              "value": 50,
              "code": "%",
              "system": "http://unitsofmeasure.org"
            }
          }
        ],
        "interpretation": [
          {
            "coding": [
              {
                "code": "L",
                "system": "http://terminology.hl7.org/CodeSystem/v3-ObservationInterpretation",
                "display": "Low"
              }
            ]
          }
        ],
        "text": {
          "status": "generated",
          "div": "<div xmlns=\"http://www.w3.org/1999/xhtml\"><table class=\"hl7__eu__lab__report\"><tr><th>Test</th><th>05-Dec-2021</th><th>Reference&#xA0;Range</th><th>Unit</th></tr><tr><td>Hematocrit [Volume Fraction] of Blood by Automated count</td><td>36.7</td><td>38 - 50</td><td>L</td><td>%</td></tr></table></div>"
        },
        "status": "final",
        "subject": {
          "reference": "urn:uuid:364d404e-70bf-476c-90af-15604f2fada0",
          "display": "Amadeo Andreozzi"
        },
        "effectiveDateTime": "2021-12-05T18:42:51Z"
      }
    },
    {
      "fullUrl": "urn:uuid:0c02d931-8abc-44d3-9506-148993aef294",
      "resource": {
        "resourceType": "Observation",
        "id": "0c02d931-8abc-44d3-9506-148993aef294",
        "meta": {
          "profile": [
            "http://hl7.eu/fhir/laboratory/StructureDefinition/Observation-resultslab-eu-lab"
          ]
        },
        "performer": [
          {
            "display": "The Central European Lab"
          }
        ],
        "category": [
          {
            "coding": [
              {
                "system": "http://terminology.hl7.org/CodeSystem/observation-category",
                "code": "laboratory"
              }
            ]
          }
        ],
        "code": {
          "coding": [
            {
              "code": "787-2",
              "system": "http://loinc.org",
              "display": "MCV [Entitic volume] by Automated count"
            }
          ],
          "text": "MCV [Entitic volume] by Automated count"
        },
        "valueQuantity": {
          "system": "http://unitsofmeasure.org",
          "value": 81.2,
          "unit": "fL",
          "code": "fL"
        },
        "referenceRange": [
          {
            "low": {
              "value": 76,
              "code": "fL",
              "system": "http://unitsofmeasure.org"
            }
          },
          {
            "high": {
              "value": 98,
              "code": "fL",
              "system": "http://unitsofmeasure.org"
            }
          }
        ],
        "text": {
          "status": "generated",
          "div": "<div xmlns=\"http://www.w3.org/1999/xhtml\"><table class=\"hl7__eu__lab__report\"><tr><th>Test</th><th>05-Dec-2021</th><th>Reference&#xA0;Range</th><th>Unit</th></tr><tr><td>MCV [Entitic volume] by Automated count</td><td>81.2</td><td>76 - 98</td><td></td><td>fL</td></tr></table></div>"
        },
        "status": "final",
        "subject": {
          "reference": "urn:uuid:364d404e-70bf-476c-90af-15604f2fada0",
          "display": "Amadeo Andreozzi"
        },
        "effectiveDateTime": "2021-12-05T18:42:51Z"
      }
    },
    {
      "fullUrl": "urn:uuid:2203b11c-0bf4-4365-8331-6564595d90fd",
      "resource": {
        "resourceType": "Observation",
        "id": "2203b11c-0bf4-4365-8331-6564595d90fd",
        "meta": {
          "profile": [
            "http://hl7.eu/fhir/laboratory/StructureDefinition/Observation-resultslab-eu-lab"
          ]
        },
        "performer": [
          {
            "display": "The Central European Lab"
          }
        ],
        "category": [
          {
            "coding": [
              {
                "system": "http://terminology.hl7.org/CodeSystem/observation-category",
                "code": "laboratory"
              }
            ]
          }
        ],
        "code": {
          "coding": [
            {
              "code": "785-6",
              "system": "http://loinc.org",
              "display": "MCH [Entitic mass] by Automated count"
            }
          ],
          "text": "MCH [Entitic mass] by Automated count"
        },
        "valueQuantity": {
          "system": "http://unitsofmeasure.org",
          "value": 32.6,
          "unit": "pg",
          "code": "pg"
        },
        "referenceRange": [
          {
            "low": {
              "value": 27,
              "code": "pg",
              "system": "http://unitsofmeasure.org"
            }
          },
          {
            "high": {
              "value": 34.5,
              "code": "pg",
              "system": "http://unitsofmeasure.org"
            }
          }
        ],
        "text": {
          "status": "generated",
          "div": "<div xmlns=\"http://www.w3.org/1999/xhtml\"><table class=\"hl7__eu__lab__report\"><tr><th>Test</th><th>05-Dec-2021</th><th>Reference&#xA0;Range</th><th>Unit</th></tr><tr><td>MCH [Entitic mass] by Automated count</td><td>32.6</td><td>27 - 34.5</td><td></td><td>pg</td></tr></table></div>"
        },
        "status": "final",
        "subject": {
          "reference": "urn:uuid:364d404e-70bf-476c-90af-15604f2fada0",
          "display": "Amadeo Andreozzi"
        },
        "effectiveDateTime": "2021-12-05T18:42:51Z"
      }
    },
    {
      "fullUrl": "urn:uuid:c23f8e65-4320-4dae-a92e-d94ea2a51168",
      "resource": {
        "resourceType": "Observation",
        "id": "c23f8e65-4320-4dae-a92e-d94ea2a51168",
        "meta": {
          "profile": [
            "http://hl7.eu/fhir/laboratory/StructureDefinition/Observation-resultslab-eu-lab"
          ]
        },
        "performer": [
          {
            "display": "The Central European Lab"
          }
        ],
        "category": [
          {
            "coding": [
              {
                "system": "http://terminology.hl7.org/CodeSystem/observation-category",
                "code": "laboratory"
              }
            ]
          }
        ],
        "code": {
          "coding": [
            {
              "code": "786-4",
              "system": "http://loinc.org",
              "display": "MCHC [Mass/volume] by Automated count"
            }
          ],
          "text": "MCHC [Mass/volume] by Automated count"
        },
        "valueQuantity": {
          "system": "http://unitsofmeasure.org",
          "value": 35.1,
          "unit": "g/dL",
          "code": "g/dL"
        },
        "referenceRange": [
          {
            "low": {
              "value": 31,
              "code": "g/dL",
              "system": "http://unitsofmeasure.org"
            }
          },
          {
            "high": {
              "value": 37,
              "code": "g/dL",
              "system": "http://unitsofmeasure.org"
            }
          }
        ],
        "text": {
          "status": "generated",
          "div": "<div xmlns=\"http://www.w3.org/1999/xhtml\"><table class=\"hl7__eu__lab__report\"><tr><th>Test</th><th>05-Dec-2021</th><th>Reference&#xA0;Range</th><th>Unit</th></tr><tr><td>MCHC [Mass/volume] by Automated count</td><td>35.1</td><td>31 - 37</td><td></td><td>g/dL</td></tr></table></div>"
        },
        "status": "final",
        "subject": {
          "reference": "urn:uuid:364d404e-70bf-476c-90af-15604f2fada0",
          "display": "Amadeo Andreozzi"
        },
        "effectiveDateTime": "2021-12-05T18:42:51Z"
      }
    },
    {
      "fullUrl": "urn:uuid:b62130f8-cc70-4960-bc04-88418cdd96c7",
      "resource": {
        "resourceType": "Observation",
        "id": "b62130f8-cc70-4960-bc04-88418cdd96c7",
        "meta": {
          "profile": [
            "http://hl7.eu/fhir/laboratory/StructureDefinition/Observation-resultslab-eu-lab"
          ]
        },
        "performer": [
          {
            "display": "The Central European Lab"
          }
        ],
        "category": [
          {
            "coding": [
              {
                "system": "http://terminology.hl7.org/CodeSystem/observation-category",
                "code": "laboratory"
              }
            ]
          }
        ],
        "code": {
          "coding": [
            {
              "code": "21000-5",
              "system": "http://loinc.org",
              "display": "Erythrocyte distribution width [Entitic volume] by Automated count"
            }
          ],
          "text": "Erythrocyte distribution width [Entitic volume] by Automated count"
        },
        "valueQuantity": {
          "system": "http://unitsofmeasure.org",
          "value": 44.2,
          "unit": "fL",
          "code": "fL"
        },
        "referenceRange": [
          {
            "low": {
              "value": 36,
              "code": "fL",
              "system": "http://unitsofmeasure.org"
            }
          },
          {
            "high": {
              "value": 55,
              "code": "fL",
              "system": "http://unitsofmeasure.org"
            }
          }
        ],
        "text": {
          "status": "generated",
          "div": "<div xmlns=\"http://www.w3.org/1999/xhtml\"><table class=\"hl7__eu__lab__report\"><tr><th>Test</th><th>05-Dec-2021</th><th>Reference&#xA0;Range</th><th>Unit</th></tr><tr><td>Erythrocyte distribution width [Entitic volume] by Automated count</td><td>44.2</td><td>36 - 55</td><td></td><td>fL</td></tr></table></div>"
        },
        "status": "final",
        "subject": {
          "reference": "urn:uuid:364d404e-70bf-476c-90af-15604f2fada0",
          "display": "Amadeo Andreozzi"
        },
        "effectiveDateTime": "2021-12-05T18:42:51Z"
      }
    },
    {
      "fullUrl": "urn:uuid:add23148-6f8e-47a4-b946-7d05da5c2b3b",
      "resource": {
        "resourceType": "Observation",
        "id": "add23148-6f8e-47a4-b946-7d05da5c2b3b",
        "meta": {
          "profile": [
            "http://hl7.eu/fhir/laboratory/StructureDefinition/Observation-resultslab-eu-lab"
          ]
        },
        "performer": [
          {
            "display": "The Central European Lab"
          }
        ],
        "category": [
          {
            "coding": [
              {
                "system": "http://terminology.hl7.org/CodeSystem/observation-category",
                "code": "laboratory"
              }
            ]
          }
        ],
        "code": {
          "coding": [
            {
              "code": "777-3",
              "system": "http://loinc.org",
              "display": "Platelets [#/volume] in Blood by Automated count"
            }
          ],
          "text": "Platelets [#/volume] in Blood by Automated count"
        },
        "valueQuantity": {
          "system": "http://unitsofmeasure.org",
          "value": 351.9,
          "unit": "10*3/uL",
          "code": "10*3/uL"
        },
        "referenceRange": [
          {
            "low": {
              "value": 150,
              "code": "10*3/uL",
              "system": "http://unitsofmeasure.org"
            }
          },
          {
            "high": {
              "value": 350,
              "code": "10*3/uL",
              "system": "http://unitsofmeasure.org"
            }
          }
        ],
        "interpretation": [
          {
            "coding": [
              {
                "code": "H",
                "system": "http://terminology.hl7.org/CodeSystem/v3-ObservationInterpretation",
                "display": "High"
              }
            ]
          }
        ],
        "text": {
          "status": "generated",
          "div": "<div xmlns=\"http://www.w3.org/1999/xhtml\"><table class=\"hl7__eu__lab__report\"><tr><th>Test</th><th>05-Dec-2021</th><th>Reference&#xA0;Range</th><th>Unit</th></tr><tr><td>Platelets [#/volume] in Blood by Automated count</td><td>351.9</td><td>150 - 350</td><td>H</td><td>10*3/uL</td></tr></table></div>"
        },
        "status": "final",
        "subject": {
          "reference": "urn:uuid:364d404e-70bf-476c-90af-15604f2fada0",
          "display": "Amadeo Andreozzi"
        },
        "effectiveDateTime": "2021-12-05T18:42:51Z"
      }
    },
    {
      "fullUrl": "urn:uuid:823b157c-4dc6-4185-b13e-6e61fcf8f2c2",
      "resource": {
        "resourceType": "Observation",
        "id": "823b157c-4dc6-4185-b13e-6e61fcf8f2c2",
        "meta": {
          "profile": [
            "http://hl7.eu/fhir/laboratory/StructureDefinition/Observation-resultslab-eu-lab"
          ]
        },
        "performer": [
          {
            "display": "The Central European Lab"
          }
        ],
        "category": [
          {
            "coding": [
              {
                "system": "http://terminology.hl7.org/CodeSystem/observation-category",
                "code": "laboratory"
              }
            ]
          }
        ],
        "code": {
          "coding": [
            {
              "code": "32207-3",
              "system": "http://loinc.org",
              "display": "Platelet distribution width [Entitic volume] in Blood by Automated count"
            }
          ],
          "text": "Platelet distribution width [Entitic volume] in Blood by Automated count"
        },
        "valueQuantity": {
          "system": "http://unitsofmeasure.org",
          "value": 286.6,
          "unit": "fL",
          "code": "fL"
        },
        "referenceRange": [
          {
            "low": {
              "value": 13.4,
              "code": "fL",
              "system": "http://unitsofmeasure.org"
            }
          },
          {
            "high": {
              "value": 17.4,
              "code": "fL",
              "system": "http://unitsofmeasure.org"
            }
          }
        ],
        "interpretation": [
          {
            "coding": [
              {
                "code": "H",
                "system": "http://terminology.hl7.org/CodeSystem/v3-ObservationInterpretation",
                "display": "High"
              }
            ]
          }
        ],
        "text": {
          "status": "generated",
          "div": "<div xmlns=\"http://www.w3.org/1999/xhtml\"><table class=\"hl7__eu__lab__report\"><tr><th>Test</th><th>05-Dec-2021</th><th>Reference&#xA0;Range</th><th>Unit</th></tr><tr><td>Platelet distribution width [Entitic volume] in Blood by Automated count</td><td>286.6</td><td>13.4 - 17.4</td><td>H</td><td>fL</td></tr></table></div>"
        },
        "status": "final",
        "subject": {
          "reference": "urn:uuid:364d404e-70bf-476c-90af-15604f2fada0",
          "display": "Amadeo Andreozzi"
        },
        "effectiveDateTime": "2021-12-05T18:42:51Z"
      }
    },
    {
      "fullUrl": "urn:uuid:acbf6c73-7da2-4be6-b53f-2a28e3f40914",
      "resource": {
        "resourceType": "Observation",
        "id": "acbf6c73-7da2-4be6-b53f-2a28e3f40914",
        "meta": {
          "profile": [
            "http://hl7.eu/fhir/laboratory/StructureDefinition/Observation-resultslab-eu-lab"
          ]
        },
        "performer": [
          {
            "display": "The Central European Lab"
          }
        ],
        "category": [
          {
            "coding": [
              {
                "system": "http://terminology.hl7.org/CodeSystem/observation-category",
                "code": "laboratory"
              }
            ]
          }
        ],
        "code": {
          "coding": [
            {
              "code": "32623-1",
              "system": "http://loinc.org",
              "display": "Platelet mean volume [Entitic volume] in Blood by Automated count"
            }
          ],
          "text": "Platelet mean volume [Entitic volume] in Blood by Automated count"
        },
        "valueQuantity": {
          "system": "http://unitsofmeasure.org",
          "value": 11.4,
          "unit": "fL",
          "code": "fL"
        },
        "referenceRange": [
          {
            "low": {
              "value": 9.4,
              "code": "fL",
              "system": "http://unitsofmeasure.org"
            }
          },
          {
            "high": {
              "value": 12,
              "code": "fL",
              "system": "http://unitsofmeasure.org"
            }
          }
        ],
        "text": {
          "status": "generated",
          "div": "<div xmlns=\"http://www.w3.org/1999/xhtml\"><table class=\"hl7__eu__lab__report\"><tr><th>Test</th><th>05-Dec-2021</th><th>Reference&#xA0;Range</th><th>Unit</th></tr><tr><td>Platelet mean volume [Entitic volume] in Blood by Automated count</td><td>11.4</td><td>9.4 - 12</td><td></td><td>fL</td></tr></table></div>"
        },
        "status": "final",
        "subject": {
          "reference": "urn:uuid:364d404e-70bf-476c-90af-15604f2fada0",
          "display": "Amadeo Andreozzi"
        },
        "effectiveDateTime": "2021-12-05T18:42:51Z"
      }
    },
    {
      "fullUrl": "urn:uuid:8a5921ab-22cf-49da-97cf-c8b414f2fcf6",
      "resource": {
        "resourceType": "Device",
        "id": "8a5921ab-22cf-49da-97cf-c8b414f2fcf6",
        "deviceName": [
          {
            "name": "SYNDERAI Synthetic Generator",
            "type": "manufacturer-name"
          }
        ],
        "version": [
          {
            "value": "5.0"
          }
        ],
        "text": {
          "status": "generated",
          "div": "<div xmlns=\"http://www.w3.org/1999/xhtml\">SYNDERAI Synthetic Generator v5.0</div>"
        },
        "status": "active\"",
        "distinctIdentifier": "synderai-generator-50",
        "manufacturer": "SYNDERAI Project"
      }
    },
    {
      "fullUrl": "urn:uuid:a0b920d1-a29a-4f89-938f-b5df7aac534f",
      "resource": {
        "resourceType": "Provenance",
        "id": "a0b920d1-a29a-4f89-938f-b5df7aac534f",
        "target": [
          {
            "reference": "Patient/364d404e-70bf-476c-90af-15604f2fada0"
          },
          {
            "reference": "Bundle/3f9971ea-8cb0-4d74-b56a-e13099460313"
          },
          {
            "reference": "Composition/9adac905-5e2f-45c6-8b99-ce34c812b86d"
          },
          {
            "reference": "PractitionerRole/4c6954f2-1ecd-4def-9ab9-63ad8ee7b89c"
          },
          {
            "reference": "Organization/b7b254e2-6105-484f-8990-1d7e4cda735a"
          },
          {
            "reference": "Practitioner/9565a8fd-ee00-4ac9-9a9d-b5ef936610cd"
          }
        ],
        "activity": {
          "text": "Synthetic Example Data Generation"
        },
        "policy": [
          "https://synderai.net/synderai-synthetic-data-policy"
        ],
        "agent": [
          {
            "type": {
              "text": "author"
            },
            "who": {
              "reference": "Device/8a5921ab-22cf-49da-97cf-c8b414f2fcf6"
            }
          }
        ],
        "reason": [
          {
            "text": "Interoperability Testing and Training (non-clinical use)"
          }
        ],
        "text": {
          "status": "generated",
          "div": "<div xmlns=\"http://www.w3.org/1999/xhtml\">Provenance for SYNDERAI Synthetic Example Data Resource</div>"
        },
        "recorded": "2021-12-05T18:42:51Z"
      }
    }
  ],
  "type": "document",
  "timestamp": "2021-12-05T18:42:51Z"
}
