{
  "resourceType": "Bundle",
  "id": "c392038f-4f19-4668-940d-1ab274b6a0e9",
  "meta": {
    "profile": [
      "http://hl7.eu/fhir/eps/StructureDefinition/bundle-eu-eps"
    ]
  },
  "identifier": {
    "assigner": {
      "display": "HL7 Europe"
    },
    "system": "urn:oid:2.16.840.1.113883.2.51.999",
    "value": "b432da26-3f4e-4984-add5-dd8b50edfa3e"
  },
  "entry": [
    {
      "fullUrl": "urn:uuid:8cee9fbc-4c27-4c6a-b8c5-cdf78dac8481",
      "resource": {
        "resourceType": "Composition",
        "id": "8cee9fbc-4c27-4c6a-b8c5-cdf78dac8481",
        "meta": {
          "security": [
            {
              "system": "http://terminology.hl7.org/CodeSystem/v3-ActReason",
              "code": "HTEST"
            },
            {
              "system": "http://terminology.hl7.org/CodeSystem/v3-ActReason",
              "code": "TRAIN"
            }
          ],
          "tag": [
            {
              "system": "https://synderai.net/fhir/CodeSystem/tags",
              "code": "synthetic",
              "display": "SYNDERAI Synthetic data"
            }
          ],
          "profile": [
            "http://hl7.eu/fhir/eps/StructureDefinition/composition-eu-eps"
          ]
        },
        "identifier": {
          "assigner": {
            "display": "HL7 Europe"
          },
          "system": "urn:oid:2.16.840.1.113883.2.51.999",
          "value": "293fbb94-b698-422a-b303-88bda4f8e6dd"
        },
        "type": {
          "coding": [
            {
              "system": "http://loinc.org",
              "code": "60591-5",
              "display": "Patient summary Document"
            }
          ],
          "text": "Patient summary Document"
        },
        "author": [
          {
            "reference": "urn:uuid:cf9ba246-d6a9-4779-8fb9-f663c21c3121"
          }
        ],
        "section": [
          {
            "text": {
              "status": "generated",
              "div": "<div xmlns=\"http://www.w3.org/1999/xhtml\"><table class=\"hl7__ips\"><tr><th>Condition</th><th>Onset Date</th><th>Status</th></tr><tr><td>Chronic sinusitis</td><td><span class=\"nb\">12-Jan-2024</span></td><td>active</td></tr><tr><td>Prediabetes</td><td><span class=\"nb\">07-Feb-2019</span></td><td>active</td></tr><tr><td>Osteoarthritis of knee</td><td><span class=\"nb\">13-Dec-2015</span></td><td>active</td></tr><tr><td>Dependent drug abuse</td><td><span class=\"nb\">23-Sep-1994</span></td><td>active</td></tr><tr><td>Impacted molars</td><td><span class=\"nb\">30-Jun-1991</span></td><td>active</td></tr><tr><td>Chronic intractable migraine without aura</td><td><span class=\"nb\">19-Mar-1990</span></td><td>active</td></tr></table></div>"
            },
            "entry": [
              {
                "reference": "urn:uuid:3af947cb-fab7-4959-849c-5c06f34d628d"
              },
              {
                "reference": "urn:uuid:45031db1-1e85-4c07-bc80-4f518b383adb"
              },
              {
                "reference": "urn:uuid:b608fe15-437e-469d-b848-84916d798a5a"
              },
              {
                "reference": "urn:uuid:a0c2dd0d-9258-44a4-a549-82f0c639dfb7"
              },
              {
                "reference": "urn:uuid:a6d2d80c-5918-488f-9241-3ed807245849"
              },
              {
                "reference": "urn:uuid:1bc993c2-a2b7-40e5-875f-f2169a771971"
              }
            ],
            "code": {
              "coding": [
                {
                  "system": "http://loinc.org",
                  "code": "11450-4",
                  "display": "Problem list - Reported"
                }
              ]
            },
            "title": "Problem list"
          },
          {
            "text": {
              "status": "generated",
              "div": "<div xmlns=\"http://www.w3.org/1999/xhtml\"><table class=\"hl7__ips\"><tr><th>Medication</th><th>Since</th><th>Form</th><th>Dosage</th><th>Reason</th></tr><tr><td>Naproxen sodium 220 mg oral capsule</td><td><span class=\"nb\">2015-12-13</span></td><td>-</td><td>1 tablet (220 mg) by mouth every 12 hours as needed</td><td>Osteoarthritis of knee</td></tr></table></div>"
            },
            "entry": [
              {
                "reference": "urn:uuid:63f95d9d-0ac0-4562-9ead-c18acf537543"
              }
            ],
            "code": {
              "coding": [
                {
                  "system": "http://loinc.org",
                  "code": "10160-0",
                  "display": "History of Medication use Narrative"
                }
              ]
            },
            "title": "Medication list"
          },
          {
            "text": {
              "status": "generated",
              "div": "<div xmlns=\"http://www.w3.org/1999/xhtml\"><table class=\"hl7__ips\"><tr><th>Vaccine</th><th>Date</th></tr><tr><td>Clostridium tetani toxoid antigen adsorbed only vaccine product</td><td><span class=\"nb\">13-Mar-2025</span></td></tr><tr><td>Influenza virus antigen only vaccine product</td><td><span class=\"nb\">13-Mar-2025</span></td></tr><tr><td>SARS-CoV-2 mRNA vaccine</td><td><span class=\"nb\">20-May-2021</span></td></tr></table></div>"
            },
            "entry": [
              {
                "reference": "urn:uuid:0fdff0d2-a1cb-43b3-975c-6d837654fcbb"
              },
              {
                "reference": "urn:uuid:93856d29-9771-4921-a91b-861977f4c538"
              },
              {
                "reference": "urn:uuid:f0d43081-c018-4db4-b118-5d5d45219fcd"
              }
            ],
            "code": {
              "coding": [
                {
                  "system": "http://loinc.org",
                  "code": "11369-6",
                  "display": "History of Immunization note"
                }
              ]
            },
            "title": "Immunizations list"
          },
          {
            "text": {
              "status": "generated",
              "div": "<div xmlns=\"http://www.w3.org/1999/xhtml\"><table class=\"hl7__ips\"><tr><th>Procedure</th><th>Date</th><th>Reason</th></tr><tr><td>Depression screening</td><td><span class=\"nb\">26-Oct-2023</span></td><td>-</td></tr><tr><td>Medication reconciliation</td><td><span class=\"nb\">26-Oct-2023</span></td><td>-</td></tr><tr><td>Assessment of health and social care needs</td><td><span class=\"nb\">26-Oct-2023</span></td><td>-</td></tr><tr><td>Assessment of anxiety</td><td><span class=\"nb\">26-Oct-2023</span></td><td>-</td></tr><tr><td>Screening for domestic abuse</td><td><span class=\"nb\">26-Oct-2023</span></td><td>-</td></tr><tr><td>Depression screening using Patient Health Questionnaire Two-Item score (procedure)</td><td><span class=\"nb\">26-Oct-2023</span></td><td>-</td></tr></table></div>"
            },
            "entry": [
              {
                "reference": "urn:uuid:c8b26361-3830-4b19-80fd-5691a0ed9e09"
              },
              {
                "reference": "urn:uuid:e1607a08-b050-4c80-9b68-df80f7ec15d2"
              },
              {
                "reference": "urn:uuid:dd334405-4f18-4939-9f07-6ca8df48b033"
              },
              {
                "reference": "urn:uuid:d4d42c5b-e74c-407f-9a57-8ed8736304c9"
              },
              {
                "reference": "urn:uuid:44075cf9-27ab-43ff-8b34-8da99bcf584d"
              },
              {
                "reference": "urn:uuid:c881bc8a-2b53-4347-9635-26ef818e37fa"
              }
            ],
            "code": {
              "coding": [
                {
                  "system": "http://loinc.org",
                  "code": "47519-4",
                  "display": "History of Procedures Document"
                }
              ]
            },
            "title": "Procedure History list"
          },
          {
            "text": {
              "status": "generated",
              "div": "<div xmlns=\"http://www.w3.org/1999/xhtml\"><table class=\"hl7__ips\"><tr><th>Allergy/Intolerance</th><th>Onset Date</th><th>Status</th><th>Type</th><th>Reaction</th></tr><tr><td></td><td>?</td><td>active</td><td>?</td><td></td></tr></table></div>"
            },
            "entry": [
              {
                "reference": "urn:uuid:fc0fbad6-5165-414d-8e3c-d80aaf125c9c"
              }
            ],
            "code": {
              "coding": [
                {
                  "system": "http://loinc.org",
                  "code": "48765-2",
                  "display": "Allergies and adverse reactions Document"
                }
              ]
            },
            "title": "Allergies and Intolerances"
          },
          {
            "text": {
              "status": "generated",
              "div": "<div xmlns=\"http://www.w3.org/1999/xhtml\"><table class=\"hl7__ips\"><tr><th>Active Planned Care / Goals</th><th>Start Date</th><th>Reason</th></tr><tr><td>Diabetes self management plan</td><td><span class=\"nb\">07-Feb-2019</span></td><td>Prediabetes</td></tr><tr><td><ul><li>Patient will implement and maintain a diabetes self-management plan to reduce risk of progression from prediabetes.</li></ul></td><td></td><td></td></tr><tr><td>Musculoskeletal care</td><td><span class=\"nb\">13-Dec-2015</span></td><td>Osteoarthritis of knee</td></tr><tr><td><ul><li>Decrease knee pain severity to improve mobility and quality of life.</li><li>Increase ability to perform activities of daily living without knee limitation.</li><li>Increase distance able to walk without significant knee pain.</li></ul></td><td></td><td></td></tr><tr><td>Care plan</td><td><span class=\"nb\">27-Mar-1999</span></td><td>-</td></tr><tr><th>Immunization Recommendation</th><th>Due Date</th><th>Reason</th></tr><tr><td>Vaccine product containing only Influenza virus antigen (medicinal product)</td><td><span class=\"nb\">01-Oct-2025</span></td><td>Annual seasonal influenza vaccination</td></tr></table></div>"
            },
            "entry": [
              {
                "reference": "urn:uuid:d423be42-4caa-406c-84cd-fb24dcd4750d"
              },
              {
                "reference": "urn:uuid:25addba3-8373-4b6a-88f3-cf193795b12f"
              },
              {
                "reference": "urn:uuid:d2150322-4274-4d58-af68-c6fd9d0e786a"
              },
              {
                "reference": "urn:uuid:967369ea-edde-42f7-8b5c-d7a1aec877ef"
              }
            ],
            "code": {
              "coding": [
                {
                  "system": "http://loinc.org",
                  "code": "18776-5",
                  "display": "Plan of care note"
                }
              ]
            },
            "title": "Care Plan"
          },
          {
            "text": {
              "status": "generated",
              "div": "<div xmlns=\"http://www.w3.org/1999/xhtml\"><table class=\"hl7__ips\"><tr><th>Vital Signs</th><th>2025-03-13</th><th>2024-03-07</th></tr><tr><td>Body Height</td><td>156.3 cm</td><td>156.3 cm</td></tr><tr><td>Pain severity - 0-10 verbal numeric rating [Score] - Reported</td><td>3 {score}</td><td>1 {score}</td></tr><tr><td>Body Weight</td><td>72.6 kg</td><td>70.9 kg</td></tr><tr><td>Body mass index (BMI) [Ratio]</td><td>29.7 kg/m2</td><td>29 kg/m2</td></tr><tr><td>Diastolic Blood Pressure</td><td>69 mm[Hg]</td><td>67 mm[Hg]</td></tr><tr><td>Systolic Blood Pressure</td><td>119 mm[Hg]</td><td>116 mm[Hg]</td></tr><tr><td>Heart rate</td><td>74 /min</td><td>70 /min</td></tr><tr><td>Respiratory rate</td><td>15 /min</td><td>13 /min</td></tr></table></div>"
            },
            "entry": [
              {
                "reference": "urn:uuid:b9e8710d-ddff-4ab6-9c4e-b56cfd4d5a53"
              },
              {
                "reference": "urn:uuid:48b8981e-2a11-4b97-9236-5b36d93fb739"
              },
              {
                "reference": "urn:uuid:2f77f846-74b6-40b8-b925-fc3dd8521f24"
              },
              {
                "reference": "urn:uuid:5def11d2-8baa-4c01-93b2-c0461d43382f"
              },
              {
                "reference": "urn:uuid:64c6fb57-bd0e-43a9-a743-b9e4a5fd8ad4"
              },
              {
                "reference": "urn:uuid:59f8d078-f440-4b2f-abe5-c1faa6eb75a1"
              },
              {
                "reference": "urn:uuid:e39599ff-0930-4bc1-8704-4cbfe876902e"
              },
              {
                "reference": "urn:uuid:5816f69e-1fad-4b8b-803a-9b8609c3febd"
              },
              {
                "reference": "urn:uuid:b29d8666-0c4e-4a84-94c4-4b6c2cc21e11"
              },
              {
                "reference": "urn:uuid:63b411e5-da39-4c7d-9895-b2f9933d255e"
              },
              {
                "reference": "urn:uuid:3b12dfa7-c958-4ebf-9421-2fc9ea1150c6"
              },
              {
                "reference": "urn:uuid:eb92e083-4e28-4da3-8bb6-b8eea8c3695f"
              },
              {
                "reference": "urn:uuid:e8b1ea97-ad7e-4b87-924a-2463fcfac13b"
              },
              {
                "reference": "urn:uuid:0a3dfbce-ad71-45c7-83fd-10f7f9949554"
              },
              {
                "reference": "urn:uuid:164dda98-308d-4436-9b68-1e780096bd8a"
              },
              {
                "reference": "urn:uuid:62b42db0-cfb4-40ec-9d9a-4ab940896d38"
              }
            ],
            "code": {
              "coding": [
                {
                  "system": "http://loinc.org",
                  "code": "8716-3",
                  "display": "Vital signs note"
                }
              ]
            },
            "title": "Vital Signs"
          },
          {
            "text": {
              "status": "generated",
              "div": "<div xmlns=\"http://www.w3.org/1999/xhtml\"><table class=\"hl7__ips\"><table class=\"hl7__ips\"><thead><tr><th>Recent Lab Observations</th><th>13-MAR-2025</th><th>Reference&#xA0;Range</th><th>Unit</th></tr></thead><tbody><tr><td>Hemoglobin A1c/Hemoglobin.total in Blood</td><td>5.9</td><td>4 - 6</td><td>%</td></tr><tr><td>Glucose [Mass/volume] in Blood</td><td>85.2</td><td>70 - 140</td><td>mg/dL</td></tr><tr><td>Urea nitrogen [Mass/volume] in Blood</td><td>7.2</td><td>7 - 25</td><td>mg/dL</td></tr><tr><td>Creatinine [Mass/volume] in Blood</td><td>0.7</td><td>0.6 - 1.1</td><td>mg/dL</td></tr><tr><td>Calcium [Mass/volume] in Blood</td><td>8.9</td><td>8.5 - 10.4</td><td>mg/dL</td></tr><tr><td>Sodium [Moles/volume] in Blood</td><td>141.7</td><td>135 - 145</td><td>mmol/L</td></tr><tr><td>Potassium [Moles/volume] in Blood</td><td>3.9</td><td>3.5 - 5.1</td><td>mmol/L</td></tr><tr><td>Chloride [Moles/volume] in Blood</td><td>103.1</td><td>98 - 108</td><td>mmol/L</td></tr><tr><td>Carbon dioxide, total [Moles/volume] in Blood</td><td>28.9</td><td>22 - 29</td><td>mmol/L</td></tr></tbody></table></table></div>"
            },
            "entry": [
              {
                "reference": "urn:uuid:572727be-cd7d-4fcc-ad5e-75e36d9eb4fa"
              },
              {
                "reference": "urn:uuid:c4af78a7-ed86-4c16-a19d-cdab80421501"
              },
              {
                "reference": "urn:uuid:d573e7aa-cac6-4f6d-be4c-2bd20b6d57b6"
              },
              {
                "reference": "urn:uuid:449c61dd-2355-4f29-ab41-eecabd7a18bc"
              },
              {
                "reference": "urn:uuid:f9b7f94a-0ea2-44bd-9ff9-a226d6b56c15"
              },
              {
                "reference": "urn:uuid:32465bef-0d30-46f7-9260-f1b8aae8ac9e"
              },
              {
                "reference": "urn:uuid:6b570b2a-721e-4c67-97e5-ad505211ceb9"
              },
              {
                "reference": "urn:uuid:667433e0-b6c5-407f-8172-d19ef28d0bd8"
              },
              {
                "reference": "urn:uuid:e8260767-1ff7-4364-bd33-90ed91504410"
              }
            ],
            "code": {
              "coding": [
                {
                  "system": "http://loinc.org",
                  "code": "30954-2",
                  "display": "Relevant diagnostic tests/laboratory data note"
                }
              ]
            },
            "title": "Relevant diagnostic tests/laboratory data"
          },
          {
            "text": {
              "status": "generated",
              "div": "<div xmlns=\"http://www.w3.org/1999/xhtml\"><table class=\"hl7__ips\"><tr><th>Device</th><th>Date (since)</th></tr><tr><td>Home nebulizer (physical object)</td><td><span class=\"nb\">12-Jan-2024</span></td></tr><tr><td>Blood glucose meter (physical object)</td><td><span class=\"nb\">07-Feb-2019</span></td></tr><tr><td>Walker (physical object)</td><td><span class=\"nb\">13-Dec-2015</span></td></tr></table></div>"
            },
            "entry": [
              {
                "reference": "urn:uuid:7e269dbf-3ec7-4d71-9175-d881ec7ea6cd"
              },
              {
                "reference": "urn:uuid:ae94fa0d-1473-42fb-9d92-6d1b59c7ed07"
              },
              {
                "reference": "urn:uuid:1fe560db-2b45-4593-9711-b31885d54e20"
              }
            ],
            "code": {
              "coding": [
                {
                  "system": "http://loinc.org",
                  "code": "46264-8",
                  "display": "History of medical device use"
                }
              ]
            },
            "title": "Device Use"
          }
        ],
        "title": "European Patient Summary",
        "status": "final",
        "subject": {
          "reference": "urn:uuid:958fd844-fd80-4c2e-8fe4-a7b66260e191",
          "display": "Vincenza Porzio"
        },
        "custodian": {
          "reference": "urn:uuid:be62dbf4-15b0-4513-bde8-0ad4f4885052"
        },
        "date": "2025-03-13",
        "confidentiality": "N"
      }
    },
    {
      "fullUrl": "urn:uuid:958fd844-fd80-4c2e-8fe4-a7b66260e191",
      "resource": {
        "resourceType": "Patient",
        "id": "958fd844-fd80-4c2e-8fe4-a7b66260e191",
        "meta": {
          "security": [
            {
              "system": "http://terminology.hl7.org/CodeSystem/v3-ActReason",
              "code": "HTEST"
            },
            {
              "system": "http://terminology.hl7.org/CodeSystem/v3-ActReason",
              "code": "TRAIN"
            }
          ],
          "tag": [
            {
              "system": "https://synderai.net/fhir/CodeSystem/tags",
              "code": "synthetic",
              "display": "SYNDERAI Synthetic data"
            }
          ],
          "profile": [
            "http://hl7.eu/fhir/eps/StructureDefinition/patient-eu-eps"
          ]
        },
        "identifier": [
          {
            "type": {
              "coding": [
                {
                  "code": "PT",
                  "system": "http://terminology.hl7.org/CodeSystem/v2-0203"
                }
              ]
            },
            "system": "http://ec.europa.eu/identifier/eci",
            "value": "9988-341158-1"
          },
          {
            "type": {
              "coding": [
                {
                  "code": "MR",
                  "system": "http://terminology.hl7.org/CodeSystem/v2-0203"
                }
              ]
            },
            "system": "http://local.setting.eu/identifier",
            "value": "559a1acd-87c3-5b56-0345-4eaff6c5aa0a"
          }
        ],
        "name": [
          {
            "family": "Porzio"
          },
          {
            "given": [
              "Vincenza"
            ]
          },
          {
            "text": "Vincenza Porzio"
          }
        ],
        "address": [
          {
            "line": [
              "Piazza Allegra, 720"
            ],
            "use": "home",
            "type": "physical",
            "postalCode": "36040",
            "city": "Grumolo Pedemonte",
            "country": "Italy"
          }
        ],
        "telecom": [
          {
            "system": "phone",
            "value": "041007473"
          }
        ],
        "extension": [
          {
            "url": "http://hl7.org/fhir/StructureDefinition/patient-nationality",
            "valueCodeableConcept": {
              "coding": [
                {
                  "code": "IT",
                  "system": "http://hl7.org/fhir/ValueSet/country"
                }
              ]
            }
          }
        ],
        "text": {
          "status": "generated",
          "div": "<div xmlns=\"http://www.w3.org/1999/xhtml\"><table class=\"hl7__ips\"><tr><td>Vincenza Porzio</td><td>female</td><td>13-Sep-1965</td></tr></table></div>"
        },
        "gender": "female",
        "birthDate": "1965-09-13"
      }
    },
    {
      "fullUrl": "urn:uuid:cf9ba246-d6a9-4779-8fb9-f663c21c3121",
      "resource": {
        "resourceType": "PractitionerRole",
        "id": "cf9ba246-d6a9-4779-8fb9-f663c21c3121",
        "meta": {
          "profile": [
            "http://hl7.eu/fhir/base/StructureDefinition/practitionerRole-eu"
          ]
        },
        "text": {
          "status": "generated",
          "div": "<div xmlns=\"http://www.w3.org/1999/xhtml\"><table class=\"hl7__ips\">Provider Role Id cf9ba246-d6a9-4779-8fb9-f663c21c3121</table></div>"
        },
        "practitioner": {
          "reference": "urn:uuid:94c26147-9d11-4b42-99f2-dcbc53a445b4"
        },
        "organization": {
          "reference": "urn:uuid:be62dbf4-15b0-4513-bde8-0ad4f4885052"
        }
      }
    },
    {
      "fullUrl": "urn:uuid:94c26147-9d11-4b42-99f2-dcbc53a445b4",
      "resource": {
        "resourceType": "Practitioner",
        "id": "94c26147-9d11-4b42-99f2-dcbc53a445b4",
        "meta": {
          "profile": [
            "http://hl7.eu/fhir/base/StructureDefinition/practitioner-eu"
          ]
        },
        "name": [
          {
            "prefix": [
              "Dr."
            ],
            "given": [
              "Hel"
            ],
            "family": "Ping"
          }
        ],
        "text": {
          "status": "generated",
          "div": "<div xmlns=\"http://www.w3.org/1999/xhtml\"><table class=\"hl7__ips\">Dr. Hel Ping</table></div>"
        }
      }
    },
    {
      "fullUrl": "urn:uuid:be62dbf4-15b0-4513-bde8-0ad4f4885052",
      "resource": {
        "resourceType": "Organization",
        "id": "be62dbf4-15b0-4513-bde8-0ad4f4885052",
        "meta": {
          "profile": [
            "http://hl7.eu/fhir/base/StructureDefinition/organization-eu"
          ]
        },
        "identifier": [
          {
            "assigner": {
              "display": "HL7 Europe"
            },
            "system": "urn:oid:2.16.840.1.113883.2.51.999",
            "value": "987b603e-9c69-4ffb-ba62-00b73df1aea9"
          }
        ],
        "address": [
          {
            "country": "Italy"
          }
        ],
        "text": {
          "status": "generated",
          "div": "<div xmlns=\"http://www.w3.org/1999/xhtml\"><table class=\"hl7__ips\">Villa Margherita</table></div>"
        },
        "name": "Villa Margherita"
      }
    },
    {
      "fullUrl": "urn:uuid:3af947cb-fab7-4959-849c-5c06f34d628d",
      "resource": {
        "resourceType": "Condition",
        "id": "3af947cb-fab7-4959-849c-5c06f34d628d",
        "meta": {
          "profile": [
            "http://hl7.org/fhir/uv/ips/StructureDefinition/Condition-uv-ips"
          ]
        },
        "category": [
          {
            "coding": [
              {
                "code": "problem-list-item",
                "system": "http://terminology.hl7.org/CodeSystem/condition-category",
                "display": "Problem List Item"
              }
            ]
          }
        ],
        "code": {
          "coding": [
            {
              "code": "40055000",
              "system": "http://snomed.info/sct",
              "display": "Chronic sinusitis (disorder)"
            }
          ],
          "text": "Chronic sinusitis"
        },
        "text": {
          "status": "generated",
          "div": "<div xmlns=\"http://www.w3.org/1999/xhtml\"><table class=\"hl7__ips\"><tr><td>Chronic sinusitis</td><td><span class=\"nb\">12-Jan-2024</span></td><td>active</td></tr></table></div>"
        },
        "onsetDateTime": "2024-01-12",
        "subject": {
          "reference": "urn:uuid:",
          "display": "Vincenza Porzio"
        },
        "asserter": {
          "reference": "urn:uuid:",
          "display": "Villa Margherita"
        }
      }
    },
    {
      "fullUrl": "urn:uuid:45031db1-1e85-4c07-bc80-4f518b383adb",
      "resource": {
        "resourceType": "Condition",
        "id": "45031db1-1e85-4c07-bc80-4f518b383adb",
        "meta": {
          "profile": [
            "http://hl7.org/fhir/uv/ips/StructureDefinition/Condition-uv-ips"
          ]
        },
        "category": [
          {
            "coding": [
              {
                "code": "problem-list-item",
                "system": "http://terminology.hl7.org/CodeSystem/condition-category",
                "display": "Problem List Item"
              }
            ]
          }
        ],
        "code": {
          "coding": [
            {
              "code": "15777000",
              "system": "http://snomed.info/sct",
              "display": "Prediabetes (disorder)"
            }
          ],
          "text": "Prediabetes"
        },
        "text": {
          "status": "generated",
          "div": "<div xmlns=\"http://www.w3.org/1999/xhtml\"><table class=\"hl7__ips\"><tr><td>Prediabetes</td><td><span class=\"nb\">07-Feb-2019</span></td><td>active</td></tr></table></div>"
        },
        "onsetDateTime": "2019-02-07",
        "subject": {
          "reference": "urn:uuid:",
          "display": "Vincenza Porzio"
        },
        "asserter": {
          "reference": "urn:uuid:",
          "display": "Villa Margherita"
        }
      }
    },
    {
      "fullUrl": "urn:uuid:b608fe15-437e-469d-b848-84916d798a5a",
      "resource": {
        "resourceType": "Condition",
        "id": "b608fe15-437e-469d-b848-84916d798a5a",
        "meta": {
          "profile": [
            "http://hl7.org/fhir/uv/ips/StructureDefinition/Condition-uv-ips"
          ]
        },
        "category": [
          {
            "coding": [
              {
                "code": "problem-list-item",
                "system": "http://terminology.hl7.org/CodeSystem/condition-category",
                "display": "Problem List Item"
              }
            ]
          }
        ],
        "code": {
          "coding": [
            {
              "code": "239873007",
              "system": "http://snomed.info/sct",
              "display": "Osteoarthritis of knee (disorder)"
            }
          ],
          "text": "Osteoarthritis of knee"
        },
        "text": {
          "status": "generated",
          "div": "<div xmlns=\"http://www.w3.org/1999/xhtml\"><table class=\"hl7__ips\"><tr><td>Osteoarthritis of knee</td><td><span class=\"nb\">13-Dec-2015</span></td><td>active</td></tr></table></div>"
        },
        "onsetDateTime": "2015-12-13",
        "subject": {
          "reference": "urn:uuid:",
          "display": "Vincenza Porzio"
        },
        "asserter": {
          "reference": "urn:uuid:",
          "display": "Villa Margherita"
        }
      }
    },
    {
      "fullUrl": "urn:uuid:a0c2dd0d-9258-44a4-a549-82f0c639dfb7",
      "resource": {
        "resourceType": "Condition",
        "id": "a0c2dd0d-9258-44a4-a549-82f0c639dfb7",
        "meta": {
          "profile": [
            "http://hl7.org/fhir/uv/ips/StructureDefinition/Condition-uv-ips"
          ]
        },
        "category": [
          {
            "coding": [
              {
                "code": "problem-list-item",
                "system": "http://terminology.hl7.org/CodeSystem/condition-category",
                "display": "Problem List Item"
              }
            ]
          }
        ],
        "code": {
          "coding": [
            {
              "code": "6525002",
              "system": "http://snomed.info/sct",
              "display": "Dependent drug abuse (disorder)"
            }
          ],
          "text": "Dependent drug abuse"
        },
        "text": {
          "status": "generated",
          "div": "<div xmlns=\"http://www.w3.org/1999/xhtml\"><table class=\"hl7__ips\"><tr><td>Dependent drug abuse</td><td><span class=\"nb\">23-Sep-1994</span></td><td>active</td></tr></table></div>"
        },
        "onsetDateTime": "1994-09-23",
        "subject": {
          "reference": "urn:uuid:",
          "display": "Vincenza Porzio"
        },
        "asserter": {
          "reference": "urn:uuid:",
          "display": "Villa Margherita"
        }
      }
    },
    {
      "fullUrl": "urn:uuid:a6d2d80c-5918-488f-9241-3ed807245849",
      "resource": {
        "resourceType": "Condition",
        "id": "a6d2d80c-5918-488f-9241-3ed807245849",
        "meta": {
          "profile": [
            "http://hl7.org/fhir/uv/ips/StructureDefinition/Condition-uv-ips"
          ]
        },
        "category": [
          {
            "coding": [
              {
                "code": "problem-list-item",
                "system": "http://terminology.hl7.org/CodeSystem/condition-category",
                "display": "Problem List Item"
              }
            ]
          }
        ],
        "code": {
          "coding": [
            {
              "code": "196416002",
              "system": "http://snomed.info/sct",
              "display": "Impacted molars (disorder)"
            }
          ],
          "text": "Impacted molars"
        },
        "text": {
          "status": "generated",
          "div": "<div xmlns=\"http://www.w3.org/1999/xhtml\"><table class=\"hl7__ips\"><tr><td>Impacted molars</td><td><span class=\"nb\">30-Jun-1991</span></td><td>active</td></tr></table></div>"
        },
        "onsetDateTime": "1991-06-30",
        "subject": {
          "reference": "urn:uuid:",
          "display": "Vincenza Porzio"
        },
        "asserter": {
          "reference": "urn:uuid:",
          "display": "Villa Margherita"
        }
      }
    },
    {
      "fullUrl": "urn:uuid:1bc993c2-a2b7-40e5-875f-f2169a771971",
      "resource": {
        "resourceType": "Condition",
        "id": "1bc993c2-a2b7-40e5-875f-f2169a771971",
        "meta": {
          "profile": [
            "http://hl7.org/fhir/uv/ips/StructureDefinition/Condition-uv-ips"
          ]
        },
        "category": [
          {
            "coding": [
              {
                "code": "problem-list-item",
                "system": "http://terminology.hl7.org/CodeSystem/condition-category",
                "display": "Problem List Item"
              }
            ]
          }
        ],
        "code": {
          "coding": [
            {
              "code": "124171000119105",
              "system": "http://snomed.info/sct",
              "display": "Chronic intractable migraine without aura (disorder)"
            }
          ],
          "text": "Chronic intractable migraine without aura"
        },
        "text": {
          "status": "generated",
          "div": "<div xmlns=\"http://www.w3.org/1999/xhtml\"><table class=\"hl7__ips\"><tr><td>Chronic intractable migraine without aura</td><td><span class=\"nb\">19-Mar-1990</span></td><td>active</td></tr></table></div>"
        },
        "onsetDateTime": "1990-03-19",
        "subject": {
          "reference": "urn:uuid:",
          "display": "Vincenza Porzio"
        },
        "asserter": {
          "reference": "urn:uuid:",
          "display": "Villa Margherita"
        }
      }
    },
    {
      "fullUrl": "urn:uuid:fa9170d3-5093-4873-963e-99b00002e093",
      "resource": {
        "resourceType": "Condition",
        "id": "fa9170d3-5093-4873-963e-99b00002e093",
        "meta": {
          "profile": [
            "http://hl7.org/fhir/uv/ips/StructureDefinition/Condition-uv-ips"
          ]
        },
        "category": [
          {
            "coding": [
              {
                "code": "problem-list-item",
                "system": "http://terminology.hl7.org/CodeSystem/condition-category",
                "display": "Problem List Item"
              }
            ]
          }
        ],
        "code": {
          "coding": [
            {
              "code": "55680006",
              "system": "http://snomed.info/sct",
              "display": "Drug overdose (disorder)"
            }
          ],
          "text": "Drug overdose"
        },
        "text": {
          "status": "generated",
          "div": "<div xmlns=\"http://www.w3.org/1999/xhtml\"><table class=\"hl7__ips\"><tr><td><span class=\"grayedout\">Drug overdose</span></td><td><span class=\"nb\">28-Nov-2024 - 28-Nov-2024</span></td><td><span class=\"grayedout\">inactive</span></td></tr></table></div>"
        },
        "onsetDateTime": "2024-11-28",
        "abatementDateTime": "2024-11-28",
        "subject": {
          "reference": "urn:uuid:",
          "display": "Vincenza Porzio"
        },
        "asserter": {
          "reference": "urn:uuid:",
          "display": "Villa Margherita"
        }
      }
    },
    {
      "fullUrl": "urn:uuid:0d6f2605-ad81-4385-91f2-b177954343d2",
      "resource": {
        "resourceType": "Condition",
        "id": "0d6f2605-ad81-4385-91f2-b177954343d2",
        "meta": {
          "profile": [
            "http://hl7.org/fhir/uv/ips/StructureDefinition/Condition-uv-ips"
          ]
        },
        "category": [
          {
            "coding": [
              {
                "code": "problem-list-item",
                "system": "http://terminology.hl7.org/CodeSystem/condition-category",
                "display": "Problem List Item"
              }
            ]
          }
        ],
        "code": {
          "coding": [
            {
              "code": "75498004",
              "system": "http://snomed.info/sct",
              "display": "Acute bacterial sinusitis (disorder)"
            }
          ],
          "text": "Acute bacterial sinusitis"
        },
        "text": {
          "status": "generated",
          "div": "<div xmlns=\"http://www.w3.org/1999/xhtml\"><table class=\"hl7__ips\"><tr><td><span class=\"grayedout\">Acute bacterial sinusitis</span></td><td><span class=\"nb\">09-Nov-2023 - 23-May-2024</span></td><td><span class=\"grayedout\">inactive</span></td></tr></table></div>"
        },
        "onsetDateTime": "2023-11-09",
        "abatementDateTime": "2024-05-23",
        "subject": {
          "reference": "urn:uuid:",
          "display": "Vincenza Porzio"
        },
        "asserter": {
          "reference": "urn:uuid:",
          "display": "Villa Margherita"
        }
      }
    },
    {
      "fullUrl": "urn:uuid:de5ce772-e3a9-4598-a82a-a66ed6e58d4d",
      "resource": {
        "resourceType": "Condition",
        "id": "de5ce772-e3a9-4598-a82a-a66ed6e58d4d",
        "meta": {
          "profile": [
            "http://hl7.org/fhir/uv/ips/StructureDefinition/Condition-uv-ips"
          ]
        },
        "category": [
          {
            "coding": [
              {
                "code": "problem-list-item",
                "system": "http://terminology.hl7.org/CodeSystem/condition-category",
                "display": "Problem List Item"
              }
            ]
          }
        ],
        "code": {
          "coding": [
            {
              "code": "36971009",
              "system": "http://snomed.info/sct",
              "display": "Sinusitis (disorder)"
            }
          ],
          "text": "Sinusitis"
        },
        "text": {
          "status": "generated",
          "div": "<div xmlns=\"http://www.w3.org/1999/xhtml\"><table class=\"hl7__ips\"><tr><td><span class=\"grayedout\">Sinusitis</span></td><td><span class=\"nb\">03-Dec-2022 - 16-Jan-2023</span></td><td><span class=\"grayedout\">inactive</span></td></tr></table></div>"
        },
        "onsetDateTime": "2022-12-03",
        "abatementDateTime": "2023-01-16",
        "subject": {
          "reference": "urn:uuid:",
          "display": "Vincenza Porzio"
        },
        "asserter": {
          "reference": "urn:uuid:",
          "display": "Villa Margherita"
        }
      }
    },
    {
      "fullUrl": "urn:uuid:c51f5d12-d3fe-479c-8025-3e4a0b72b67e",
      "resource": {
        "resourceType": "Condition",
        "id": "c51f5d12-d3fe-479c-8025-3e4a0b72b67e",
        "meta": {
          "profile": [
            "http://hl7.org/fhir/uv/ips/StructureDefinition/Condition-uv-ips"
          ]
        },
        "category": [
          {
            "coding": [
              {
                "code": "problem-list-item",
                "system": "http://terminology.hl7.org/CodeSystem/condition-category",
                "display": "Problem List Item"
              }
            ]
          }
        ],
        "code": {
          "coding": [
            {
              "code": "55680006",
              "system": "http://snomed.info/sct",
              "display": "Drug overdose (disorder)"
            }
          ],
          "text": "Drug overdose"
        },
        "text": {
          "status": "generated",
          "div": "<div xmlns=\"http://www.w3.org/1999/xhtml\"><table class=\"hl7__ips\"><tr><td><span class=\"grayedout\">Drug overdose</span></td><td><span class=\"nb\">04-Mar-2022 - 04-Mar-2022</span></td><td><span class=\"grayedout\">inactive</span></td></tr></table></div>"
        },
        "onsetDateTime": "2022-03-04",
        "abatementDateTime": "2022-03-04",
        "subject": {
          "reference": "urn:uuid:",
          "display": "Vincenza Porzio"
        },
        "asserter": {
          "reference": "urn:uuid:",
          "display": "Villa Margherita"
        }
      }
    },
    {
      "fullUrl": "urn:uuid:c237017e-586a-4d54-9b8e-533c6977d74e",
      "resource": {
        "resourceType": "Medication",
        "id": "c237017e-586a-4d54-9b8e-533c6977d74e",
        "meta": {
          "profile": [
            "http://hl7.eu/fhir/eps/StructureDefinition/Medication-eu-eps"
          ]
        },
        "code": {
          "coding": [
            {
              "code": "420276008",
              "system": "http://snomed.info/sct",
              "display": "Naproxen sodium 220 mg oral capsule"
            }
          ],
          "text": "Naproxen sodium 220 mg oral capsule"
        },
        "text": {
          "status": "generated",
          "div": "<div xmlns=\"http://www.w3.org/1999/xhtml\">Naproxen sodium 220 mg oral capsule</div>"
        }
      }
    },
    {
      "fullUrl": "urn:uuid:63f95d9d-0ac0-4562-9ead-c18acf537543",
      "resource": {
        "resourceType": "MedicationStatement",
        "id": "63f95d9d-0ac0-4562-9ead-c18acf537543",
        "meta": {
          "profile": [
            "http://hl7.eu/fhir/eps/StructureDefinition/MedicationStatement-eu-eps"
          ]
        },
        "effectivePeriod": {
          "start": "2015-12-13"
        },
        "dosage": [
          {
            "doseAndRate": [
              {
                "doseQuantity": {
                  "value": 1,
                  "unit": "{tbl}",
                  "system": "$ucum",
                  "code": "{tbl}"
                }
              }
            ],
            "timing": {
              "repeat": {
                "frequency": 2,
                "period": 1,
                "periodUnit": "d"
              }
            },
            "text": "1 tablet (220 mg) by mouth every 12 hours as needed",
            "asNeededBoolean": true
          }
        ],
        "reasonCode": [
          {
            "coding": [
              {
                "code": "239873007",
                "system": "http://snomed.info/sct",
                "display": "Osteoarthritis of knee"
              }
            ]
          }
        ],
        "text": {
          "status": "generated",
          "div": "<div xmlns=\"http://www.w3.org/1999/xhtml\"><table class=\"hl7__ips first25\"><tr><th>Medication</th><th>Since</th><th>Form</th><th>Dosage</th><th>Reason</th></tr><tr><td>Naproxen sodium 220 mg oral capsule</td><td><span class=\"nb\">2015-12-13</span></td><td>-</td><td>1 tablet (220 mg) by mouth every 12 hours as needed</td><td>Osteoarthritis of knee</td></tr></table></div>"
        },
        "status": "active",
        "medicationReference": {
          "reference": "urn:uuid:c237017e-586a-4d54-9b8e-533c6977d74e",
          "display": "Naproxen sodium 220 mg oral capsule"
        },
        "subject": {
          "reference": "urn:uuid:958fd844-fd80-4c2e-8fe4-a7b66260e191",
          "display": "Vincenza Porzio"
        }
      }
    },
    {
      "fullUrl": "urn:uuid:0fdff0d2-a1cb-43b3-975c-6d837654fcbb",
      "resource": {
        "resourceType": "Immunization",
        "id": "0fdff0d2-a1cb-43b3-975c-6d837654fcbb",
        "meta": {
          "profile": [
            "http://hl7.org/fhir/uv/ips/StructureDefinition/Immunization-uv-ips"
          ]
        },
        "vaccineCode": {
          "coding": [
            {
              "code": "777725002",
              "system": "http://snomed.info/sct",
              "display": "Vaccine product containing only Clostridium tetani toxoid antigen adsorbed"
            },
            {
              "code": "J07AM51",
              "system": "http://www.whocc.no/atc",
              "display": "Diphtheria-tetanus vaccines, adult type"
            }
          ],
          "text": "Clostridium tetani toxoid antigen adsorbed only vaccine product"
        },
        "site": {
          "coding": [
            {
              "code": "244979005",
              "system": "http://snomed.info/sct",
              "display": "Entire muscle of upper arm"
            }
          ],
          "text": "Entire muscle of upper arm"
        },
        "route": {
          "coding": [
            {
              "code": "78421000",
              "system": "http://snomed.info/sct",
              "display": "Intramuscular route"
            }
          ],
          "text": "Intramuscular route"
        },
        "text": {
          "status": "generated",
          "div": "<div xmlns=\"http://www.w3.org/1999/xhtml\"><table class=\"hl7__ips\"><tr><td>Clostridium tetani toxoid antigen adsorbed only vaccine product</td><td><span class=\"nb\">13-Mar-2025</span></td></tr></table></div>"
        },
        "status": "completed",
        "patient": {
          "reference": "urn:uuid:958fd844-fd80-4c2e-8fe4-a7b66260e191",
          "display": "Vincenza Porzio"
        },
        "occurrenceDateTime": "2025-03-13",
        "lotNumber": "KS-nSgPxNc",
        "expirationDate": "2026-02-14"
      }
    },
    {
      "fullUrl": "urn:uuid:93856d29-9771-4921-a91b-861977f4c538",
      "resource": {
        "resourceType": "Immunization",
        "id": "93856d29-9771-4921-a91b-861977f4c538",
        "meta": {
          "profile": [
            "http://hl7.org/fhir/uv/ips/StructureDefinition/Immunization-uv-ips"
          ]
        },
        "vaccineCode": {
          "coding": [
            {
              "code": "1181000221105",
              "system": "http://snomed.info/sct",
              "display": "Vaccine product containing Influenza virus antigen"
            },
            {
              "code": "J07BB02",
              "system": "http://www.whocc.no/atc",
              "display": "Influenza, inactivated, split virus"
            }
          ],
          "text": "Influenza virus antigen only vaccine product"
        },
        "site": {
          "coding": [
            {
              "code": "244979005",
              "system": "http://snomed.info/sct",
              "display": "Entire muscle of upper arm"
            }
          ],
          "text": "Entire muscle of upper arm"
        },
        "route": {
          "coding": [
            {
              "code": "78421000",
              "system": "http://snomed.info/sct",
              "display": "Intramuscular route"
            }
          ],
          "text": "Intramuscular route"
        },
        "text": {
          "status": "generated",
          "div": "<div xmlns=\"http://www.w3.org/1999/xhtml\"><table class=\"hl7__ips\"><tr><td>Influenza virus antigen only vaccine product</td><td><span class=\"nb\">13-Mar-2025</span></td></tr></table></div>"
        },
        "status": "completed",
        "patient": {
          "reference": "urn:uuid:958fd844-fd80-4c2e-8fe4-a7b66260e191",
          "display": "Vincenza Porzio"
        },
        "occurrenceDateTime": "2025-03-13",
        "lotNumber": "FU-m4SJ",
        "expirationDate": "2025-06-08"
      }
    },
    {
      "fullUrl": "urn:uuid:f0d43081-c018-4db4-b118-5d5d45219fcd",
      "resource": {
        "resourceType": "Immunization",
        "id": "f0d43081-c018-4db4-b118-5d5d45219fcd",
        "meta": {
          "profile": [
            "http://hl7.org/fhir/uv/ips/StructureDefinition/Immunization-uv-ips"
          ]
        },
        "vaccineCode": {
          "coding": [
            {
              "code": "1119349007",
              "system": "http://snomed.info/sct",
              "display": "Vaccine product containing SARS-CoV-2 mRNA"
            },
            {
              "code": "J07BX03",
              "system": "http://www.whocc.no/atc",
              "display": "COVID-19 mRNA vaccines"
            }
          ],
          "text": "SARS-CoV-2 mRNA vaccine"
        },
        "site": {
          "coding": [
            {
              "code": "244979005",
              "system": "http://snomed.info/sct",
              "display": "Entire muscle of upper arm"
            }
          ],
          "text": "Entire muscle of upper arm"
        },
        "route": {
          "coding": [
            {
              "code": "78421000",
              "system": "http://snomed.info/sct",
              "display": "Intramuscular route"
            }
          ],
          "text": "Intramuscular route"
        },
        "text": {
          "status": "generated",
          "div": "<div xmlns=\"http://www.w3.org/1999/xhtml\"><table class=\"hl7__ips\"><tr><td>SARS-CoV-2 mRNA vaccine</td><td><span class=\"nb\">20-May-2021</span></td></tr></table></div>"
        },
        "status": "completed",
        "patient": {
          "reference": "urn:uuid:958fd844-fd80-4c2e-8fe4-a7b66260e191",
          "display": "Vincenza Porzio"
        },
        "occurrenceDateTime": "2021-05-20",
        "lotNumber": "PT-dCPlTLxl",
        "expirationDate": "2021-09-26"
      }
    },
    {
      "fullUrl": "urn:uuid:c8b26361-3830-4b19-80fd-5691a0ed9e09",
      "resource": {
        "resourceType": "Procedure",
        "id": "c8b26361-3830-4b19-80fd-5691a0ed9e09",
        "meta": {
          "profile": [
            "http://hl7.org/fhir/uv/ips/StructureDefinition/Procedure-uv-ips"
          ]
        },
        "code": {
          "coding": [
            {
              "code": "171207006",
              "system": "http://snomed.info/sct",
              "display": "Depression screening (procedure)"
            }
          ],
          "text": "Depression screening"
        },
        "text": {
          "status": "generated",
          "div": "<div xmlns=\"http://www.w3.org/1999/xhtml\"><table class=\"hl7__ips\"><tr><td>Depression screening</td><td><span class=\"nb\">26-Oct-2023</span></td><td>-</td></tr></table></div>"
        },
        "status": "completed",
        "performedDateTime": "2023-10-26",
        "subject": {
          "reference": "urn:uuid:",
          "display": "Vincenza Porzio"
        }
      }
    },
    {
      "fullUrl": "urn:uuid:e1607a08-b050-4c80-9b68-df80f7ec15d2",
      "resource": {
        "resourceType": "Procedure",
        "id": "e1607a08-b050-4c80-9b68-df80f7ec15d2",
        "meta": {
          "profile": [
            "http://hl7.org/fhir/uv/ips/StructureDefinition/Procedure-uv-ips"
          ]
        },
        "code": {
          "coding": [
            {
              "code": "430193006",
              "system": "http://snomed.info/sct",
              "display": "Medication Reconciliation (procedure)"
            }
          ],
          "text": "Medication reconciliation"
        },
        "text": {
          "status": "generated",
          "div": "<div xmlns=\"http://www.w3.org/1999/xhtml\"><table class=\"hl7__ips\"><tr><td>Medication reconciliation</td><td><span class=\"nb\">26-Oct-2023</span></td><td>-</td></tr></table></div>"
        },
        "status": "completed",
        "performedDateTime": "2023-10-26",
        "subject": {
          "reference": "urn:uuid:",
          "display": "Vincenza Porzio"
        }
      }
    },
    {
      "fullUrl": "urn:uuid:dd334405-4f18-4939-9f07-6ca8df48b033",
      "resource": {
        "resourceType": "Procedure",
        "id": "dd334405-4f18-4939-9f07-6ca8df48b033",
        "meta": {
          "profile": [
            "http://hl7.org/fhir/uv/ips/StructureDefinition/Procedure-uv-ips"
          ]
        },
        "code": {
          "coding": [
            {
              "code": "710824005",
              "system": "http://snomed.info/sct",
              "display": "Assessment of health and social care needs (procedure)"
            }
          ],
          "text": "Assessment of health and social care needs"
        },
        "text": {
          "status": "generated",
          "div": "<div xmlns=\"http://www.w3.org/1999/xhtml\"><table class=\"hl7__ips\"><tr><td>Assessment of health and social care needs</td><td><span class=\"nb\">26-Oct-2023</span></td><td>-</td></tr></table></div>"
        },
        "status": "completed",
        "performedDateTime": "2023-10-26",
        "subject": {
          "reference": "urn:uuid:",
          "display": "Vincenza Porzio"
        }
      }
    },
    {
      "fullUrl": "urn:uuid:d4d42c5b-e74c-407f-9a57-8ed8736304c9",
      "resource": {
        "resourceType": "Procedure",
        "id": "d4d42c5b-e74c-407f-9a57-8ed8736304c9",
        "meta": {
          "profile": [
            "http://hl7.org/fhir/uv/ips/StructureDefinition/Procedure-uv-ips"
          ]
        },
        "code": {
          "coding": [
            {
              "code": "710841007",
              "system": "http://snomed.info/sct",
              "display": "Assessment of anxiety (procedure)"
            }
          ],
          "text": "Assessment of anxiety"
        },
        "text": {
          "status": "generated",
          "div": "<div xmlns=\"http://www.w3.org/1999/xhtml\"><table class=\"hl7__ips\"><tr><td>Assessment of anxiety</td><td><span class=\"nb\">26-Oct-2023</span></td><td>-</td></tr></table></div>"
        },
        "status": "completed",
        "performedDateTime": "2023-10-26",
        "subject": {
          "reference": "urn:uuid:",
          "display": "Vincenza Porzio"
        }
      }
    },
    {
      "fullUrl": "urn:uuid:44075cf9-27ab-43ff-8b34-8da99bcf584d",
      "resource": {
        "resourceType": "Procedure",
        "id": "44075cf9-27ab-43ff-8b34-8da99bcf584d",
        "meta": {
          "profile": [
            "http://hl7.org/fhir/uv/ips/StructureDefinition/Procedure-uv-ips"
          ]
        },
        "code": {
          "coding": [
            {
              "code": "866148006",
              "system": "http://snomed.info/sct",
              "display": "Screening for domestic abuse (procedure)"
            }
          ],
          "text": "Screening for domestic abuse"
        },
        "text": {
          "status": "generated",
          "div": "<div xmlns=\"http://www.w3.org/1999/xhtml\"><table class=\"hl7__ips\"><tr><td>Screening for domestic abuse</td><td><span class=\"nb\">26-Oct-2023</span></td><td>-</td></tr></table></div>"
        },
        "status": "completed",
        "performedDateTime": "2023-10-26",
        "subject": {
          "reference": "urn:uuid:",
          "display": "Vincenza Porzio"
        }
      }
    },
    {
      "fullUrl": "urn:uuid:c881bc8a-2b53-4347-9635-26ef818e37fa",
      "resource": {
        "resourceType": "Procedure",
        "id": "c881bc8a-2b53-4347-9635-26ef818e37fa",
        "meta": {
          "profile": [
            "http://hl7.org/fhir/uv/ips/StructureDefinition/Procedure-uv-ips"
          ]
        },
        "code": {
          "coding": [
            {
              "code": "454711000124102",
              "system": "http://snomed.info/sct",
              "display": "Depression screening using Patient Health Questionnaire Two-Item score (procedure)"
            }
          ]
        },
        "text": {
          "status": "generated",
          "div": "<div xmlns=\"http://www.w3.org/1999/xhtml\"><table class=\"hl7__ips\"><tr><td>Depression screening using Patient Health Questionnaire Two-Item score (procedure)</td><td><span class=\"nb\">26-Oct-2023</span></td><td>-</td></tr></table></div>"
        },
        "status": "completed",
        "performedDateTime": "2023-10-26",
        "subject": {
          "reference": "urn:uuid:",
          "display": "Vincenza Porzio"
        }
      }
    },
    {
      "fullUrl": "urn:uuid:fc0fbad6-5165-414d-8e3c-d80aaf125c9c",
      "resource": {
        "resourceType": "AllergyIntolerance",
        "id": "fc0fbad6-5165-414d-8e3c-d80aaf125c9c",
        "meta": {
          "profile": [
            "http://hl7.eu/fhir/eps/StructureDefinition/allergyIntolerance-eu-eps"
          ]
        },
        "code": {
          "text": ""
        },
        "clinicalStatus": {
          "coding": [
            {
              "code": "active",
              "system": "http://terminology.hl7.org/CodeSystem/allergyintolerance-clinical"
            }
          ]
        },
        "text": {
          "status": "generated",
          "div": "<div xmlns=\"http://www.w3.org/1999/xhtml\"><table class=\"hl7__ips\"><tr><th>Allergy/Intolerance</th><th>Onset Date</th><th>Status</th><th>Type</th><th>Reaction</th></tr><tr><td></td><td>?</td><td>active</td><td>?</td><td></td></tr></table></div>"
        },
        "verificationStatus": {
          "coding": [
            {
              "code": "confirmed",
              "system": "http://terminology.hl7.org/CodeSystem/allergyintolerance-verification"
            }
          ]
        },
        "patient": {
          "reference": "urn:uuid:958fd844-fd80-4c2e-8fe4-a7b66260e191",
          "display": "Vincenza Porzio"
        },
        "_onsetDateTime": {
          "extension": [
            {
              "url": "http://hl7.org/fhir/StructureDefinition/data-absent-reason",
              "valueCode": "unknown"
            }
          ]
        }
      }
    },
    {
      "fullUrl": "urn:uuid:d423be42-4caa-406c-84cd-fb24dcd4750d",
      "resource": {
        "resourceType": "CarePlan",
        "id": "d423be42-4caa-406c-84cd-fb24dcd4750d",
        "category": [
          {
            "coding": [
              {
                "code": "assess-plan",
                "system": "http://terminology.hl7.org/CodeSystem/care-plan-category",
                "display": "Assessment and Plan"
              }
            ]
          }
        ],
        "activity": [
          {
            "detail": {
              "code": {
                "coding": [
                  {
                    "code": "698360004",
                    "system": "http://snomed.info/sct",
                    "display": "Diabetes self management plan (qualifier value)"
                  }
                ]
              },
              "reasonCode": [
                {
                  "coding": [
                    {
                      "code": "15777000",
                      "system": "http://snomed.info/sct",
                      "display": "Prediabetes"
                    }
                  ]
                }
              ],
              "status": "unknown",
              "description": "Diabetes self management plan",
              "kind": "Appointment"
            }
          }
        ],
        "period": {
          "start": "2019-02-07"
        },
        "goal": [
          {
            "reference": "urn:uuid:2dbe4c28-c66c-4663-bb68-a84c2602a6c6"
          }
        ],
        "text": {
          "status": "generated",
          "div": "<div xmlns=\"http://www.w3.org/1999/xhtml\"><table class=\"hl7__ips first25\"><tr><th>Active Planned Care / Goals</th><th>Start Date</th><th>Reason</th></tr><tr><td>Diabetes self management plan</td><td><span class=\"nb\">07-Feb-2019</span></td><td>Prediabetes</td></tr><tr><td><ul><li>Patient will implement and maintain a diabetes self-management plan to reduce risk of progression from prediabetes.</li></ul></td><td></td><td></td></tr></table></div>"
        },
        "status": "active",
        "intent": "plan",
        "subject": {
          "reference": "urn:uuid:958fd844-fd80-4c2e-8fe4-a7b66260e191",
          "display": "Vincenza Porzio"
        }
      }
    },
    {
      "fullUrl": "urn:uuid:25addba3-8373-4b6a-88f3-cf193795b12f",
      "resource": {
        "resourceType": "CarePlan",
        "id": "25addba3-8373-4b6a-88f3-cf193795b12f",
        "category": [
          {
            "coding": [
              {
                "code": "assess-plan",
                "system": "http://terminology.hl7.org/CodeSystem/care-plan-category",
                "display": "Assessment and Plan"
              }
            ]
          }
        ],
        "activity": [
          {
            "detail": {
              "code": {
                "coding": [
                  {
                    "code": "408869004",
                    "system": "http://snomed.info/sct",
                    "display": "Musculoskeletal care (regime/therapy)"
                  }
                ]
              },
              "reasonCode": [
                {
                  "coding": [
                    {
                      "code": "239873007",
                      "system": "http://snomed.info/sct",
                      "display": "Osteoarthritis of knee"
                    }
                  ]
                }
              ],
              "status": "unknown",
              "description": "Musculoskeletal care",
              "kind": "Appointment"
            }
          }
        ],
        "period": {
          "start": "2015-12-13"
        },
        "goal": [
          {
            "reference": "urn:uuid:828a3b75-4f03-47cf-8199-a2d74617b7e4"
          },
          {
            "reference": "urn:uuid:c72f4bfd-effe-437d-94e0-6aaf6b48c9bb"
          },
          {
            "reference": "urn:uuid:b739c68a-c513-4990-b276-87c1ddb47d07"
          }
        ],
        "text": {
          "status": "generated",
          "div": "<div xmlns=\"http://www.w3.org/1999/xhtml\"><table class=\"hl7__ips first25\"><tr><th>Active Planned Care / Goals</th><th>Start Date</th><th>Reason</th></tr><tr><td>Musculoskeletal care</td><td><span class=\"nb\">13-Dec-2015</span></td><td>Osteoarthritis of knee</td></tr><tr><td><ul><li>Decrease knee pain severity to improve mobility and quality of life.</li><li>Increase ability to perform activities of daily living without knee limitation.</li><li>Increase distance able to walk without significant knee pain.</li></ul></td><td></td><td></td></tr></table></div>"
        },
        "status": "active",
        "intent": "plan",
        "subject": {
          "reference": "urn:uuid:958fd844-fd80-4c2e-8fe4-a7b66260e191",
          "display": "Vincenza Porzio"
        }
      }
    },
    {
      "fullUrl": "urn:uuid:d2150322-4274-4d58-af68-c6fd9d0e786a",
      "resource": {
        "resourceType": "CarePlan",
        "id": "d2150322-4274-4d58-af68-c6fd9d0e786a",
        "category": [
          {
            "coding": [
              {
                "code": "assess-plan",
                "system": "http://terminology.hl7.org/CodeSystem/care-plan-category",
                "display": "Assessment and Plan"
              }
            ]
          }
        ],
        "activity": [
          {
            "detail": {
              "code": {
                "coding": [
                  {
                    "code": "734163000",
                    "system": "http://snomed.info/sct",
                    "display": "Care plan (record artifact)"
                  }
                ]
              },
              "status": "unknown",
              "description": "Care plan",
              "kind": "Appointment"
            }
          }
        ],
        "period": {
          "start": "1999-03-27"
        },
        "text": {
          "status": "generated",
          "div": "<div xmlns=\"http://www.w3.org/1999/xhtml\"><table class=\"hl7__ips first25\"><tr><th>Active Planned Care / Goals</th><th>Start Date</th><th>Reason</th></tr><tr><td>Care plan</td><td><span class=\"nb\">27-Mar-1999</span></td><td>-</td></tr></table></div>"
        },
        "status": "active",
        "intent": "plan",
        "subject": {
          "reference": "urn:uuid:958fd844-fd80-4c2e-8fe4-a7b66260e191",
          "display": "Vincenza Porzio"
        }
      }
    },
    {
      "fullUrl": "urn:uuid:967369ea-edde-42f7-8b5c-d7a1aec877ef",
      "resource": {
        "resourceType": "ImmunizationRecommendation",
        "id": "967369ea-edde-42f7-8b5c-d7a1aec877ef",
        "recommendation": [
          {
            "vaccineCode": [
              {
                "coding": [
                  {
                    "code": "1181000221105",
                    "system": "http://snomed.info/sct",
                    "display": "Vaccine product containing only Influenza virus antigen (medicinal product)"
                  }
                ]
              }
            ],
            "dateCriterion": [
              {
                "code": {
                  "coding": [
                    {
                      "code": "30980-7",
                      "system": "http://loinc.org",
                      "display": "Date vaccine due"
                    }
                  ]
                },
                "value": "2025-10-01"
              }
            ],
            "targetDisease": {
              "coding": [
                {
                  "code": "6142004",
                  "system": "http://snomed.info/sct",
                  "display": "Influenza (disorder)"
                }
              ]
            },
            "series": "Annual seasonal influenza vaccination",
            "forecastStatus": {
              "coding": [
                {
                  "code": "due",
                  "system": "http://terminology.hl7.org/CodeSystem/immunization-recommendation-status",
                  "display": "Due"
                }
              ]
            }
          }
        ],
        "text": {
          "status": "generated",
          "div": "<div xmlns=\"http://www.w3.org/1999/xhtml\"><table class=\"hl7__ips\"><tr><td>Vaccine product containing only Influenza virus antigen (medicinal product)</td><td><span class=\"nb\">01-Oct-2025</span></td><td>Annual seasonal influenza vaccination</td></tr></table></div>"
        },
        "date": "2025-10-22",
        "patient": {
          "reference": "urn:uuid:958fd844-fd80-4c2e-8fe4-a7b66260e191",
          "display": "Vincenza Porzio"
        }
      }
    },
    {
      "fullUrl": "urn:uuid:b9e8710d-ddff-4ab6-9c4e-b56cfd4d5a53",
      "resource": {
        "resourceType": "Observation",
        "id": "b9e8710d-ddff-4ab6-9c4e-b56cfd4d5a53",
        "meta": {
          "profile": [
            "http://hl7.org/fhir/StructureDefinition/vitalsigns"
          ]
        },
        "category": [
          {
            "coding": [
              {
                "system": "http://terminology.hl7.org/CodeSystem/observation-category",
                "code": "vital-signs",
                "display": "Vital Signs"
              }
            ]
          }
        ],
        "valueQuantity": {
          "value": 156.3,
          "code": "cm",
          "unit": "cm"
        },
        "text": {
          "status": "generated",
          "div": "<div xmlns=\"http://www.w3.org/1999/xhtml\"><table class=\"hl7__ips\"><tr><th>Vital Sign</th><th>Date</th><th>Measurement</th></tr><tr><td>Body Height</td><td>13-Mar-2025</td><td>156.3 cm</td></tr></table></div>"
        },
        "status": "final",
        "code": {
          "coding": [
            {
              "code": "$8302-2",
              "system": "http://loinc.org",
              "display": "Body Height"
            }
          ]
        },
        "subject": {
          "reference": "urn:uuid:958fd844-fd80-4c2e-8fe4-a7b66260e191",
          "display": "Vincenza Porzio"
        },
        "effectiveDateTime": "2025-03-13"
      }
    },
    {
      "fullUrl": "urn:uuid:48b8981e-2a11-4b97-9236-5b36d93fb739",
      "resource": {
        "resourceType": "Observation",
        "id": "48b8981e-2a11-4b97-9236-5b36d93fb739",
        "meta": {
          "profile": [
            "http://hl7.org/fhir/StructureDefinition/vitalsigns"
          ]
        },
        "category": [
          {
            "coding": [
              {
                "system": "http://terminology.hl7.org/CodeSystem/observation-category",
                "code": "vital-signs",
                "display": "Vital Signs"
              }
            ]
          }
        ],
        "valueQuantity": {
          "value": 3,
          "code": "{score}",
          "unit": "{score}"
        },
        "text": {
          "status": "generated",
          "div": "<div xmlns=\"http://www.w3.org/1999/xhtml\"><table class=\"hl7__ips\"><tr><th>Vital Sign</th><th>Date</th><th>Measurement</th></tr><tr><td>Pain severity - 0-10 verbal numeric rating [Score] - Reported</td><td>13-Mar-2025</td><td>3 {score}</td></tr></table></div>"
        },
        "status": "final",
        "code": {
          "coding": [
            {
              "code": "$72514-3",
              "system": "http://loinc.org",
              "display": "Pain severity - 0-10 verbal numeric rating [Score] - Reported"
            }
          ]
        },
        "subject": {
          "reference": "urn:uuid:958fd844-fd80-4c2e-8fe4-a7b66260e191",
          "display": "Vincenza Porzio"
        },
        "effectiveDateTime": "2025-03-13"
      }
    },
    {
      "fullUrl": "urn:uuid:2f77f846-74b6-40b8-b925-fc3dd8521f24",
      "resource": {
        "resourceType": "Observation",
        "id": "2f77f846-74b6-40b8-b925-fc3dd8521f24",
        "meta": {
          "profile": [
            "http://hl7.org/fhir/StructureDefinition/vitalsigns"
          ]
        },
        "category": [
          {
            "coding": [
              {
                "system": "http://terminology.hl7.org/CodeSystem/observation-category",
                "code": "vital-signs",
                "display": "Vital Signs"
              }
            ]
          }
        ],
        "valueQuantity": {
          "value": 72.6,
          "code": "kg",
          "unit": "kg"
        },
        "text": {
          "status": "generated",
          "div": "<div xmlns=\"http://www.w3.org/1999/xhtml\"><table class=\"hl7__ips\"><tr><th>Vital Sign</th><th>Date</th><th>Measurement</th></tr><tr><td>Body Weight</td><td>13-Mar-2025</td><td>72.6 kg</td></tr></table></div>"
        },
        "status": "final",
        "code": {
          "coding": [
            {
              "code": "$29463-7",
              "system": "http://loinc.org",
              "display": "Body Weight"
            }
          ]
        },
        "subject": {
          "reference": "urn:uuid:958fd844-fd80-4c2e-8fe4-a7b66260e191",
          "display": "Vincenza Porzio"
        },
        "effectiveDateTime": "2025-03-13"
      }
    },
    {
      "fullUrl": "urn:uuid:5def11d2-8baa-4c01-93b2-c0461d43382f",
      "resource": {
        "resourceType": "Observation",
        "id": "5def11d2-8baa-4c01-93b2-c0461d43382f",
        "meta": {
          "profile": [
            "http://hl7.org/fhir/StructureDefinition/vitalsigns"
          ]
        },
        "category": [
          {
            "coding": [
              {
                "system": "http://terminology.hl7.org/CodeSystem/observation-category",
                "code": "vital-signs",
                "display": "Vital Signs"
              }
            ]
          }
        ],
        "valueQuantity": {
          "value": 29.7,
          "code": "kg/m2",
          "unit": "kg/m2"
        },
        "text": {
          "status": "generated",
          "div": "<div xmlns=\"http://www.w3.org/1999/xhtml\"><table class=\"hl7__ips\"><tr><th>Vital Sign</th><th>Date</th><th>Measurement</th></tr><tr><td>Body mass index (BMI) [Ratio]</td><td>13-Mar-2025</td><td>29.7 kg/m2</td></tr></table></div>"
        },
        "status": "final",
        "code": {
          "coding": [
            {
              "code": "$39156-5",
              "system": "http://loinc.org",
              "display": "Body mass index (BMI) [Ratio]"
            }
          ]
        },
        "subject": {
          "reference": "urn:uuid:958fd844-fd80-4c2e-8fe4-a7b66260e191",
          "display": "Vincenza Porzio"
        },
        "effectiveDateTime": "2025-03-13"
      }
    },
    {
      "fullUrl": "urn:uuid:64c6fb57-bd0e-43a9-a743-b9e4a5fd8ad4",
      "resource": {
        "resourceType": "Observation",
        "id": "64c6fb57-bd0e-43a9-a743-b9e4a5fd8ad4",
        "meta": {
          "profile": [
            "http://hl7.org/fhir/StructureDefinition/vitalsigns"
          ]
        },
        "category": [
          {
            "coding": [
              {
                "system": "http://terminology.hl7.org/CodeSystem/observation-category",
                "code": "vital-signs",
                "display": "Vital Signs"
              }
            ]
          }
        ],
        "valueQuantity": {
          "value": 69,
          "code": "mm[Hg]",
          "unit": "mm[Hg]"
        },
        "text": {
          "status": "generated",
          "div": "<div xmlns=\"http://www.w3.org/1999/xhtml\"><table class=\"hl7__ips\"><tr><th>Vital Sign</th><th>Date</th><th>Measurement</th></tr><tr><td>Diastolic Blood Pressure</td><td>13-Mar-2025</td><td>69 mm[Hg]</td></tr></table></div>"
        },
        "status": "final",
        "code": {
          "coding": [
            {
              "code": "$8462-4",
              "system": "http://loinc.org",
              "display": "Diastolic Blood Pressure"
            }
          ]
        },
        "subject": {
          "reference": "urn:uuid:958fd844-fd80-4c2e-8fe4-a7b66260e191",
          "display": "Vincenza Porzio"
        },
        "effectiveDateTime": "2025-03-13"
      }
    },
    {
      "fullUrl": "urn:uuid:59f8d078-f440-4b2f-abe5-c1faa6eb75a1",
      "resource": {
        "resourceType": "Observation",
        "id": "59f8d078-f440-4b2f-abe5-c1faa6eb75a1",
        "meta": {
          "profile": [
            "http://hl7.org/fhir/StructureDefinition/vitalsigns"
          ]
        },
        "category": [
          {
            "coding": [
              {
                "system": "http://terminology.hl7.org/CodeSystem/observation-category",
                "code": "vital-signs",
                "display": "Vital Signs"
              }
            ]
          }
        ],
        "valueQuantity": {
          "value": 119,
          "code": "mm[Hg]",
          "unit": "mm[Hg]"
        },
        "text": {
          "status": "generated",
          "div": "<div xmlns=\"http://www.w3.org/1999/xhtml\"><table class=\"hl7__ips\"><tr><th>Vital Sign</th><th>Date</th><th>Measurement</th></tr><tr><td>Systolic Blood Pressure</td><td>13-Mar-2025</td><td>119 mm[Hg]</td></tr></table></div>"
        },
        "status": "final",
        "code": {
          "coding": [
            {
              "code": "$8480-6",
              "system": "http://loinc.org",
              "display": "Systolic Blood Pressure"
            }
          ]
        },
        "subject": {
          "reference": "urn:uuid:958fd844-fd80-4c2e-8fe4-a7b66260e191",
          "display": "Vincenza Porzio"
        },
        "effectiveDateTime": "2025-03-13"
      }
    },
    {
      "fullUrl": "urn:uuid:e39599ff-0930-4bc1-8704-4cbfe876902e",
      "resource": {
        "resourceType": "Observation",
        "id": "e39599ff-0930-4bc1-8704-4cbfe876902e",
        "meta": {
          "profile": [
            "http://hl7.org/fhir/StructureDefinition/vitalsigns"
          ]
        },
        "category": [
          {
            "coding": [
              {
                "system": "http://terminology.hl7.org/CodeSystem/observation-category",
                "code": "vital-signs",
                "display": "Vital Signs"
              }
            ]
          }
        ],
        "valueQuantity": {
          "value": 74,
          "code": "/min",
          "unit": "/min"
        },
        "text": {
          "status": "generated",
          "div": "<div xmlns=\"http://www.w3.org/1999/xhtml\"><table class=\"hl7__ips\"><tr><th>Vital Sign</th><th>Date</th><th>Measurement</th></tr><tr><td>Heart rate</td><td>13-Mar-2025</td><td>74 /min</td></tr></table></div>"
        },
        "status": "final",
        "code": {
          "coding": [
            {
              "code": "$8867-4",
              "system": "http://loinc.org",
              "display": "Heart rate"
            }
          ]
        },
        "subject": {
          "reference": "urn:uuid:958fd844-fd80-4c2e-8fe4-a7b66260e191",
          "display": "Vincenza Porzio"
        },
        "effectiveDateTime": "2025-03-13"
      }
    },
    {
      "fullUrl": "urn:uuid:5816f69e-1fad-4b8b-803a-9b8609c3febd",
      "resource": {
        "resourceType": "Observation",
        "id": "5816f69e-1fad-4b8b-803a-9b8609c3febd",
        "meta": {
          "profile": [
            "http://hl7.org/fhir/StructureDefinition/vitalsigns"
          ]
        },
        "category": [
          {
            "coding": [
              {
                "system": "http://terminology.hl7.org/CodeSystem/observation-category",
                "code": "vital-signs",
                "display": "Vital Signs"
              }
            ]
          }
        ],
        "valueQuantity": {
          "value": 15,
          "code": "/min",
          "unit": "/min"
        },
        "text": {
          "status": "generated",
          "div": "<div xmlns=\"http://www.w3.org/1999/xhtml\"><table class=\"hl7__ips\"><tr><th>Vital Sign</th><th>Date</th><th>Measurement</th></tr><tr><td>Respiratory rate</td><td>13-Mar-2025</td><td>15 /min</td></tr></table></div>"
        },
        "status": "final",
        "code": {
          "coding": [
            {
              "code": "$9279-1",
              "system": "http://loinc.org",
              "display": "Respiratory rate"
            }
          ]
        },
        "subject": {
          "reference": "urn:uuid:958fd844-fd80-4c2e-8fe4-a7b66260e191",
          "display": "Vincenza Porzio"
        },
        "effectiveDateTime": "2025-03-13"
      }
    },
    {
      "fullUrl": "urn:uuid:b29d8666-0c4e-4a84-94c4-4b6c2cc21e11",
      "resource": {
        "resourceType": "Observation",
        "id": "b29d8666-0c4e-4a84-94c4-4b6c2cc21e11",
        "meta": {
          "profile": [
            "http://hl7.org/fhir/StructureDefinition/vitalsigns"
          ]
        },
        "category": [
          {
            "coding": [
              {
                "system": "http://terminology.hl7.org/CodeSystem/observation-category",
                "code": "vital-signs",
                "display": "Vital Signs"
              }
            ]
          }
        ],
        "valueQuantity": {
          "value": 156.3,
          "code": "cm",
          "unit": "cm"
        },
        "text": {
          "status": "generated",
          "div": "<div xmlns=\"http://www.w3.org/1999/xhtml\"><table class=\"hl7__ips\"><tr><th>Vital Sign</th><th>Date</th><th>Measurement</th></tr><tr><td>Body Height</td><td>07-Mar-2024</td><td>156.3 cm</td></tr></table></div>"
        },
        "status": "final",
        "code": {
          "coding": [
            {
              "code": "$8302-2",
              "system": "http://loinc.org",
              "display": "Body Height"
            }
          ]
        },
        "subject": {
          "reference": "urn:uuid:958fd844-fd80-4c2e-8fe4-a7b66260e191",
          "display": "Vincenza Porzio"
        },
        "effectiveDateTime": "2024-03-07"
      }
    },
    {
      "fullUrl": "urn:uuid:63b411e5-da39-4c7d-9895-b2f9933d255e",
      "resource": {
        "resourceType": "Observation",
        "id": "63b411e5-da39-4c7d-9895-b2f9933d255e",
        "meta": {
          "profile": [
            "http://hl7.org/fhir/StructureDefinition/vitalsigns"
          ]
        },
        "category": [
          {
            "coding": [
              {
                "system": "http://terminology.hl7.org/CodeSystem/observation-category",
                "code": "vital-signs",
                "display": "Vital Signs"
              }
            ]
          }
        ],
        "valueQuantity": {
          "value": 1,
          "code": "{score}",
          "unit": "{score}"
        },
        "text": {
          "status": "generated",
          "div": "<div xmlns=\"http://www.w3.org/1999/xhtml\"><table class=\"hl7__ips\"><tr><th>Vital Sign</th><th>Date</th><th>Measurement</th></tr><tr><td>Pain severity - 0-10 verbal numeric rating [Score] - Reported</td><td>07-Mar-2024</td><td>1 {score}</td></tr></table></div>"
        },
        "status": "final",
        "code": {
          "coding": [
            {
              "code": "$72514-3",
              "system": "http://loinc.org",
              "display": "Pain severity - 0-10 verbal numeric rating [Score] - Reported"
            }
          ]
        },
        "subject": {
          "reference": "urn:uuid:958fd844-fd80-4c2e-8fe4-a7b66260e191",
          "display": "Vincenza Porzio"
        },
        "effectiveDateTime": "2024-03-07"
      }
    },
    {
      "fullUrl": "urn:uuid:3b12dfa7-c958-4ebf-9421-2fc9ea1150c6",
      "resource": {
        "resourceType": "Observation",
        "id": "3b12dfa7-c958-4ebf-9421-2fc9ea1150c6",
        "meta": {
          "profile": [
            "http://hl7.org/fhir/StructureDefinition/vitalsigns"
          ]
        },
        "category": [
          {
            "coding": [
              {
                "system": "http://terminology.hl7.org/CodeSystem/observation-category",
                "code": "vital-signs",
                "display": "Vital Signs"
              }
            ]
          }
        ],
        "valueQuantity": {
          "value": 70.9,
          "code": "kg",
          "unit": "kg"
        },
        "text": {
          "status": "generated",
          "div": "<div xmlns=\"http://www.w3.org/1999/xhtml\"><table class=\"hl7__ips\"><tr><th>Vital Sign</th><th>Date</th><th>Measurement</th></tr><tr><td>Body Weight</td><td>07-Mar-2024</td><td>70.9 kg</td></tr></table></div>"
        },
        "status": "final",
        "code": {
          "coding": [
            {
              "code": "$29463-7",
              "system": "http://loinc.org",
              "display": "Body Weight"
            }
          ]
        },
        "subject": {
          "reference": "urn:uuid:958fd844-fd80-4c2e-8fe4-a7b66260e191",
          "display": "Vincenza Porzio"
        },
        "effectiveDateTime": "2024-03-07"
      }
    },
    {
      "fullUrl": "urn:uuid:eb92e083-4e28-4da3-8bb6-b8eea8c3695f",
      "resource": {
        "resourceType": "Observation",
        "id": "eb92e083-4e28-4da3-8bb6-b8eea8c3695f",
        "meta": {
          "profile": [
            "http://hl7.org/fhir/StructureDefinition/vitalsigns"
          ]
        },
        "category": [
          {
            "coding": [
              {
                "system": "http://terminology.hl7.org/CodeSystem/observation-category",
                "code": "vital-signs",
                "display": "Vital Signs"
              }
            ]
          }
        ],
        "valueQuantity": {
          "value": 29,
          "code": "kg/m2",
          "unit": "kg/m2"
        },
        "text": {
          "status": "generated",
          "div": "<div xmlns=\"http://www.w3.org/1999/xhtml\"><table class=\"hl7__ips\"><tr><th>Vital Sign</th><th>Date</th><th>Measurement</th></tr><tr><td>Body mass index (BMI) [Ratio]</td><td>07-Mar-2024</td><td>29 kg/m2</td></tr></table></div>"
        },
        "status": "final",
        "code": {
          "coding": [
            {
              "code": "$39156-5",
              "system": "http://loinc.org",
              "display": "Body mass index (BMI) [Ratio]"
            }
          ]
        },
        "subject": {
          "reference": "urn:uuid:958fd844-fd80-4c2e-8fe4-a7b66260e191",
          "display": "Vincenza Porzio"
        },
        "effectiveDateTime": "2024-03-07"
      }
    },
    {
      "fullUrl": "urn:uuid:e8b1ea97-ad7e-4b87-924a-2463fcfac13b",
      "resource": {
        "resourceType": "Observation",
        "id": "e8b1ea97-ad7e-4b87-924a-2463fcfac13b",
        "meta": {
          "profile": [
            "http://hl7.org/fhir/StructureDefinition/vitalsigns"
          ]
        },
        "category": [
          {
            "coding": [
              {
                "system": "http://terminology.hl7.org/CodeSystem/observation-category",
                "code": "vital-signs",
                "display": "Vital Signs"
              }
            ]
          }
        ],
        "valueQuantity": {
          "value": 67,
          "code": "mm[Hg]",
          "unit": "mm[Hg]"
        },
        "text": {
          "status": "generated",
          "div": "<div xmlns=\"http://www.w3.org/1999/xhtml\"><table class=\"hl7__ips\"><tr><th>Vital Sign</th><th>Date</th><th>Measurement</th></tr><tr><td>Diastolic Blood Pressure</td><td>07-Mar-2024</td><td>67 mm[Hg]</td></tr></table></div>"
        },
        "status": "final",
        "code": {
          "coding": [
            {
              "code": "$8462-4",
              "system": "http://loinc.org",
              "display": "Diastolic Blood Pressure"
            }
          ]
        },
        "subject": {
          "reference": "urn:uuid:958fd844-fd80-4c2e-8fe4-a7b66260e191",
          "display": "Vincenza Porzio"
        },
        "effectiveDateTime": "2024-03-07"
      }
    },
    {
      "fullUrl": "urn:uuid:0a3dfbce-ad71-45c7-83fd-10f7f9949554",
      "resource": {
        "resourceType": "Observation",
        "id": "0a3dfbce-ad71-45c7-83fd-10f7f9949554",
        "meta": {
          "profile": [
            "http://hl7.org/fhir/StructureDefinition/vitalsigns"
          ]
        },
        "category": [
          {
            "coding": [
              {
                "system": "http://terminology.hl7.org/CodeSystem/observation-category",
                "code": "vital-signs",
                "display": "Vital Signs"
              }
            ]
          }
        ],
        "valueQuantity": {
          "value": 116,
          "code": "mm[Hg]",
          "unit": "mm[Hg]"
        },
        "text": {
          "status": "generated",
          "div": "<div xmlns=\"http://www.w3.org/1999/xhtml\"><table class=\"hl7__ips\"><tr><th>Vital Sign</th><th>Date</th><th>Measurement</th></tr><tr><td>Systolic Blood Pressure</td><td>07-Mar-2024</td><td>116 mm[Hg]</td></tr></table></div>"
        },
        "status": "final",
        "code": {
          "coding": [
            {
              "code": "$8480-6",
              "system": "http://loinc.org",
              "display": "Systolic Blood Pressure"
            }
          ]
        },
        "subject": {
          "reference": "urn:uuid:958fd844-fd80-4c2e-8fe4-a7b66260e191",
          "display": "Vincenza Porzio"
        },
        "effectiveDateTime": "2024-03-07"
      }
    },
    {
      "fullUrl": "urn:uuid:164dda98-308d-4436-9b68-1e780096bd8a",
      "resource": {
        "resourceType": "Observation",
        "id": "164dda98-308d-4436-9b68-1e780096bd8a",
        "meta": {
          "profile": [
            "http://hl7.org/fhir/StructureDefinition/vitalsigns"
          ]
        },
        "category": [
          {
            "coding": [
              {
                "system": "http://terminology.hl7.org/CodeSystem/observation-category",
                "code": "vital-signs",
                "display": "Vital Signs"
              }
            ]
          }
        ],
        "valueQuantity": {
          "value": 70,
          "code": "/min",
          "unit": "/min"
        },
        "text": {
          "status": "generated",
          "div": "<div xmlns=\"http://www.w3.org/1999/xhtml\"><table class=\"hl7__ips\"><tr><th>Vital Sign</th><th>Date</th><th>Measurement</th></tr><tr><td>Heart rate</td><td>07-Mar-2024</td><td>70 /min</td></tr></table></div>"
        },
        "status": "final",
        "code": {
          "coding": [
            {
              "code": "$8867-4",
              "system": "http://loinc.org",
              "display": "Heart rate"
            }
          ]
        },
        "subject": {
          "reference": "urn:uuid:958fd844-fd80-4c2e-8fe4-a7b66260e191",
          "display": "Vincenza Porzio"
        },
        "effectiveDateTime": "2024-03-07"
      }
    },
    {
      "fullUrl": "urn:uuid:62b42db0-cfb4-40ec-9d9a-4ab940896d38",
      "resource": {
        "resourceType": "Observation",
        "id": "62b42db0-cfb4-40ec-9d9a-4ab940896d38",
        "meta": {
          "profile": [
            "http://hl7.org/fhir/StructureDefinition/vitalsigns"
          ]
        },
        "category": [
          {
            "coding": [
              {
                "system": "http://terminology.hl7.org/CodeSystem/observation-category",
                "code": "vital-signs",
                "display": "Vital Signs"
              }
            ]
          }
        ],
        "valueQuantity": {
          "value": 13,
          "code": "/min",
          "unit": "/min"
        },
        "text": {
          "status": "generated",
          "div": "<div xmlns=\"http://www.w3.org/1999/xhtml\"><table class=\"hl7__ips\"><tr><th>Vital Sign</th><th>Date</th><th>Measurement</th></tr><tr><td>Respiratory rate</td><td>07-Mar-2024</td><td>13 /min</td></tr></table></div>"
        },
        "status": "final",
        "code": {
          "coding": [
            {
              "code": "$9279-1",
              "system": "http://loinc.org",
              "display": "Respiratory rate"
            }
          ]
        },
        "subject": {
          "reference": "urn:uuid:958fd844-fd80-4c2e-8fe4-a7b66260e191",
          "display": "Vincenza Porzio"
        },
        "effectiveDateTime": "2024-03-07"
      }
    },
    {
      "fullUrl": "urn:uuid:572727be-cd7d-4fcc-ad5e-75e36d9eb4fa",
      "resource": {
        "resourceType": "Observation",
        "id": "572727be-cd7d-4fcc-ad5e-75e36d9eb4fa",
        "meta": {
          "profile": [
            "http://hl7.eu/fhir/laboratory/StructureDefinition/Observation-resultslab-eu-lab"
          ]
        },
        "performer": [
          {
            "display": "The Central European Lab"
          }
        ],
        "category": [
          {
            "coding": [
              {
                "system": "http://terminology.hl7.org/CodeSystem/observation-category",
                "code": "laboratory"
              }
            ]
          }
        ],
        "code": {
          "coding": [
            {
              "code": "4548-4",
              "system": "http://loinc.org",
              "display": "Hemoglobin A1c/Hemoglobin.total in Blood"
            }
          ],
          "text": "Hemoglobin A1c/Hemoglobin.total in Blood"
        },
        "valueQuantity": {
          "system": "http://unitsofmeasure.org",
          "value": 5.9,
          "unit": "%",
          "code": "%"
        },
        "referenceRange": [
          {
            "low": {
              "value": 4,
              "code": "%",
              "system": "http://unitsofmeasure.org"
            }
          },
          {
            "high": {
              "value": 6,
              "code": "%",
              "system": "http://unitsofmeasure.org"
            }
          }
        ],
        "text": {
          "status": "generated",
          "div": "<div xmlns=\"http://www.w3.org/1999/xhtml\"><table class=\"hl7__eu__lab__report\"><tr><th>Test</th><th>13-Mar-2025</th><th>Reference&#xA0;Range</th><th>Unit</th></tr><tr><td>Hemoglobin A1c/Hemoglobin.total in Blood</td><td>5.9</td><td>4 - 6</td><td></td><td>%</td></tr></table></div>"
        },
        "status": "final",
        "subject": {
          "reference": "urn:uuid:958fd844-fd80-4c2e-8fe4-a7b66260e191",
          "display": "Vincenza Porzio"
        },
        "effectiveDateTime": "2025-03-13T18:51:27Z"
      }
    },
    {
      "fullUrl": "urn:uuid:c4af78a7-ed86-4c16-a19d-cdab80421501",
      "resource": {
        "resourceType": "Observation",
        "id": "c4af78a7-ed86-4c16-a19d-cdab80421501",
        "meta": {
          "profile": [
            "http://hl7.eu/fhir/laboratory/StructureDefinition/Observation-resultslab-eu-lab"
          ]
        },
        "performer": [
          {
            "display": "The Central European Lab"
          }
        ],
        "category": [
          {
            "coding": [
              {
                "system": "http://terminology.hl7.org/CodeSystem/observation-category",
                "code": "laboratory"
              }
            ]
          }
        ],
        "code": {
          "coding": [
            {
              "code": "2339-0",
              "system": "http://loinc.org",
              "display": "Glucose [Mass/volume] in Blood"
            }
          ],
          "text": "Glucose [Mass/volume] in Blood"
        },
        "valueQuantity": {
          "system": "http://unitsofmeasure.org",
          "value": 85.2,
          "unit": "mg/dL",
          "code": "mg/dL"
        },
        "referenceRange": [
          {
            "low": {
              "value": 70,
              "code": "mg/dL",
              "system": "http://unitsofmeasure.org"
            }
          },
          {
            "high": {
              "value": 140,
              "code": "mg/dL",
              "system": "http://unitsofmeasure.org"
            }
          }
        ],
        "text": {
          "status": "generated",
          "div": "<div xmlns=\"http://www.w3.org/1999/xhtml\"><table class=\"hl7__eu__lab__report\"><tr><th>Test</th><th>13-Mar-2025</th><th>Reference&#xA0;Range</th><th>Unit</th></tr><tr><td>Glucose [Mass/volume] in Blood</td><td>85.2</td><td>70 - 140</td><td></td><td>mg/dL</td></tr></table></div>"
        },
        "status": "final",
        "subject": {
          "reference": "urn:uuid:958fd844-fd80-4c2e-8fe4-a7b66260e191",
          "display": "Vincenza Porzio"
        },
        "effectiveDateTime": "2025-03-13T18:51:27Z"
      }
    },
    {
      "fullUrl": "urn:uuid:d573e7aa-cac6-4f6d-be4c-2bd20b6d57b6",
      "resource": {
        "resourceType": "Observation",
        "id": "d573e7aa-cac6-4f6d-be4c-2bd20b6d57b6",
        "meta": {
          "profile": [
            "http://hl7.eu/fhir/laboratory/StructureDefinition/Observation-resultslab-eu-lab"
          ]
        },
        "performer": [
          {
            "display": "The Central European Lab"
          }
        ],
        "category": [
          {
            "coding": [
              {
                "system": "http://terminology.hl7.org/CodeSystem/observation-category",
                "code": "laboratory"
              }
            ]
          }
        ],
        "code": {
          "coding": [
            {
              "code": "6299-2",
              "system": "http://loinc.org",
              "display": "Urea nitrogen [Mass/volume] in Blood"
            }
          ],
          "text": "Urea nitrogen [Mass/volume] in Blood"
        },
        "valueQuantity": {
          "system": "http://unitsofmeasure.org",
          "value": 7.2,
          "unit": "mg/dL",
          "code": "mg/dL"
        },
        "referenceRange": [
          {
            "low": {
              "value": 7,
              "code": "mg/dL",
              "system": "http://unitsofmeasure.org"
            }
          },
          {
            "high": {
              "value": 25,
              "code": "mg/dL",
              "system": "http://unitsofmeasure.org"
            }
          }
        ],
        "text": {
          "status": "generated",
          "div": "<div xmlns=\"http://www.w3.org/1999/xhtml\"><table class=\"hl7__eu__lab__report\"><tr><th>Test</th><th>13-Mar-2025</th><th>Reference&#xA0;Range</th><th>Unit</th></tr><tr><td>Urea nitrogen [Mass/volume] in Blood</td><td>7.2</td><td>7 - 25</td><td></td><td>mg/dL</td></tr></table></div>"
        },
        "status": "final",
        "subject": {
          "reference": "urn:uuid:958fd844-fd80-4c2e-8fe4-a7b66260e191",
          "display": "Vincenza Porzio"
        },
        "effectiveDateTime": "2025-03-13T18:51:27Z"
      }
    },
    {
      "fullUrl": "urn:uuid:449c61dd-2355-4f29-ab41-eecabd7a18bc",
      "resource": {
        "resourceType": "Observation",
        "id": "449c61dd-2355-4f29-ab41-eecabd7a18bc",
        "meta": {
          "profile": [
            "http://hl7.eu/fhir/laboratory/StructureDefinition/Observation-resultslab-eu-lab"
          ]
        },
        "performer": [
          {
            "display": "The Central European Lab"
          }
        ],
        "category": [
          {
            "coding": [
              {
                "system": "http://terminology.hl7.org/CodeSystem/observation-category",
                "code": "laboratory"
              }
            ]
          }
        ],
        "code": {
          "coding": [
            {
              "code": "38483-4",
              "system": "http://loinc.org",
              "display": "Creatinine [Mass/volume] in Blood"
            }
          ],
          "text": "Creatinine [Mass/volume] in Blood"
        },
        "valueQuantity": {
          "system": "http://unitsofmeasure.org",
          "value": 0.7,
          "unit": "mg/dL",
          "code": "mg/dL"
        },
        "referenceRange": [
          {
            "low": {
              "value": 0.6,
              "code": "mg/dL",
              "system": "http://unitsofmeasure.org"
            }
          },
          {
            "high": {
              "value": 1.1,
              "code": "mg/dL",
              "system": "http://unitsofmeasure.org"
            }
          }
        ],
        "text": {
          "status": "generated",
          "div": "<div xmlns=\"http://www.w3.org/1999/xhtml\"><table class=\"hl7__eu__lab__report\"><tr><th>Test</th><th>13-Mar-2025</th><th>Reference&#xA0;Range</th><th>Unit</th></tr><tr><td>Creatinine [Mass/volume] in Blood</td><td>0.7</td><td>0.6 - 1.1</td><td></td><td>mg/dL</td></tr></table></div>"
        },
        "status": "final",
        "subject": {
          "reference": "urn:uuid:958fd844-fd80-4c2e-8fe4-a7b66260e191",
          "display": "Vincenza Porzio"
        },
        "effectiveDateTime": "2025-03-13T18:51:27Z"
      }
    },
    {
      "fullUrl": "urn:uuid:f9b7f94a-0ea2-44bd-9ff9-a226d6b56c15",
      "resource": {
        "resourceType": "Observation",
        "id": "f9b7f94a-0ea2-44bd-9ff9-a226d6b56c15",
        "meta": {
          "profile": [
            "http://hl7.eu/fhir/laboratory/StructureDefinition/Observation-resultslab-eu-lab"
          ]
        },
        "performer": [
          {
            "display": "The Central European Lab"
          }
        ],
        "category": [
          {
            "coding": [
              {
                "system": "http://terminology.hl7.org/CodeSystem/observation-category",
                "code": "laboratory"
              }
            ]
          }
        ],
        "code": {
          "coding": [
            {
              "code": "49765-1",
              "system": "http://loinc.org",
              "display": "Calcium [Mass/volume] in Blood"
            }
          ],
          "text": "Calcium [Mass/volume] in Blood"
        },
        "valueQuantity": {
          "system": "http://unitsofmeasure.org",
          "value": 8.9,
          "unit": "mg/dL",
          "code": "mg/dL"
        },
        "referenceRange": [
          {
            "low": {
              "value": 8.5,
              "code": "mg/dL",
              "system": "http://unitsofmeasure.org"
            }
          },
          {
            "high": {
              "value": 10.4,
              "code": "mg/dL",
              "system": "http://unitsofmeasure.org"
            }
          }
        ],
        "text": {
          "status": "generated",
          "div": "<div xmlns=\"http://www.w3.org/1999/xhtml\"><table class=\"hl7__eu__lab__report\"><tr><th>Test</th><th>13-Mar-2025</th><th>Reference&#xA0;Range</th><th>Unit</th></tr><tr><td>Calcium [Mass/volume] in Blood</td><td>8.9</td><td>8.5 - 10.4</td><td></td><td>mg/dL</td></tr></table></div>"
        },
        "status": "final",
        "subject": {
          "reference": "urn:uuid:958fd844-fd80-4c2e-8fe4-a7b66260e191",
          "display": "Vincenza Porzio"
        },
        "effectiveDateTime": "2025-03-13T18:51:27Z"
      }
    },
    {
      "fullUrl": "urn:uuid:32465bef-0d30-46f7-9260-f1b8aae8ac9e",
      "resource": {
        "resourceType": "Observation",
        "id": "32465bef-0d30-46f7-9260-f1b8aae8ac9e",
        "meta": {
          "profile": [
            "http://hl7.eu/fhir/laboratory/StructureDefinition/Observation-resultslab-eu-lab"
          ]
        },
        "performer": [
          {
            "display": "The Central European Lab"
          }
        ],
        "category": [
          {
            "coding": [
              {
                "system": "http://terminology.hl7.org/CodeSystem/observation-category",
                "code": "laboratory"
              }
            ]
          }
        ],
        "code": {
          "coding": [
            {
              "code": "2947-0",
              "system": "http://loinc.org",
              "display": "Sodium [Moles/volume] in Blood"
            }
          ],
          "text": "Sodium [Moles/volume] in Blood"
        },
        "valueQuantity": {
          "system": "http://unitsofmeasure.org",
          "value": 141.7,
          "unit": "mmol/L",
          "code": "mmol/L"
        },
        "referenceRange": [
          {
            "low": {
              "value": 135,
              "code": "mmol/L",
              "system": "http://unitsofmeasure.org"
            }
          },
          {
            "high": {
              "value": 145,
              "code": "mmol/L",
              "system": "http://unitsofmeasure.org"
            }
          }
        ],
        "text": {
          "status": "generated",
          "div": "<div xmlns=\"http://www.w3.org/1999/xhtml\"><table class=\"hl7__eu__lab__report\"><tr><th>Test</th><th>13-Mar-2025</th><th>Reference&#xA0;Range</th><th>Unit</th></tr><tr><td>Sodium [Moles/volume] in Blood</td><td>141.7</td><td>135 - 145</td><td></td><td>mmol/L</td></tr></table></div>"
        },
        "status": "final",
        "subject": {
          "reference": "urn:uuid:958fd844-fd80-4c2e-8fe4-a7b66260e191",
          "display": "Vincenza Porzio"
        },
        "effectiveDateTime": "2025-03-13T18:51:27Z"
      }
    },
    {
      "fullUrl": "urn:uuid:6b570b2a-721e-4c67-97e5-ad505211ceb9",
      "resource": {
        "resourceType": "Observation",
        "id": "6b570b2a-721e-4c67-97e5-ad505211ceb9",
        "meta": {
          "profile": [
            "http://hl7.eu/fhir/laboratory/StructureDefinition/Observation-resultslab-eu-lab"
          ]
        },
        "performer": [
          {
            "display": "The Central European Lab"
          }
        ],
        "category": [
          {
            "coding": [
              {
                "system": "http://terminology.hl7.org/CodeSystem/observation-category",
                "code": "laboratory"
              }
            ]
          }
        ],
        "code": {
          "coding": [
            {
              "code": "6298-4",
              "system": "http://loinc.org",
              "display": "Potassium [Moles/volume] in Blood"
            }
          ],
          "text": "Potassium [Moles/volume] in Blood"
        },
        "valueQuantity": {
          "system": "http://unitsofmeasure.org",
          "value": 3.9,
          "unit": "mmol/L",
          "code": "mmol/L"
        },
        "referenceRange": [
          {
            "low": {
              "value": 3.5,
              "code": "mmol/L",
              "system": "http://unitsofmeasure.org"
            }
          },
          {
            "high": {
              "value": 5.1,
              "code": "mmol/L",
              "system": "http://unitsofmeasure.org"
            }
          }
        ],
        "text": {
          "status": "generated",
          "div": "<div xmlns=\"http://www.w3.org/1999/xhtml\"><table class=\"hl7__eu__lab__report\"><tr><th>Test</th><th>13-Mar-2025</th><th>Reference&#xA0;Range</th><th>Unit</th></tr><tr><td>Potassium [Moles/volume] in Blood</td><td>3.9</td><td>3.5 - 5.1</td><td></td><td>mmol/L</td></tr></table></div>"
        },
        "status": "final",
        "subject": {
          "reference": "urn:uuid:958fd844-fd80-4c2e-8fe4-a7b66260e191",
          "display": "Vincenza Porzio"
        },
        "effectiveDateTime": "2025-03-13T18:51:27Z"
      }
    },
    {
      "fullUrl": "urn:uuid:667433e0-b6c5-407f-8172-d19ef28d0bd8",
      "resource": {
        "resourceType": "Observation",
        "id": "667433e0-b6c5-407f-8172-d19ef28d0bd8",
        "meta": {
          "profile": [
            "http://hl7.eu/fhir/laboratory/StructureDefinition/Observation-resultslab-eu-lab"
          ]
        },
        "performer": [
          {
            "display": "The Central European Lab"
          }
        ],
        "category": [
          {
            "coding": [
              {
                "system": "http://terminology.hl7.org/CodeSystem/observation-category",
                "code": "laboratory"
              }
            ]
          }
        ],
        "code": {
          "coding": [
            {
              "code": "2069-3",
              "system": "http://loinc.org",
              "display": "Chloride [Moles/volume] in Blood"
            }
          ],
          "text": "Chloride [Moles/volume] in Blood"
        },
        "valueQuantity": {
          "system": "http://unitsofmeasure.org",
          "value": 103.1,
          "unit": "mmol/L",
          "code": "mmol/L"
        },
        "referenceRange": [
          {
            "low": {
              "value": 98,
              "code": "mmol/L",
              "system": "http://unitsofmeasure.org"
            }
          },
          {
            "high": {
              "value": 108,
              "code": "mmol/L",
              "system": "http://unitsofmeasure.org"
            }
          }
        ],
        "text": {
          "status": "generated",
          "div": "<div xmlns=\"http://www.w3.org/1999/xhtml\"><table class=\"hl7__eu__lab__report\"><tr><th>Test</th><th>13-Mar-2025</th><th>Reference&#xA0;Range</th><th>Unit</th></tr><tr><td>Chloride [Moles/volume] in Blood</td><td>103.1</td><td>98 - 108</td><td></td><td>mmol/L</td></tr></table></div>"
        },
        "status": "final",
        "subject": {
          "reference": "urn:uuid:958fd844-fd80-4c2e-8fe4-a7b66260e191",
          "display": "Vincenza Porzio"
        },
        "effectiveDateTime": "2025-03-13T18:51:27Z"
      }
    },
    {
      "fullUrl": "urn:uuid:e8260767-1ff7-4364-bd33-90ed91504410",
      "resource": {
        "resourceType": "Observation",
        "id": "e8260767-1ff7-4364-bd33-90ed91504410",
        "meta": {
          "profile": [
            "http://hl7.eu/fhir/laboratory/StructureDefinition/Observation-resultslab-eu-lab"
          ]
        },
        "performer": [
          {
            "display": "The Central European Lab"
          }
        ],
        "category": [
          {
            "coding": [
              {
                "system": "http://terminology.hl7.org/CodeSystem/observation-category",
                "code": "laboratory"
              }
            ]
          }
        ],
        "code": {
          "coding": [
            {
              "code": "20565-8",
              "system": "http://loinc.org",
              "display": "Carbon dioxide, total [Moles/volume] in Blood"
            }
          ],
          "text": "Carbon dioxide, total [Moles/volume] in Blood"
        },
        "valueQuantity": {
          "system": "http://unitsofmeasure.org",
          "value": 28.9,
          "unit": "mmol/L",
          "code": "mmol/L"
        },
        "referenceRange": [
          {
            "low": {
              "value": 22,
              "code": "mmol/L",
              "system": "http://unitsofmeasure.org"
            }
          },
          {
            "high": {
              "value": 29,
              "code": "mmol/L",
              "system": "http://unitsofmeasure.org"
            }
          }
        ],
        "text": {
          "status": "generated",
          "div": "<div xmlns=\"http://www.w3.org/1999/xhtml\"><table class=\"hl7__eu__lab__report\"><tr><th>Test</th><th>13-Mar-2025</th><th>Reference&#xA0;Range</th><th>Unit</th></tr><tr><td>Carbon dioxide, total [Moles/volume] in Blood</td><td>28.9</td><td>22 - 29</td><td></td><td>mmol/L</td></tr></table></div>"
        },
        "status": "final",
        "subject": {
          "reference": "urn:uuid:958fd844-fd80-4c2e-8fe4-a7b66260e191",
          "display": "Vincenza Porzio"
        },
        "effectiveDateTime": "2025-03-13T18:51:27Z"
      }
    },
    {
      "fullUrl": "urn:uuid:7e269dbf-3ec7-4d71-9175-d881ec7ea6cd",
      "resource": {
        "resourceType": "DeviceUseStatement",
        "id": "7e269dbf-3ec7-4d71-9175-d881ec7ea6cd",
        "meta": {
          "profile": [
            "http://hl7.eu/fhir/eps/StructureDefinition/deviceUseStatement-eu-eps"
          ]
        },
        "timingPeriod": {
          "start": "2024-01-12"
        },
        "text": {
          "status": "generated",
          "div": "<div xmlns=\"http://www.w3.org/1999/xhtml\"><table class=\"hl7__ips\"><tr><td>Home nebulizer (physical object)</td><td><span class=\"nb\">12-Jan-2024</span></td></tr></table></div>"
        },
        "status": "active",
        "device": {
          "reference": "urn:uuid:d241ec2e-31fe-49f5-bc12-910749d15b1f",
          "display": "Home nebulizer (physical object)"
        },
        "subject": {
          "reference": "urn:uuid:958fd844-fd80-4c2e-8fe4-a7b66260e191",
          "display": "Vincenza Porzio"
        }
      }
    },
    {
      "fullUrl": "urn:uuid:d241ec2e-31fe-49f5-bc12-910749d15b1f",
      "resource": {
        "resourceType": "Device",
        "id": "d241ec2e-31fe-49f5-bc12-910749d15b1f",
        "meta": {
          "profile": [
            "http://hl7.eu/fhir/eps/StructureDefinition/device-eu-eps"
          ]
        },
        "udiCarrier": [
          {
            "id": "(01)29007666720602(11)231222(17)490105(10)38123187031422291(21)77082"
          }
        ],
        "status": "active",
        "patient": {
          "reference": "urn:uuid:958fd844-fd80-4c2e-8fe4-a7b66260e191",
          "display": "Vincenza Porzio"
        },
        "type": {
          "coding": [
            {
              "code": "170615005",
              "system": "http://snomed.info/sct",
              "display": "Home nebulizer (physical object)"
            }
          ]
        }
      }
    },
    {
      "fullUrl": "urn:uuid:ae94fa0d-1473-42fb-9d92-6d1b59c7ed07",
      "resource": {
        "resourceType": "DeviceUseStatement",
        "id": "ae94fa0d-1473-42fb-9d92-6d1b59c7ed07",
        "meta": {
          "profile": [
            "http://hl7.eu/fhir/eps/StructureDefinition/deviceUseStatement-eu-eps"
          ]
        },
        "timingPeriod": {
          "start": "2019-02-07"
        },
        "text": {
          "status": "generated",
          "div": "<div xmlns=\"http://www.w3.org/1999/xhtml\"><table class=\"hl7__ips\"><tr><td>Blood glucose meter (physical object)</td><td><span class=\"nb\">07-Feb-2019</span></td></tr></table></div>"
        },
        "status": "active",
        "device": {
          "reference": "urn:uuid:d82ef9ee-5ff7-41c1-9fa8-3b63fd48a1ee",
          "display": "Blood glucose meter (physical object)"
        },
        "subject": {
          "reference": "urn:uuid:958fd844-fd80-4c2e-8fe4-a7b66260e191",
          "display": "Vincenza Porzio"
        }
      }
    },
    {
      "fullUrl": "urn:uuid:d82ef9ee-5ff7-41c1-9fa8-3b63fd48a1ee",
      "resource": {
        "resourceType": "Device",
        "id": "d82ef9ee-5ff7-41c1-9fa8-3b63fd48a1ee",
        "meta": {
          "profile": [
            "http://hl7.eu/fhir/eps/StructureDefinition/device-eu-eps"
          ]
        },
        "udiCarrier": [
          {
            "id": "(01)49123258644202(11)190117(17)440201(10)7566753067894(21)311733813"
          }
        ],
        "status": "active",
        "patient": {
          "reference": "urn:uuid:958fd844-fd80-4c2e-8fe4-a7b66260e191",
          "display": "Vincenza Porzio"
        },
        "type": {
          "coding": [
            {
              "code": "337414009",
              "system": "http://snomed.info/sct",
              "display": "Blood glucose meter (physical object)"
            }
          ]
        }
      }
    },
    {
      "fullUrl": "urn:uuid:1fe560db-2b45-4593-9711-b31885d54e20",
      "resource": {
        "resourceType": "DeviceUseStatement",
        "id": "1fe560db-2b45-4593-9711-b31885d54e20",
        "meta": {
          "profile": [
            "http://hl7.eu/fhir/eps/StructureDefinition/deviceUseStatement-eu-eps"
          ]
        },
        "timingPeriod": {
          "start": "2015-12-13"
        },
        "text": {
          "status": "generated",
          "div": "<div xmlns=\"http://www.w3.org/1999/xhtml\"><table class=\"hl7__ips\"><tr><td>Walker (physical object)</td><td><span class=\"nb\">13-Dec-2015</span></td></tr></table></div>"
        },
        "status": "active",
        "device": {
          "reference": "urn:uuid:1c9dadf2-328c-476f-b91c-0e6ca5788b30",
          "display": "Walker (physical object)"
        },
        "subject": {
          "reference": "urn:uuid:958fd844-fd80-4c2e-8fe4-a7b66260e191",
          "display": "Vincenza Porzio"
        }
      }
    },
    {
      "fullUrl": "urn:uuid:1c9dadf2-328c-476f-b91c-0e6ca5788b30",
      "resource": {
        "resourceType": "Device",
        "id": "1c9dadf2-328c-476f-b91c-0e6ca5788b30",
        "meta": {
          "profile": [
            "http://hl7.eu/fhir/eps/StructureDefinition/device-eu-eps"
          ]
        },
        "udiCarrier": [
          {
            "id": "(01)62862847724634(11)151122(17)401206(10)8487697(21)5361404315653749396"
          }
        ],
        "status": "active",
        "patient": {
          "reference": "urn:uuid:958fd844-fd80-4c2e-8fe4-a7b66260e191",
          "display": "Vincenza Porzio"
        },
        "type": {
          "coding": [
            {
              "code": "705406009",
              "system": "http://snomed.info/sct",
              "display": "Walker (physical object)"
            }
          ]
        }
      }
    },
    {
      "fullUrl": "urn:uuid:a93f108b-a87b-49f0-bc8b-553ad6a83c63",
      "resource": {
        "resourceType": "Device",
        "id": "a93f108b-a87b-49f0-bc8b-553ad6a83c63",
        "deviceName": [
          {
            "name": "SYNDERAI Synthetic Generator",
            "type": "manufacturer-name"
          }
        ],
        "version": [
          {
            "value": "5.0"
          }
        ],
        "text": {
          "status": "generated",
          "div": "<div xmlns=\"http://www.w3.org/1999/xhtml\">SYNDERAI Synthetic Generator v5.0</div>"
        },
        "status": "active\"",
        "distinctIdentifier": "synderai-generator-50",
        "manufacturer": "SYNDERAI Project"
      }
    },
    {
      "fullUrl": "urn:uuid:f01e9fa4-3d1b-4ef2-b8fe-d8c47c2fd1a7",
      "resource": {
        "resourceType": "Provenance",
        "id": "f01e9fa4-3d1b-4ef2-b8fe-d8c47c2fd1a7",
        "target": [
          {
            "reference": "Patient/958fd844-fd80-4c2e-8fe4-a7b66260e191"
          },
          {
            "reference": "Bundle/c392038f-4f19-4668-940d-1ab274b6a0e9"
          },
          {
            "reference": "Composition/8cee9fbc-4c27-4c6a-b8c5-cdf78dac8481"
          },
          {
            "reference": "PractitionerRole/cf9ba246-d6a9-4779-8fb9-f663c21c3121"
          },
          {
            "reference": "Organization/be62dbf4-15b0-4513-bde8-0ad4f4885052"
          },
          {
            "reference": "Practitioner/94c26147-9d11-4b42-99f2-dcbc53a445b4"
          }
        ],
        "activity": {
          "text": "Synthetic Example Data Generation"
        },
        "policy": [
          "https://synderai.net/synderai-synthetic-data-policy"
        ],
        "agent": [
          {
            "type": {
              "text": "author"
            },
            "who": {
              "reference": "Device/a93f108b-a87b-49f0-bc8b-553ad6a83c63"
            }
          }
        ],
        "reason": [
          {
            "text": "Interoperability Testing and Training (non-clinical use)"
          }
        ],
        "text": {
          "status": "generated",
          "div": "<div xmlns=\"http://www.w3.org/1999/xhtml\">Provenance for SYNDERAI Synthetic Example Data Resource</div>"
        },
        "recorded": "2025-03-13T18:51:27Z"
      }
    }
  ],
  "type": "document",
  "timestamp": "2025-03-13T18:51:27Z"
}
