<Bundle xmlns="http://hl7.org/fhir">
   <id value="dc8bfe6f-17cc-4c34-be30-53117485b700"/>
   <meta>
      <profile value="http://hl7.eu/fhir/eps/StructureDefinition/bundle-eu-eps"/>
   </meta>
   <identifier>
      <system value="urn:oid:2.16.840.1.113883.2.51.999"/>
      <value value="f198e98d-345c-4620-992f-14ad546e8de0"/>
      <assigner>
         <display value="HL7 Europe"/>
      </assigner>
   </identifier>
   <type value="document"/>
   <timestamp value="2025-07-10T19:05:43Z"/>
   <entry>
      <fullUrl value="urn:uuid:5a4ad858-135f-4dbc-9e8e-05e187fa79db"/>
      <resource>
         <Composition>
            <id value="5a4ad858-135f-4dbc-9e8e-05e187fa79db"/>
            <meta>
               <profile value="http://hl7.eu/fhir/eps/StructureDefinition/composition-eu-eps"/>
               <security>
                  <system value="http://terminology.hl7.org/CodeSystem/v3-ActReason"/>
                  <code value="HTEST"/>
               </security>
               <security>
                  <system value="http://terminology.hl7.org/CodeSystem/v3-ActReason"/>
                  <code value="TRAIN"/>
               </security>
               <tag>
                  <system value="https://synderai.net/fhir/CodeSystem/tags"/>
                  <code value="synthetic"/>
                  <display value="SYNDERAI Synthetic data"/>
               </tag>
            </meta>
            <identifier>
               <system value="urn:oid:2.16.840.1.113883.2.51.999"/>
               <value value="366dcb6a-a369-4de4-8c16-4f28d98dfbbe"/>
               <assigner>
                  <display value="HL7 Europe"/>
               </assigner>
            </identifier>
            <status value="final"/>
            <type>
               <coding>
                  <system value="http://loinc.org"/>
                  <code value="60591-5"/>
                  <display value="Patient summary Document"/>
               </coding>
               <text value="Patient summary Document"/>
            </type>
            <subject>
               <reference value="urn:uuid:7b7f01f7-be68-4417-831d-aa53d674b363"/>
               <display value="Marthe Gallet"/>
            </subject>
            <date value="2025-07-10"/>
            <author>
               <reference value="urn:uuid:71ab422e-7d4d-4abc-9ad8-3af43210ffc4"/>
            </author>
            <title value="European Patient Summary"/>
            <confidentiality value="N"/>
            <custodian>
               <reference value="urn:uuid:93f52fbf-e555-4b8d-a7f8-88245b46211b"/>
            </custodian>
            <section>
               <title value="Problem list"/>
               <code>
                  <coding>
                     <system value="http://loinc.org"/>
                     <code value="11450-4"/>
                     <display value="Problem list - Reported"/>
                  </coding>
               </code>
               <text>
                  <status value="generated"/>
                  <div xmlns="http://www.w3.org/1999/xhtml">
                     <table class="hl7__ips">
                        <tr>
                           <th>Condition</th>
                           <th>Onset Date</th>
                           <th>Status</th>
                        </tr>
                        <tr>
                           <td>Chronic kidney disease stage 2</td>
                           <td>
                              <span class="nb">11-Mar-2021</span>
                           </td>
                           <td>active</td>
                        </tr>
                        <tr>
                           <td>Microalbuminuria due to type 2 diabetes mellitus</td>
                           <td>
                              <span class="nb">11-Mar-2021</span>
                           </td>
                           <td>active</td>
                        </tr>
                        <tr>
                           <td>Disorder of kidney due to diabetes mellitus</td>
                           <td>
                              <span class="nb">01-Jan-2009</span>
                           </td>
                           <td>active</td>
                        </tr>
                        <tr>
                           <td>Chronic kidney disease stage 1</td>
                           <td>
                              <span class="nb">01-Jan-2009</span>
                           </td>
                           <td>active</td>
                        </tr>
                        <tr>
                           <td>Hyperlipidemia</td>
                           <td>
                              <span class="nb">20-Sep-1990</span>
                           </td>
                           <td>active</td>
                        </tr>
                        <tr>
                           <td>Essential hypertension</td>
                           <td>
                              <span class="nb">05-Aug-1982</span>
                           </td>
                           <td>active</td>
                        </tr>
                     </table>
                  </div>
               </text>
               <entry>
                  <reference value="urn:uuid:dd646c92-5da5-414b-9868-733e4736888d"/>
               </entry>
               <entry>
                  <reference value="urn:uuid:b310c9bf-6f41-4b4e-81a6-34cdf3c5f1b3"/>
               </entry>
               <entry>
                  <reference value="urn:uuid:9dc976a1-2561-4159-9133-87bc8a1c6192"/>
               </entry>
               <entry>
                  <reference value="urn:uuid:4569f54e-a657-4977-8a00-2ac873bf97b7"/>
               </entry>
               <entry>
                  <reference value="urn:uuid:06c08ef3-7b0a-40f6-8599-6485ee027144"/>
               </entry>
               <entry>
                  <reference value="urn:uuid:4a0da6e1-3cfa-4163-bbd5-b459f9ab5896"/>
               </entry>
            </section>
            <section>
               <title value="Medication list"/>
               <code>
                  <coding>
                     <system value="http://loinc.org"/>
                     <code value="10160-0"/>
                     <display value="History of Medication use Narrative"/>
                  </coding>
               </code>
               <text>
                  <status value="generated"/>
                  <div xmlns="http://www.w3.org/1999/xhtml">
                     <table class="hl7__ips">
                        <tr>
                           <th>Medication</th>
                           <th>Since</th>
                           <th>Form</th>
                           <th>Dosage</th>
                           <th>Reason</th>
                        </tr>
                        <tr>
                           <td>Amlodipine (as amlodipine besylate) 2.5 mg oral tablet</td>
                           <td>
                              <span class="nb">2025-07-10</span>
                           </td>
                           <td>-</td>
                           <td>1 tablet (2.5 mg) by mouth once daily</td>
                           <td>Essential hypertension (disorder)</td>
                        </tr>
                        <tr>
                           <td>Lisinopril 10 mg oral tablet</td>
                           <td>
                              <span class="nb">2025-07-10</span>
                           </td>
                           <td>-</td>
                           <td>1 tablet (10 mg) by mouth once daily</td>
                           <td>Essential hypertension (disorder)</td>
                        </tr>
                        <tr>
                           <td>Simvastatin 10 mg oral tablet</td>
                           <td>
                              <span class="nb">2025-04-04</span>
                           </td>
                           <td>-</td>
                           <td>1 tablet (10 mg) by mouth once daily</td>
                           <td>Hyperlipidemia</td>
                        </tr>
                     </table>
                  </div>
               </text>
               <entry>
                  <reference value="urn:uuid:55dd228c-1d0c-487b-ac02-33307f79590b"/>
               </entry>
               <entry>
                  <reference value="urn:uuid:2794a1e7-281a-45a6-a170-421c1a293569"/>
               </entry>
               <entry>
                  <reference value="urn:uuid:a1787277-c3ea-4a0d-bbbc-364a08a62ece"/>
               </entry>
            </section>
            <section>
               <title value="Immunizations list"/>
               <code>
                  <coding>
                     <system value="http://loinc.org"/>
                     <code value="11369-6"/>
                     <display value="History of Immunization note"/>
                  </coding>
               </code>
               <text>
                  <status value="generated"/>
                  <div xmlns="http://www.w3.org/1999/xhtml">
                     <table class="hl7__ips">
                        <tr>
                           <th>Vaccine</th>
                           <th>Date</th>
                        </tr>
                        <tr>
                           <td>Influenza virus antigen only vaccine product</td>
                           <td>
                              <span class="nb">05-Dec-2024</span>
                           </td>
                        </tr>
                        <tr>
                           <td>Clostridium tetani toxoid antigen adsorbed only vaccine product</td>
                           <td>
                              <span class="nb">19-Dec-2019</span>
                           </td>
                        </tr>
                     </table>
                  </div>
               </text>
               <entry>
                  <reference value="urn:uuid:5624a5da-63cf-460d-b6ef-0c33d783d235"/>
               </entry>
               <entry>
                  <reference value="urn:uuid:bdaabbfe-0529-4293-8c56-8b1e55e5d8a5"/>
               </entry>
            </section>
            <section>
               <title value="Procedure History list"/>
               <code>
                  <coding>
                     <system value="http://loinc.org"/>
                     <code value="47519-4"/>
                     <display value="History of Procedures Document"/>
                  </coding>
               </code>
               <text>
                  <status value="generated"/>
                  <div xmlns="http://www.w3.org/1999/xhtml">
                     <table class="hl7__ips">
                        <tr>
                           <th>Procedure</th>
                           <th>Date</th>
                           <th>Reason</th>
                        </tr>
                        <tr>
                           <td>Depression screening</td>
                           <td>
                              <span class="nb">19-Dec-2024</span>
                           </td>
                           <td>-</td>
                        </tr>
                        <tr>
                           <td>Medication reconciliation</td>
                           <td>
                              <span class="nb">19-Dec-2024</span>
                           </td>
                           <td>-</td>
                        </tr>
                        <tr>
                           <td>Assessment of health and social care needs</td>
                           <td>
                              <span class="nb">19-Dec-2024</span>
                           </td>
                           <td>-</td>
                        </tr>
                        <tr>
                           <td>Depression screening using Patient Health Questionnaire Two-Item score (procedure)</td>
                           <td>
                              <span class="nb">19-Dec-2024</span>
                           </td>
                           <td>-</td>
                        </tr>
                        <tr>
                           <td>Assessment using Morse Fall Scale</td>
                           <td>
                              <span class="nb">05-Dec-2024</span>
                           </td>
                           <td>-</td>
                        </tr>
                        <tr>
                           <td>Assessment using AUDIT-C (Alcohol Use Disorders Identification Test - Consumption)</td>
                           <td>
                              <span class="nb">05-Dec-2024</span>
                           </td>
                           <td>-</td>
                        </tr>
                        <tr>
                           <td>Assessment of substance use</td>
                           <td>
                              <span class="nb">05-Dec-2024</span>
                           </td>
                           <td>-</td>
                        </tr>
                        <tr>
                           <td>Suture open wound</td>
                           <td>
                              <span class="nb">25-Apr-2019</span>
                           </td>
                           <td>Facial laceration</td>
                        </tr>
                        <tr>
                           <td>Referral to home health care service</td>
                           <td>
                              <span class="nb">10-Mar-2016</span>
                           </td>
                           <td>-</td>
                        </tr>
                     </table>
                  </div>
               </text>
               <entry>
                  <reference value="urn:uuid:bfde25c0-9a82-4c20-9aa3-85aebac9c965"/>
               </entry>
               <entry>
                  <reference value="urn:uuid:e599d9a8-7292-4002-9559-da84b1544904"/>
               </entry>
               <entry>
                  <reference value="urn:uuid:d5c50553-4875-45ac-b444-0c46ccdf9460"/>
               </entry>
               <entry>
                  <reference value="urn:uuid:c299ed5d-0030-42a3-a7ad-6fffeb140751"/>
               </entry>
               <entry>
                  <reference value="urn:uuid:148d4edc-966f-4184-83e5-4fd09a8a8c93"/>
               </entry>
               <entry>
                  <reference value="urn:uuid:f8ed0cdd-6a4b-4e97-ad22-0c900a4e4ae9"/>
               </entry>
               <entry>
                  <reference value="urn:uuid:4270be4b-7a65-468b-8b4d-c262c1fd0daf"/>
               </entry>
               <entry>
                  <reference value="urn:uuid:7edee3fb-5c3f-4181-8f33-26385c4ec399"/>
               </entry>
               <entry>
                  <reference value="urn:uuid:6d1e72dc-8c91-4ce6-a367-9333addb7acd"/>
               </entry>
            </section>
            <section>
               <title value="Allergies and Intolerances"/>
               <code>
                  <coding>
                     <system value="http://loinc.org"/>
                     <code value="48765-2"/>
                     <display value="Allergies and adverse reactions Document"/>
                  </coding>
               </code>
               <text>
                  <status value="generated"/>
                  <div xmlns="http://www.w3.org/1999/xhtml">
                     <table class="hl7__ips">
                        <tr>
                           <th>Allergy/Intolerance</th>
                           <th>Onset Date</th>
                           <th>Status</th>
                           <th>Type</th>
                           <th>Reaction</th>
                        </tr>
                        <tr>
                           <td/>
                           <td>?</td>
                           <td>active</td>
                           <td>?</td>
                           <td/>
                        </tr>
                     </table>
                  </div>
               </text>
               <entry>
                  <reference value="urn:uuid:d8b1a703-21c6-4387-9ec9-e71528e5da15"/>
               </entry>
            </section>
            <section>
               <title value="Care Plan"/>
               <code>
                  <coding>
                     <system value="http://loinc.org"/>
                     <code value="18776-5"/>
                     <display value="Plan of care note"/>
                  </coding>
               </code>
               <text>
                  <status value="generated"/>
                  <div xmlns="http://www.w3.org/1999/xhtml">
                     <table class="hl7__ips">
                        <tr>
                           <th>Active Planned Care / Goals</th>
                           <th>Start Date</th>
                           <th>Reason</th>
                        </tr>
                        <tr>
                           <td>Hyperlipidemia clinical management plan</td>
                           <td>
                              <span class="nb">11-Oct-1990</span>
                           </td>
                           <td>Hyperlipidemia</td>
                        </tr>
                        <tr>
                           <td>
                              <ul>
                                 <li>Achieve and maintain LDL cholesterol below 70 mg/dL to reduce cardiovascular risk.</li>
                                 <li>Keep total cholesterol below 200 mg/dL.</li>
                                 <li>Keep triglycerides below 150 mg/dL.</li>
                                 <li>Maintain HDL cholesterol above 50 mg/dL.</li>
                              </ul>
                           </td>
                           <td/>
                           <td/>
                        </tr>
                        <tr>
                           <td>Lifestyle education regarding hypertension</td>
                           <td>
                              <span class="nb">05-Aug-1982</span>
                           </td>
                           <td>Essential hypertension (disorder)</td>
                        </tr>
                        <tr>
                           <td>
                              <ul>
                                 <li>Maintain blood pressure below 130/80 mmHg to reduce risk of kidney and cardiovascular complications.</li>
                                 <li>Patient will demonstrate understanding of lifestyle modifications for hypertension, including dietary sodium reduction, regular physical activity, and medication adherence.</li>
                              </ul>
                           </td>
                           <td/>
                           <td/>
                        </tr>
                        <tr>
                           <th>Immunization Recommendation</th>
                           <th>Due Date</th>
                           <th>Reason</th>
                        </tr>
                        <tr>
                           <td>Vaccine product containing only Influenza virus antigen (medicinal product)</td>
                           <td>
                              <span class="nb">01-Oct-2025</span>
                           </td>
                           <td>Annual seasonal influenza vaccination</td>
                        </tr>
                     </table>
                  </div>
               </text>
               <entry>
                  <reference value="urn:uuid:d78b5ed9-cb5f-4854-86ce-acf65dc0a3dc"/>
               </entry>
               <entry>
                  <reference value="urn:uuid:a163c73a-4f59-4c6b-a51f-107e446d5d32"/>
               </entry>
               <entry>
                  <reference value="urn:uuid:65b6d4f1-7b67-4dca-9eb1-4e62986c8a5e"/>
               </entry>
            </section>
            <section>
               <title value="Vital Signs"/>
               <code>
                  <coding>
                     <system value="http://loinc.org"/>
                     <code value="8716-3"/>
                     <display value="Vital signs note"/>
                  </coding>
               </code>
               <text>
                  <status value="generated"/>
                  <div xmlns="http://www.w3.org/1999/xhtml">
                     <table class="hl7__ips">
                        <tr>
                           <th>Vital Signs</th>
                           <th>2025-07-10</th>
                           <th>2025-04-03</th>
                        </tr>
                        <tr>
                           <td>Body Height</td>
                           <td>154.6 cm</td>
                           <td>154.6 cm</td>
                        </tr>
                        <tr>
                           <td>Pain severity - 0-10 verbal numeric rating [Score] - Reported</td>
                           <td>2 {score}</td>
                           <td>4 {score}</td>
                        </tr>
                        <tr>
                           <td>Body Weight</td>
                           <td>72.5 kg</td>
                           <td>72.5 kg</td>
                        </tr>
                        <tr>
                           <td>Body mass index (BMI) [Ratio]</td>
                           <td>30.3 kg/m2</td>
                           <td>30.3 kg/m2</td>
                        </tr>
                        <tr>
                           <td>Diastolic Blood Pressure</td>
                           <td>70 mm[Hg]</td>
                           <td>68 mm[Hg]</td>
                        </tr>
                        <tr>
                           <td>Systolic Blood Pressure</td>
                           <td>113 mm[Hg]</td>
                           <td>116 mm[Hg]</td>
                        </tr>
                        <tr>
                           <td>Heart rate</td>
                           <td>77 /min</td>
                           <td>97 /min</td>
                        </tr>
                        <tr>
                           <td>Respiratory rate</td>
                           <td>13 /min</td>
                           <td>15 /min</td>
                        </tr>
                     </table>
                  </div>
               </text>
               <entry>
                  <reference value="urn:uuid:e432a4e0-1697-4ec8-97ea-223006e053ef"/>
               </entry>
               <entry>
                  <reference value="urn:uuid:c9ce231a-118b-4ff7-abb3-411a20999487"/>
               </entry>
               <entry>
                  <reference value="urn:uuid:a0ef5cbc-3bce-4dab-bf94-fe07d4fc7660"/>
               </entry>
               <entry>
                  <reference value="urn:uuid:1c9d532f-9e7e-4cf4-ae1a-a5141f67bc78"/>
               </entry>
               <entry>
                  <reference value="urn:uuid:3c9de288-4c38-46b6-8b14-f8d444a4d220"/>
               </entry>
               <entry>
                  <reference value="urn:uuid:5a4ffcc4-0567-48e4-a0a1-02f947cc89d1"/>
               </entry>
               <entry>
                  <reference value="urn:uuid:f1ffe6ee-a4cf-4c8b-b1cd-ad195363a365"/>
               </entry>
               <entry>
                  <reference value="urn:uuid:b52e8121-76c0-47a9-871f-155794dc14cb"/>
               </entry>
               <entry>
                  <reference value="urn:uuid:c6b793e8-b793-42f9-a02c-2d9442bde8ab"/>
               </entry>
               <entry>
                  <reference value="urn:uuid:b8972ec5-8435-4967-8533-6a680a7a389f"/>
               </entry>
               <entry>
                  <reference value="urn:uuid:b46cdb9c-4e90-4ecc-8f25-9511d6461105"/>
               </entry>
               <entry>
                  <reference value="urn:uuid:255072f3-dcb0-4305-a486-7f22b120ed01"/>
               </entry>
               <entry>
                  <reference value="urn:uuid:ff22f270-8652-429e-bcf3-0846d80179a7"/>
               </entry>
               <entry>
                  <reference value="urn:uuid:1fc4296c-21f9-47c4-8955-e107147ff6df"/>
               </entry>
               <entry>
                  <reference value="urn:uuid:ae322e1d-6633-4e77-861a-14415d0010cf"/>
               </entry>
               <entry>
                  <reference value="urn:uuid:f35667e5-c9ee-433b-8072-97ac5dd0c9ff"/>
               </entry>
            </section>
            <section>
               <title value="Relevant diagnostic tests/laboratory data"/>
               <code>
                  <coding>
                     <system value="http://loinc.org"/>
                     <code value="30954-2"/>
                     <display value="Relevant diagnostic tests/laboratory data note"/>
                  </coding>
               </code>
               <text>
                  <status value="generated"/>
                  <div xmlns="http://www.w3.org/1999/xhtml">
                     <table class="hl7__ips">
                        <table class="hl7__ips">
                           <thead>
                              <tr>
                                 <th>Recent Lab Observations</th>
                                 <th>10-JUL-2025</th>
                                 <th>Reference Range</th>
                                 <th>Unit</th>
                              </tr>
                           </thead>
                           <tbody>
                              <tr>
                                 <td>Glucose [Mass/volume] in Serum or Plasma</td>
                                 <td>76.4</td>
                                 <td>70 - 140</td>
                                 <td>mg/dL</td>
                              </tr>
                              <tr>
                                 <td>Urea nitrogen [Mass/volume] in Serum or Plasma</td>
                                 <td>16.7</td>
                                 <td>7 - 50</td>
                                 <td>mg/dL</td>
                              </tr>
                              <tr>
                                 <td>Creatinine [Mass/volume] in Serum or Plasma</td>
                                 <td>
                                    <strong>2.1 H</strong>
                                 </td>
                                 <td>0.6 - 1.1</td>
                                 <td>mg/dL</td>
                              </tr>
                              <tr>
                                 <td>Calcium [Mass/volume] in Serum or Plasma</td>
                                 <td>9.5</td>
                                 <td>8.5 - 10.5</td>
                                 <td>mg/dL</td>
                              </tr>
                              <tr>
                                 <td>Sodium [Moles/volume] in Serum or Plasma</td>
                                 <td>143.6</td>
                                 <td>135 - 145</td>
                                 <td>mmol/L</td>
                              </tr>
                              <tr>
                                 <td>Potassium [Moles/volume] in Serum or Plasma</td>
                                 <td>4.1</td>
                                 <td>3.5 - 5.1</td>
                                 <td>mmol/L</td>
                              </tr>
                              <tr>
                                 <td>Chloride [Moles/volume] in Serum or Plasma</td>
                                 <td>102.5</td>
                                 <td>98 - 108</td>
                                 <td>mmol/L</td>
                              </tr>
                              <tr>
                                 <td>Carbon dioxide, total [Moles/volume] in Serum or Plasma</td>
                                 <td>
                                    <strong>21.0 L</strong>
                                 </td>
                                 <td>22 - 32</td>
                                 <td>mmol/L</td>
                              </tr>
                              <tr>
                                 <td>Appearance of Urine</td>
                                 <td>Cloudy urine</td>
                                 <td/>
                                 <td/>
                              </tr>
                              <tr>
                                 <td>Odor of Urine</td>
                                 <td>Urine smell ammoniacal</td>
                                 <td/>
                                 <td/>
                              </tr>
                              <tr>
                                 <td>Clarity of Urine</td>
                                 <td>Translucent</td>
                                 <td/>
                                 <td/>
                              </tr>
                              <tr>
                                 <td>Color of Urine</td>
                                 <td>Brown color</td>
                                 <td/>
                                 <td/>
                              </tr>
                              <tr>
                                 <td>Glucose [Mass/volume] in Urine by Test strip</td>
                                 <td>
                                    <strong>1.8 H</strong>
                                 </td>
                                 <td>0.8 - 0</td>
                                 <td>mg/dL</td>
                              </tr>
                              <tr>
                                 <td>Glucose [Presence] in Urine by Test strip</td>
                                 <td>++</td>
                                 <td/>
                                 <td/>
                              </tr>
                              <tr>
                                 <td>Bilirubin.total [Mass/volume] in Urine by Test strip</td>
                                 <td>0.8</td>
                                 <td>0 - 1</td>
                                 <td>mg/dL</td>
                              </tr>
                              <tr>
                                 <td>Bilirubin.total [Presence] in Urine by Test strip</td>
                                 <td>Finding of bilirubin in urine</td>
                                 <td/>
                                 <td/>
                              </tr>
                              <tr>
                                 <td>Ketones [Mass/volume] in Urine by Test strip</td>
                                 <td>12.0</td>
                                 <td>0 - 20</td>
                                 <td>mg/dL</td>
                              </tr>
                              <tr>
                                 <td>Ketones [Presence] in Urine by Test strip</td>
                                 <td>Urine ketone test = +</td>
                                 <td/>
                                 <td/>
                              </tr>
                              <tr>
                                 <td>Specific gravity of Urine by Test strip</td>
                                 <td>
                                    <strong>1.0 L</strong>
                                 </td>
                                 <td>1.01 - 1.03</td>
                                 <td>{nominal}</td>
                              </tr>
                              <tr>
                                 <td>pH of Urine by Test strip</td>
                                 <td>6.0</td>
                                 <td>4.6 - 7</td>
                                 <td>pH</td>
                              </tr>
                              <tr>
                                 <td>Protein [Mass/volume] in Urine by Test strip</td>
                                 <td>
                                    <strong>223.4 H</strong>
                                 </td>
                                 <td>0 - 15</td>
                                 <td>mg/dL</td>
                              </tr>
                              <tr>
                                 <td>Protein [Presence] in Urine by Test strip</td>
                                 <td>Urine protein test = ++</td>
                                 <td/>
                                 <td/>
                              </tr>
                              <tr>
                                 <td>Nitrite [Presence] in Urine by Test strip</td>
                                 <td>Urine nitrite negative</td>
                                 <td/>
                                 <td/>
                              </tr>
                              <tr>
                                 <td>Hemoglobin [Presence] in Urine by Test strip</td>
                                 <td>Urine blood test = negative</td>
                                 <td/>
                                 <td/>
                              </tr>
                              <tr>
                                 <td>Leukocyte esterase [Presence] in Urine by Test strip</td>
                                 <td>Urine leukocyte test negative</td>
                                 <td/>
                                 <td/>
                              </tr>
                           </tbody>
                        </table>
                     </table>
                  </div>
               </text>
               <entry>
                  <reference value="urn:uuid:eb2d70b0-e41a-4af0-ba91-68defa1b4005"/>
               </entry>
               <entry>
                  <reference value="urn:uuid:ebe48ef5-34af-42c8-bd30-f3f16cf6b596"/>
               </entry>
               <entry>
                  <reference value="urn:uuid:9c949798-c0c5-4a6c-917c-79e21fc16819"/>
               </entry>
               <entry>
                  <reference value="urn:uuid:ee91dc4b-04da-4d0a-a804-e78279df820e"/>
               </entry>
               <entry>
                  <reference value="urn:uuid:6abadebe-8eb7-432d-9a7b-22bd0aecfc6a"/>
               </entry>
               <entry>
                  <reference value="urn:uuid:4a0da1b5-1496-4213-8006-ee0152df4207"/>
               </entry>
               <entry>
                  <reference value="urn:uuid:d04cece5-a81c-4d89-b643-b6cea92e2fb8"/>
               </entry>
               <entry>
                  <reference value="urn:uuid:6902e8fd-650b-4cc0-96f5-23077e4cdc97"/>
               </entry>
               <entry>
                  <reference value="urn:uuid:945a601e-2491-4524-be3b-d48b713fab1a"/>
               </entry>
               <entry>
                  <reference value="urn:uuid:b09165f8-0d29-4ac5-8217-7f585a969de3"/>
               </entry>
               <entry>
                  <reference value="urn:uuid:80e89271-576f-4c8c-98df-725ccd226403"/>
               </entry>
               <entry>
                  <reference value="urn:uuid:43dba35c-bf11-42ef-b6a3-8ef2712c0704"/>
               </entry>
               <entry>
                  <reference value="urn:uuid:91d53a3a-5b5d-482b-9a2f-b95f292dba7b"/>
               </entry>
               <entry>
                  <reference value="urn:uuid:a9c9e1ed-384a-4e64-ad48-d828f4b526c8"/>
               </entry>
               <entry>
                  <reference value="urn:uuid:e0cc712c-39a7-41f2-a978-14342ceaad2a"/>
               </entry>
               <entry>
                  <reference value="urn:uuid:8e7f43a5-6243-4053-b986-a37121c552e0"/>
               </entry>
               <entry>
                  <reference value="urn:uuid:91c92c0f-3f4a-4115-a385-d2dbc9006212"/>
               </entry>
               <entry>
                  <reference value="urn:uuid:db219039-890b-41d8-883b-2851e6f25c30"/>
               </entry>
               <entry>
                  <reference value="urn:uuid:27a264f9-b421-40fa-8544-8debbf9e841d"/>
               </entry>
               <entry>
                  <reference value="urn:uuid:53b51cde-cc3f-4862-806a-1248cc86072c"/>
               </entry>
               <entry>
                  <reference value="urn:uuid:f7340d3a-5646-4135-b195-d3c8efce421d"/>
               </entry>
               <entry>
                  <reference value="urn:uuid:1c82083f-26ab-4927-9b58-847bd0a2fb72"/>
               </entry>
               <entry>
                  <reference value="urn:uuid:e8d27cb7-6468-4042-bdc8-f1afdd6e5b71"/>
               </entry>
               <entry>
                  <reference value="urn:uuid:67a6fbf5-b96e-49e6-aa19-02c67425f5c0"/>
               </entry>
               <entry>
                  <reference value="urn:uuid:a2a9d01e-5170-4c15-b72c-7af3c2626402"/>
               </entry>
            </section>
         </Composition>
      </resource>
   </entry>
   <entry>
      <fullUrl value="urn:uuid:7b7f01f7-be68-4417-831d-aa53d674b363"/>
      <resource>
         <Patient>
            <id value="7b7f01f7-be68-4417-831d-aa53d674b363"/>
            <meta>
               <profile value="http://hl7.eu/fhir/eps/StructureDefinition/patient-eu-eps"/>
               <security>
                  <system value="http://terminology.hl7.org/CodeSystem/v3-ActReason"/>
                  <code value="HTEST"/>
               </security>
               <security>
                  <system value="http://terminology.hl7.org/CodeSystem/v3-ActReason"/>
                  <code value="TRAIN"/>
               </security>
               <tag>
                  <system value="https://synderai.net/fhir/CodeSystem/tags"/>
                  <code value="synthetic"/>
                  <display value="SYNDERAI Synthetic data"/>
               </tag>
            </meta>
            <text>
               <status value="generated"/>
               <div xmlns="http://www.w3.org/1999/xhtml">
                  <table class="hl7__ips">
                     <tr>
                        <td>Marthe Gallet</td>
                        <td>female</td>
                        <td>29-Oct-1950</td>
                     </tr>
                  </table>
               </div>
            </text>
            <extension url="http://hl7.org/fhir/StructureDefinition/patient-nationality">
               <valueCodeableConcept>
                  <coding>
                     <system value="http://hl7.org/fhir/ValueSet/country"/>
                     <code value="FR"/>
                  </coding>
               </valueCodeableConcept>
            </extension>
            <identifier>
               <type>
                  <coding>
                     <system value="http://terminology.hl7.org/CodeSystem/v2-0203"/>
                     <code value="PT"/>
                  </coding>
               </type>
               <system value="http://ec.europa.eu/identifier/eci"/>
               <value value="9444-947487-6"/>
            </identifier>
            <identifier>
               <type>
                  <coding>
                     <system value="http://terminology.hl7.org/CodeSystem/v2-0203"/>
                     <code value="MR"/>
                  </coding>
               </type>
               <system value="http://local.setting.eu/identifier"/>
               <value value="854228d5-a476-2d9c-a1d7-c3202375a617"/>
            </identifier>
            <name>
               <family value="Gallet"/>
            </name>
            <name>
               <given value="Marthe"/>
            </name>
            <name>
               <text value="Marthe Gallet"/>
            </name>
            <telecom>
               <system value="phone"/>
               <value value="+33 1 70 99 82 74"/>
            </telecom>
            <gender value="female"/>
            <birthDate value="1950-10-29"/>
            <address>
               <use value="home"/>
               <type value="physical"/>
               <line value="3, rue Emmanuel Goncalves"/>
               <city value="Briand"/>
               <postalCode value="49490"/>
               <country value="France"/>
            </address>
         </Patient>
      </resource>
   </entry>
   <entry>
      <fullUrl value="urn:uuid:71ab422e-7d4d-4abc-9ad8-3af43210ffc4"/>
      <resource>
         <PractitionerRole>
            <id value="71ab422e-7d4d-4abc-9ad8-3af43210ffc4"/>
            <meta>
               <profile value="http://hl7.eu/fhir/base/StructureDefinition/practitionerRole-eu"/>
            </meta>
            <text>
               <status value="generated"/>
               <div xmlns="http://www.w3.org/1999/xhtml">
                  <table class="hl7__ips">Provider Role Id 71ab422e-7d4d-4abc-9ad8-3af43210ffc4</table>
               </div>
            </text>
            <practitioner>
               <reference value="urn:uuid:f79aeddd-18b9-46fb-b721-e49c9342b392"/>
            </practitioner>
            <organization>
               <reference value="urn:uuid:93f52fbf-e555-4b8d-a7f8-88245b46211b"/>
            </organization>
         </PractitionerRole>
      </resource>
   </entry>
   <entry>
      <fullUrl value="urn:uuid:f79aeddd-18b9-46fb-b721-e49c9342b392"/>
      <resource>
         <Practitioner>
            <id value="f79aeddd-18b9-46fb-b721-e49c9342b392"/>
            <meta>
               <profile value="http://hl7.eu/fhir/base/StructureDefinition/practitioner-eu"/>
            </meta>
            <text>
               <status value="generated"/>
               <div xmlns="http://www.w3.org/1999/xhtml">
                  <table class="hl7__ips">Dr. Hel Ping</table>
               </div>
            </text>
            <name>
               <family value="Ping"/>
               <given value="Hel"/>
               <prefix value="Dr."/>
            </name>
         </Practitioner>
      </resource>
   </entry>
   <entry>
      <fullUrl value="urn:uuid:93f52fbf-e555-4b8d-a7f8-88245b46211b"/>
      <resource>
         <Organization>
            <id value="93f52fbf-e555-4b8d-a7f8-88245b46211b"/>
            <meta>
               <profile value="http://hl7.eu/fhir/base/StructureDefinition/organization-eu"/>
            </meta>
            <text>
               <status value="generated"/>
               <div xmlns="http://www.w3.org/1999/xhtml">
                  <table class="hl7__ips">CHU d'Angers</table>
               </div>
            </text>
            <identifier>
               <system value="urn:oid:2.16.840.1.113883.2.51.999"/>
               <value value="ba321cdf-9815-4fc8-b6df-12ecd480b21e"/>
               <assigner>
                  <display value="HL7 Europe"/>
               </assigner>
            </identifier>
            <name value="CHU d&amp;#039;Angers"/>
            <address>
               <line value="Rue Larrey nan"/>
               <city value="Angers"/>
               <postalCode value="49100"/>
               <country value="France"/>
            </address>
         </Organization>
      </resource>
   </entry>
   <entry>
      <fullUrl value="urn:uuid:dd646c92-5da5-414b-9868-733e4736888d"/>
      <resource>
         <Condition>
            <id value="dd646c92-5da5-414b-9868-733e4736888d"/>
            <meta>
               <profile value="http://hl7.org/fhir/uv/ips/StructureDefinition/Condition-uv-ips"/>
            </meta>
            <text>
               <status value="generated"/>
               <div xmlns="http://www.w3.org/1999/xhtml">
                  <table class="hl7__ips">
                     <tr>
                        <td>Chronic kidney disease stage 2</td>
                        <td>
                           <span class="nb">11-Mar-2021</span>
                        </td>
                        <td>active</td>
                     </tr>
                  </table>
               </div>
            </text>
            <category>
               <coding>
                  <system value="http://terminology.hl7.org/CodeSystem/condition-category"/>
                  <code value="problem-list-item"/>
                  <display value="Problem List Item"/>
               </coding>
            </category>
            <code>
               <coding>
                  <system value="http://snomed.info/sct"/>
                  <code value="431856006"/>
                  <display value="Chronic kidney disease stage 2 (disorder)"/>
               </coding>
               <text value="Chronic kidney disease stage 2"/>
            </code>
            <subject>
               <reference value="urn:uuid:"/>
               <display value="Marthe Gallet"/>
            </subject>
            <onsetDateTime value="2021-03-11"/>
            <asserter>
               <reference value="urn:uuid:"/>
               <display value="CHU d&amp;#039;Angers"/>
            </asserter>
         </Condition>
      </resource>
   </entry>
   <entry>
      <fullUrl value="urn:uuid:b310c9bf-6f41-4b4e-81a6-34cdf3c5f1b3"/>
      <resource>
         <Condition>
            <id value="b310c9bf-6f41-4b4e-81a6-34cdf3c5f1b3"/>
            <meta>
               <profile value="http://hl7.org/fhir/uv/ips/StructureDefinition/Condition-uv-ips"/>
            </meta>
            <text>
               <status value="generated"/>
               <div xmlns="http://www.w3.org/1999/xhtml">
                  <table class="hl7__ips">
                     <tr>
                        <td>Microalbuminuria due to type 2 diabetes mellitus</td>
                        <td>
                           <span class="nb">11-Mar-2021</span>
                        </td>
                        <td>active</td>
                     </tr>
                  </table>
               </div>
            </text>
            <category>
               <coding>
                  <system value="http://terminology.hl7.org/CodeSystem/condition-category"/>
                  <code value="problem-list-item"/>
                  <display value="Problem List Item"/>
               </coding>
            </category>
            <code>
               <coding>
                  <system value="http://snomed.info/sct"/>
                  <code value="90781000119102"/>
                  <display value="Microalbuminuria due to type 2 diabetes mellitus (disorder)"/>
               </coding>
               <text value="Microalbuminuria due to type 2 diabetes mellitus"/>
            </code>
            <subject>
               <reference value="urn:uuid:"/>
               <display value="Marthe Gallet"/>
            </subject>
            <onsetDateTime value="2021-03-11"/>
            <asserter>
               <reference value="urn:uuid:"/>
               <display value="CHU d&amp;#039;Angers"/>
            </asserter>
         </Condition>
      </resource>
   </entry>
   <entry>
      <fullUrl value="urn:uuid:9dc976a1-2561-4159-9133-87bc8a1c6192"/>
      <resource>
         <Condition>
            <id value="9dc976a1-2561-4159-9133-87bc8a1c6192"/>
            <meta>
               <profile value="http://hl7.org/fhir/uv/ips/StructureDefinition/Condition-uv-ips"/>
            </meta>
            <text>
               <status value="generated"/>
               <div xmlns="http://www.w3.org/1999/xhtml">
                  <table class="hl7__ips">
                     <tr>
                        <td>Disorder of kidney due to diabetes mellitus</td>
                        <td>
                           <span class="nb">01-Jan-2009</span>
                        </td>
                        <td>active</td>
                     </tr>
                  </table>
               </div>
            </text>
            <category>
               <coding>
                  <system value="http://terminology.hl7.org/CodeSystem/condition-category"/>
                  <code value="problem-list-item"/>
                  <display value="Problem List Item"/>
               </coding>
            </category>
            <code>
               <coding>
                  <system value="http://snomed.info/sct"/>
                  <code value="127013003"/>
                  <display value="Disorder of kidney due to diabetes mellitus (disorder)"/>
               </coding>
               <text value="Disorder of kidney due to diabetes mellitus"/>
            </code>
            <subject>
               <reference value="urn:uuid:"/>
               <display value="Marthe Gallet"/>
            </subject>
            <onsetDateTime value="2009-01-01"/>
            <asserter>
               <reference value="urn:uuid:"/>
               <display value="CHU d&amp;#039;Angers"/>
            </asserter>
         </Condition>
      </resource>
   </entry>
   <entry>
      <fullUrl value="urn:uuid:4569f54e-a657-4977-8a00-2ac873bf97b7"/>
      <resource>
         <Condition>
            <id value="4569f54e-a657-4977-8a00-2ac873bf97b7"/>
            <meta>
               <profile value="http://hl7.org/fhir/uv/ips/StructureDefinition/Condition-uv-ips"/>
            </meta>
            <text>
               <status value="generated"/>
               <div xmlns="http://www.w3.org/1999/xhtml">
                  <table class="hl7__ips">
                     <tr>
                        <td>Chronic kidney disease stage 1</td>
                        <td>
                           <span class="nb">01-Jan-2009</span>
                        </td>
                        <td>active</td>
                     </tr>
                  </table>
               </div>
            </text>
            <category>
               <coding>
                  <system value="http://terminology.hl7.org/CodeSystem/condition-category"/>
                  <code value="problem-list-item"/>
                  <display value="Problem List Item"/>
               </coding>
            </category>
            <code>
               <coding>
                  <system value="http://snomed.info/sct"/>
                  <code value="431855005"/>
                  <display value="Chronic kidney disease stage 1 (disorder)"/>
               </coding>
               <text value="Chronic kidney disease stage 1"/>
            </code>
            <subject>
               <reference value="urn:uuid:"/>
               <display value="Marthe Gallet"/>
            </subject>
            <onsetDateTime value="2009-01-01"/>
            <asserter>
               <reference value="urn:uuid:"/>
               <display value="CHU d&amp;#039;Angers"/>
            </asserter>
         </Condition>
      </resource>
   </entry>
   <entry>
      <fullUrl value="urn:uuid:06c08ef3-7b0a-40f6-8599-6485ee027144"/>
      <resource>
         <Condition>
            <id value="06c08ef3-7b0a-40f6-8599-6485ee027144"/>
            <meta>
               <profile value="http://hl7.org/fhir/uv/ips/StructureDefinition/Condition-uv-ips"/>
            </meta>
            <text>
               <status value="generated"/>
               <div xmlns="http://www.w3.org/1999/xhtml">
                  <table class="hl7__ips">
                     <tr>
                        <td>Hyperlipidemia</td>
                        <td>
                           <span class="nb">20-Sep-1990</span>
                        </td>
                        <td>active</td>
                     </tr>
                  </table>
               </div>
            </text>
            <category>
               <coding>
                  <system value="http://terminology.hl7.org/CodeSystem/condition-category"/>
                  <code value="problem-list-item"/>
                  <display value="Problem List Item"/>
               </coding>
            </category>
            <code>
               <coding>
                  <system value="http://snomed.info/sct"/>
                  <code value="55822004"/>
                  <display value="Hyperlipidemia (disorder)"/>
               </coding>
               <text value="Hyperlipidemia"/>
            </code>
            <subject>
               <reference value="urn:uuid:"/>
               <display value="Marthe Gallet"/>
            </subject>
            <onsetDateTime value="1990-09-20"/>
            <asserter>
               <reference value="urn:uuid:"/>
               <display value="CHU d&amp;#039;Angers"/>
            </asserter>
         </Condition>
      </resource>
   </entry>
   <entry>
      <fullUrl value="urn:uuid:4a0da6e1-3cfa-4163-bbd5-b459f9ab5896"/>
      <resource>
         <Condition>
            <id value="4a0da6e1-3cfa-4163-bbd5-b459f9ab5896"/>
            <meta>
               <profile value="http://hl7.org/fhir/uv/ips/StructureDefinition/Condition-uv-ips"/>
            </meta>
            <text>
               <status value="generated"/>
               <div xmlns="http://www.w3.org/1999/xhtml">
                  <table class="hl7__ips">
                     <tr>
                        <td>Essential hypertension</td>
                        <td>
                           <span class="nb">05-Aug-1982</span>
                        </td>
                        <td>active</td>
                     </tr>
                  </table>
               </div>
            </text>
            <category>
               <coding>
                  <system value="http://terminology.hl7.org/CodeSystem/condition-category"/>
                  <code value="problem-list-item"/>
                  <display value="Problem List Item"/>
               </coding>
            </category>
            <code>
               <coding>
                  <system value="http://snomed.info/sct"/>
                  <code value="59621000"/>
                  <display value="Essential hypertension (disorder)"/>
               </coding>
               <text value="Essential hypertension"/>
            </code>
            <subject>
               <reference value="urn:uuid:"/>
               <display value="Marthe Gallet"/>
            </subject>
            <onsetDateTime value="1982-08-05"/>
            <asserter>
               <reference value="urn:uuid:"/>
               <display value="CHU d&amp;#039;Angers"/>
            </asserter>
         </Condition>
      </resource>
   </entry>
   <entry>
      <fullUrl value="urn:uuid:acaf03e7-252a-43e6-a36d-c349672dfa58"/>
      <resource>
         <Condition>
            <id value="acaf03e7-252a-43e6-a36d-c349672dfa58"/>
            <meta>
               <profile value="http://hl7.org/fhir/uv/ips/StructureDefinition/Condition-uv-ips"/>
            </meta>
            <text>
               <status value="generated"/>
               <div xmlns="http://www.w3.org/1999/xhtml">
                  <table class="hl7__ips">
                     <tr>
                        <td>
                           <span class="grayedout">Acute bronchitis</span>
                        </td>
                        <td>
                           <span class="nb">24-Nov-2024 - 14-Dec-2024</span>
                        </td>
                        <td>
                           <span class="grayedout">inactive</span>
                        </td>
                     </tr>
                  </table>
               </div>
            </text>
            <category>
               <coding>
                  <system value="http://terminology.hl7.org/CodeSystem/condition-category"/>
                  <code value="problem-list-item"/>
                  <display value="Problem List Item"/>
               </coding>
            </category>
            <code>
               <coding>
                  <system value="http://snomed.info/sct"/>
                  <code value="10509002"/>
                  <display value="Acute bronchitis (disorder)"/>
               </coding>
               <text value="Acute bronchitis"/>
            </code>
            <subject>
               <reference value="urn:uuid:"/>
               <display value="Marthe Gallet"/>
            </subject>
            <onsetDateTime value="2024-11-24"/>
            <abatementDateTime value="2024-12-14"/>
            <asserter>
               <reference value="urn:uuid:"/>
               <display value="CHU d&amp;#039;Angers"/>
            </asserter>
         </Condition>
      </resource>
   </entry>
   <entry>
      <fullUrl value="urn:uuid:445b1c36-f22d-4490-b174-e757f83ef9b4"/>
      <resource>
         <Condition>
            <id value="445b1c36-f22d-4490-b174-e757f83ef9b4"/>
            <meta>
               <profile value="http://hl7.org/fhir/uv/ips/StructureDefinition/Condition-uv-ips"/>
            </meta>
            <text>
               <status value="generated"/>
               <div xmlns="http://www.w3.org/1999/xhtml">
                  <table class="hl7__ips">
                     <tr>
                        <td>
                           <span class="grayedout">Acute bronchitis</span>
                        </td>
                        <td>
                           <span class="nb">11-Dec-2019 - 19-Dec-2019</span>
                        </td>
                        <td>
                           <span class="grayedout">inactive</span>
                        </td>
                     </tr>
                  </table>
               </div>
            </text>
            <category>
               <coding>
                  <system value="http://terminology.hl7.org/CodeSystem/condition-category"/>
                  <code value="problem-list-item"/>
                  <display value="Problem List Item"/>
               </coding>
            </category>
            <code>
               <coding>
                  <system value="http://snomed.info/sct"/>
                  <code value="10509002"/>
                  <display value="Acute bronchitis (disorder)"/>
               </coding>
               <text value="Acute bronchitis"/>
            </code>
            <subject>
               <reference value="urn:uuid:"/>
               <display value="Marthe Gallet"/>
            </subject>
            <onsetDateTime value="2019-12-11"/>
            <abatementDateTime value="2019-12-19"/>
            <asserter>
               <reference value="urn:uuid:"/>
               <display value="CHU d&amp;#039;Angers"/>
            </asserter>
         </Condition>
      </resource>
   </entry>
   <entry>
      <fullUrl value="urn:uuid:aa7aff37-fa0e-4dac-b653-22cccfe4798a"/>
      <resource>
         <Condition>
            <id value="aa7aff37-fa0e-4dac-b653-22cccfe4798a"/>
            <meta>
               <profile value="http://hl7.org/fhir/uv/ips/StructureDefinition/Condition-uv-ips"/>
            </meta>
            <text>
               <status value="generated"/>
               <div xmlns="http://www.w3.org/1999/xhtml">
                  <table class="hl7__ips">
                     <tr>
                        <td>
                           <span class="grayedout">Laceration - injury</span>
                        </td>
                        <td>
                           <span class="nb">25-Apr-2019 - 12-May-2019</span>
                        </td>
                        <td>
                           <span class="grayedout">inactive</span>
                        </td>
                     </tr>
                  </table>
               </div>
            </text>
            <category>
               <coding>
                  <system value="http://terminology.hl7.org/CodeSystem/condition-category"/>
                  <code value="problem-list-item"/>
                  <display value="Problem List Item"/>
               </coding>
            </category>
            <code>
               <coding>
                  <system value="http://snomed.info/sct"/>
                  <code value="312608009"/>
                  <display value="Laceration - injury (disorder)"/>
               </coding>
               <text value="Laceration - injury"/>
            </code>
            <subject>
               <reference value="urn:uuid:"/>
               <display value="Marthe Gallet"/>
            </subject>
            <onsetDateTime value="2019-04-25"/>
            <abatementDateTime value="2019-05-12"/>
            <asserter>
               <reference value="urn:uuid:"/>
               <display value="CHU d&amp;#039;Angers"/>
            </asserter>
         </Condition>
      </resource>
   </entry>
   <entry>
      <fullUrl value="urn:uuid:610e82c2-da42-4547-9f9d-1e9219dadc4c"/>
      <resource>
         <Condition>
            <id value="610e82c2-da42-4547-9f9d-1e9219dadc4c"/>
            <meta>
               <profile value="http://hl7.org/fhir/uv/ips/StructureDefinition/Condition-uv-ips"/>
            </meta>
            <text>
               <status value="generated"/>
               <div xmlns="http://www.w3.org/1999/xhtml">
                  <table class="hl7__ips">
                     <tr>
                        <td>
                           <span class="grayedout">Facial laceration</span>
                        </td>
                        <td>
                           <span class="nb">25-Apr-2019 - 12-May-2019</span>
                        </td>
                        <td>
                           <span class="grayedout">inactive</span>
                        </td>
                     </tr>
                  </table>
               </div>
            </text>
            <category>
               <coding>
                  <system value="http://terminology.hl7.org/CodeSystem/condition-category"/>
                  <code value="problem-list-item"/>
                  <display value="Problem List Item"/>
               </coding>
            </category>
            <code>
               <coding>
                  <system value="http://snomed.info/sct"/>
                  <code value="370247008"/>
                  <display value="Facial laceration (disorder)"/>
               </coding>
               <text value="Facial laceration"/>
            </code>
            <subject>
               <reference value="urn:uuid:"/>
               <display value="Marthe Gallet"/>
            </subject>
            <onsetDateTime value="2019-04-25"/>
            <abatementDateTime value="2019-05-12"/>
            <asserter>
               <reference value="urn:uuid:"/>
               <display value="CHU d&amp;#039;Angers"/>
            </asserter>
         </Condition>
      </resource>
   </entry>
   <entry>
      <fullUrl value="urn:uuid:81cdafea-af72-4a83-ae9d-ddc139c7a351"/>
      <resource>
         <Medication>
            <id value="81cdafea-af72-4a83-ae9d-ddc139c7a351"/>
            <meta>
               <profile value="http://hl7.eu/fhir/eps/StructureDefinition/Medication-eu-eps"/>
            </meta>
            <text>
               <status value="generated"/>
               <div xmlns="http://www.w3.org/1999/xhtml">Amlodipine (as amlodipine besylate) 2.5 mg oral tablet</div>
            </text>
            <code>
               <coding>
                  <system value="http://snomed.info/sct"/>
                  <code value="1153431000"/>
                  <display value="Amlodipine (as amlodipine besylate) 2.5 mg oral tablet"/>
               </coding>
               <text value="Amlodipine (as amlodipine besylate) 2.5 mg oral tablet"/>
            </code>
         </Medication>
      </resource>
   </entry>
   <entry>
      <fullUrl value="urn:uuid:55dd228c-1d0c-487b-ac02-33307f79590b"/>
      <resource>
         <MedicationStatement>
            <id value="55dd228c-1d0c-487b-ac02-33307f79590b"/>
            <meta>
               <profile value="http://hl7.eu/fhir/eps/StructureDefinition/MedicationStatement-eu-eps"/>
            </meta>
            <text>
               <status value="generated"/>
               <div xmlns="http://www.w3.org/1999/xhtml">
                  <table class="hl7__ips first25">
                     <tr>
                        <th>Medication</th>
                        <th>Since</th>
                        <th>Form</th>
                        <th>Dosage</th>
                        <th>Reason</th>
                     </tr>
                     <tr>
                        <td>Amlodipine (as amlodipine besylate) 2.5 mg oral tablet</td>
                        <td>
                           <span class="nb">2025-07-10</span>
                        </td>
                        <td>-</td>
                        <td>1 tablet (2.5 mg) by mouth once daily</td>
                        <td>Essential hypertension (disorder)</td>
                     </tr>
                  </table>
               </div>
            </text>
            <status value="active"/>
            <medicationReference>
               <reference value="urn:uuid:81cdafea-af72-4a83-ae9d-ddc139c7a351"/>
               <display value="Amlodipine (as amlodipine besylate) 2.5 mg oral tablet"/>
            </medicationReference>
            <subject>
               <reference value="urn:uuid:7b7f01f7-be68-4417-831d-aa53d674b363"/>
               <display value="Marthe Gallet"/>
            </subject>
            <effectivePeriod>
               <start value="2025-07-10"/>
            </effectivePeriod>
            <reasonCode>
               <coding>
                  <system value="http://snomed.info/sct"/>
                  <code value="59621000"/>
                  <display value="Essential hypertension (disorder)"/>
               </coding>
            </reasonCode>
            <dosage>
               <text value="1 tablet (2.5 mg) by mouth once daily"/>
               <timing>
                  <repeat>
                     <frequency value="1"/>
                     <period value="1"/>
                     <periodUnit value="d"/>
                  </repeat>
               </timing>
               <asNeededBoolean value="false"/>
               <doseAndRate>
                  <doseQuantity>
                     <value value="1"/>
                     <unit value="{tbl}"/>
                     <system value="$ucum"/>
                     <code value="{tbl}"/>
                  </doseQuantity>
               </doseAndRate>
            </dosage>
         </MedicationStatement>
      </resource>
   </entry>
   <entry>
      <fullUrl value="urn:uuid:02027286-16a3-46eb-84a7-9130b58ba469"/>
      <resource>
         <Medication>
            <id value="02027286-16a3-46eb-84a7-9130b58ba469"/>
            <meta>
               <profile value="http://hl7.eu/fhir/eps/StructureDefinition/Medication-eu-eps"/>
            </meta>
            <text>
               <status value="generated"/>
               <div xmlns="http://www.w3.org/1999/xhtml">Lisinopril 10 mg oral tablet</div>
            </text>
            <code>
               <coding>
                  <system value="http://snomed.info/sct"/>
                  <code value="318859000"/>
                  <display value="Lisinopril 10 mg oral tablet"/>
               </coding>
               <text value="Lisinopril 10 mg oral tablet"/>
            </code>
         </Medication>
      </resource>
   </entry>
   <entry>
      <fullUrl value="urn:uuid:2794a1e7-281a-45a6-a170-421c1a293569"/>
      <resource>
         <MedicationStatement>
            <id value="2794a1e7-281a-45a6-a170-421c1a293569"/>
            <meta>
               <profile value="http://hl7.eu/fhir/eps/StructureDefinition/MedicationStatement-eu-eps"/>
            </meta>
            <text>
               <status value="generated"/>
               <div xmlns="http://www.w3.org/1999/xhtml">
                  <table class="hl7__ips first25">
                     <tr>
                        <th>Medication</th>
                        <th>Since</th>
                        <th>Form</th>
                        <th>Dosage</th>
                        <th>Reason</th>
                     </tr>
                     <tr>
                        <td>Lisinopril 10 mg oral tablet</td>
                        <td>
                           <span class="nb">2025-07-10</span>
                        </td>
                        <td>-</td>
                        <td>1 tablet (10 mg) by mouth once daily</td>
                        <td>Essential hypertension (disorder)</td>
                     </tr>
                  </table>
               </div>
            </text>
            <status value="active"/>
            <medicationReference>
               <reference value="urn:uuid:02027286-16a3-46eb-84a7-9130b58ba469"/>
               <display value="Lisinopril 10 mg oral tablet"/>
            </medicationReference>
            <subject>
               <reference value="urn:uuid:7b7f01f7-be68-4417-831d-aa53d674b363"/>
               <display value="Marthe Gallet"/>
            </subject>
            <effectivePeriod>
               <start value="2025-07-10"/>
            </effectivePeriod>
            <reasonCode>
               <coding>
                  <system value="http://snomed.info/sct"/>
                  <code value="59621000"/>
                  <display value="Essential hypertension (disorder)"/>
               </coding>
            </reasonCode>
            <dosage>
               <text value="1 tablet (10 mg) by mouth once daily"/>
               <timing>
                  <repeat>
                     <frequency value="1"/>
                     <period value="1"/>
                     <periodUnit value="d"/>
                  </repeat>
               </timing>
               <asNeededBoolean value="false"/>
               <doseAndRate>
                  <doseQuantity>
                     <value value="1"/>
                     <unit value="{tbl}"/>
                     <code value="{tbl}"/>
                  </doseQuantity>
               </doseAndRate>
            </dosage>
         </MedicationStatement>
      </resource>
   </entry>
   <entry>
      <fullUrl value="urn:uuid:b22cee2f-6749-4a1c-a22d-378eb4db7121"/>
      <resource>
         <Medication>
            <id value="b22cee2f-6749-4a1c-a22d-378eb4db7121"/>
            <meta>
               <profile value="http://hl7.eu/fhir/eps/StructureDefinition/Medication-eu-eps"/>
            </meta>
            <text>
               <status value="generated"/>
               <div xmlns="http://www.w3.org/1999/xhtml">Simvastatin 10 mg oral tablet</div>
            </text>
            <code>
               <coding>
                  <system value="http://snomed.info/sct"/>
                  <code value="319996000"/>
                  <display value="Simvastatin 10 mg oral tablet"/>
               </coding>
               <text value="Simvastatin 10 mg oral tablet"/>
            </code>
         </Medication>
      </resource>
   </entry>
   <entry>
      <fullUrl value="urn:uuid:a1787277-c3ea-4a0d-bbbc-364a08a62ece"/>
      <resource>
         <MedicationStatement>
            <id value="a1787277-c3ea-4a0d-bbbc-364a08a62ece"/>
            <meta>
               <profile value="http://hl7.eu/fhir/eps/StructureDefinition/MedicationStatement-eu-eps"/>
            </meta>
            <text>
               <status value="generated"/>
               <div xmlns="http://www.w3.org/1999/xhtml">
                  <table class="hl7__ips first25">
                     <tr>
                        <th>Medication</th>
                        <th>Since</th>
                        <th>Form</th>
                        <th>Dosage</th>
                        <th>Reason</th>
                     </tr>
                     <tr>
                        <td>Simvastatin 10 mg oral tablet</td>
                        <td>
                           <span class="nb">2025-04-04</span>
                        </td>
                        <td>-</td>
                        <td>1 tablet (10 mg) by mouth once daily</td>
                        <td>Hyperlipidemia</td>
                     </tr>
                  </table>
               </div>
            </text>
            <status value="active"/>
            <medicationReference>
               <reference value="urn:uuid:b22cee2f-6749-4a1c-a22d-378eb4db7121"/>
               <display value="Simvastatin 10 mg oral tablet"/>
            </medicationReference>
            <subject>
               <reference value="urn:uuid:7b7f01f7-be68-4417-831d-aa53d674b363"/>
               <display value="Marthe Gallet"/>
            </subject>
            <effectivePeriod>
               <start value="2025-04-04"/>
            </effectivePeriod>
            <reasonCode>
               <coding>
                  <system value="http://snomed.info/sct"/>
                  <code value="55822004"/>
                  <display value="Hyperlipidemia"/>
               </coding>
            </reasonCode>
            <dosage>
               <text value="1 tablet (10 mg) by mouth once daily"/>
               <timing>
                  <repeat>
                     <frequency value="1"/>
                     <period value="1"/>
                     <periodUnit value="d"/>
                  </repeat>
               </timing>
               <asNeededBoolean value="false"/>
               <doseAndRate>
                  <doseQuantity>
                     <value value="1"/>
                     <unit value="{tbl}"/>
                     <code value="{tbl}"/>
                  </doseQuantity>
               </doseAndRate>
            </dosage>
         </MedicationStatement>
      </resource>
   </entry>
   <entry>
      <fullUrl value="urn:uuid:5624a5da-63cf-460d-b6ef-0c33d783d235"/>
      <resource>
         <Immunization>
            <id value="5624a5da-63cf-460d-b6ef-0c33d783d235"/>
            <meta>
               <profile value="http://hl7.org/fhir/uv/ips/StructureDefinition/Immunization-uv-ips"/>
            </meta>
            <text>
               <status value="generated"/>
               <div xmlns="http://www.w3.org/1999/xhtml">
                  <table class="hl7__ips">
                     <tr>
                        <td>Influenza virus antigen only vaccine product</td>
                        <td>
                           <span class="nb">05-Dec-2024</span>
                        </td>
                     </tr>
                  </table>
               </div>
            </text>
            <status value="completed"/>
            <vaccineCode>
               <coding>
                  <system value="http://snomed.info/sct"/>
                  <code value="1181000221105"/>
                  <display value="Vaccine product containing Influenza virus antigen"/>
               </coding>
               <coding>
                  <system value="http://www.whocc.no/atc"/>
                  <code value="J07BB02"/>
                  <display value="Influenza, inactivated, split virus"/>
               </coding>
               <text value="Influenza virus antigen only vaccine product"/>
            </vaccineCode>
            <patient>
               <reference value="urn:uuid:7b7f01f7-be68-4417-831d-aa53d674b363"/>
               <display value="Marthe Gallet"/>
            </patient>
            <occurrenceDateTime value="2024-12-05"/>
            <lotNumber value="QB-WM8vaPvgW"/>
            <expirationDate value="2025-11-08"/>
            <site>
               <coding>
                  <system value="http://snomed.info/sct"/>
                  <code value="244979005"/>
                  <display value="Entire muscle of upper arm"/>
               </coding>
               <text value="Entire muscle of upper arm"/>
            </site>
            <route>
               <coding>
                  <system value="http://snomed.info/sct"/>
                  <code value="78421000"/>
                  <display value="Intramuscular route"/>
               </coding>
               <text value="Intramuscular route"/>
            </route>
         </Immunization>
      </resource>
   </entry>
   <entry>
      <fullUrl value="urn:uuid:bdaabbfe-0529-4293-8c56-8b1e55e5d8a5"/>
      <resource>
         <Immunization>
            <id value="bdaabbfe-0529-4293-8c56-8b1e55e5d8a5"/>
            <meta>
               <profile value="http://hl7.org/fhir/uv/ips/StructureDefinition/Immunization-uv-ips"/>
            </meta>
            <text>
               <status value="generated"/>
               <div xmlns="http://www.w3.org/1999/xhtml">
                  <table class="hl7__ips">
                     <tr>
                        <td>Clostridium tetani toxoid antigen adsorbed only vaccine product</td>
                        <td>
                           <span class="nb">19-Dec-2019</span>
                        </td>
                     </tr>
                  </table>
               </div>
            </text>
            <status value="completed"/>
            <vaccineCode>
               <coding>
                  <system value="http://snomed.info/sct"/>
                  <code value="777725002"/>
                  <display value="Vaccine product containing only Clostridium tetani toxoid antigen adsorbed"/>
               </coding>
               <coding>
                  <system value="http://www.whocc.no/atc"/>
                  <code value="J07AM51"/>
                  <display value="Diphtheria-tetanus vaccines, adult type"/>
               </coding>
               <text value="Clostridium tetani toxoid antigen adsorbed only vaccine product"/>
            </vaccineCode>
            <patient>
               <reference value="urn:uuid:7b7f01f7-be68-4417-831d-aa53d674b363"/>
               <display value="Marthe Gallet"/>
            </patient>
            <occurrenceDateTime value="2019-12-19"/>
            <lotNumber value="CA-TnS2DHTip"/>
            <expirationDate value="2020-10-17"/>
            <site>
               <coding>
                  <system value="http://snomed.info/sct"/>
                  <code value="244979005"/>
                  <display value="Entire muscle of upper arm"/>
               </coding>
               <text value="Entire muscle of upper arm"/>
            </site>
            <route>
               <coding>
                  <system value="http://snomed.info/sct"/>
                  <code value="78421000"/>
                  <display value="Intramuscular route"/>
               </coding>
               <text value="Intramuscular route"/>
            </route>
         </Immunization>
      </resource>
   </entry>
   <entry>
      <fullUrl value="urn:uuid:bfde25c0-9a82-4c20-9aa3-85aebac9c965"/>
      <resource>
         <Procedure>
            <id value="bfde25c0-9a82-4c20-9aa3-85aebac9c965"/>
            <meta>
               <profile value="http://hl7.org/fhir/uv/ips/StructureDefinition/Procedure-uv-ips"/>
            </meta>
            <text>
               <status value="generated"/>
               <div xmlns="http://www.w3.org/1999/xhtml">
                  <table class="hl7__ips">
                     <tr>
                        <td>Depression screening</td>
                        <td>
                           <span class="nb">19-Dec-2024</span>
                        </td>
                        <td>-</td>
                     </tr>
                  </table>
               </div>
            </text>
            <status value="completed"/>
            <code>
               <coding>
                  <system value="http://snomed.info/sct"/>
                  <code value="171207006"/>
                  <display value="Depression screening (procedure)"/>
               </coding>
               <text value="Depression screening"/>
            </code>
            <subject>
               <reference value="urn:uuid:"/>
               <display value="Marthe Gallet"/>
            </subject>
            <performedDateTime value="2024-12-19"/>
         </Procedure>
      </resource>
   </entry>
   <entry>
      <fullUrl value="urn:uuid:e599d9a8-7292-4002-9559-da84b1544904"/>
      <resource>
         <Procedure>
            <id value="e599d9a8-7292-4002-9559-da84b1544904"/>
            <meta>
               <profile value="http://hl7.org/fhir/uv/ips/StructureDefinition/Procedure-uv-ips"/>
            </meta>
            <text>
               <status value="generated"/>
               <div xmlns="http://www.w3.org/1999/xhtml">
                  <table class="hl7__ips">
                     <tr>
                        <td>Medication reconciliation</td>
                        <td>
                           <span class="nb">19-Dec-2024</span>
                        </td>
                        <td>-</td>
                     </tr>
                  </table>
               </div>
            </text>
            <status value="completed"/>
            <code>
               <coding>
                  <system value="http://snomed.info/sct"/>
                  <code value="430193006"/>
                  <display value="Medication Reconciliation (procedure)"/>
               </coding>
               <text value="Medication reconciliation"/>
            </code>
            <subject>
               <reference value="urn:uuid:"/>
               <display value="Marthe Gallet"/>
            </subject>
            <performedDateTime value="2024-12-19"/>
         </Procedure>
      </resource>
   </entry>
   <entry>
      <fullUrl value="urn:uuid:d5c50553-4875-45ac-b444-0c46ccdf9460"/>
      <resource>
         <Procedure>
            <id value="d5c50553-4875-45ac-b444-0c46ccdf9460"/>
            <meta>
               <profile value="http://hl7.org/fhir/uv/ips/StructureDefinition/Procedure-uv-ips"/>
            </meta>
            <text>
               <status value="generated"/>
               <div xmlns="http://www.w3.org/1999/xhtml">
                  <table class="hl7__ips">
                     <tr>
                        <td>Assessment of health and social care needs</td>
                        <td>
                           <span class="nb">19-Dec-2024</span>
                        </td>
                        <td>-</td>
                     </tr>
                  </table>
               </div>
            </text>
            <status value="completed"/>
            <code>
               <coding>
                  <system value="http://snomed.info/sct"/>
                  <code value="710824005"/>
                  <display value="Assessment of health and social care needs (procedure)"/>
               </coding>
               <text value="Assessment of health and social care needs"/>
            </code>
            <subject>
               <reference value="urn:uuid:"/>
               <display value="Marthe Gallet"/>
            </subject>
            <performedDateTime value="2024-12-19"/>
         </Procedure>
      </resource>
   </entry>
   <entry>
      <fullUrl value="urn:uuid:c299ed5d-0030-42a3-a7ad-6fffeb140751"/>
      <resource>
         <Procedure>
            <id value="c299ed5d-0030-42a3-a7ad-6fffeb140751"/>
            <meta>
               <profile value="http://hl7.org/fhir/uv/ips/StructureDefinition/Procedure-uv-ips"/>
            </meta>
            <text>
               <status value="generated"/>
               <div xmlns="http://www.w3.org/1999/xhtml">
                  <table class="hl7__ips">
                     <tr>
                        <td>Depression screening using Patient Health Questionnaire Two-Item score (procedure)</td>
                        <td>
                           <span class="nb">19-Dec-2024</span>
                        </td>
                        <td>-</td>
                     </tr>
                  </table>
               </div>
            </text>
            <status value="completed"/>
            <code>
               <coding>
                  <system value="http://snomed.info/sct"/>
                  <code value="454711000124102"/>
                  <display value="Depression screening using Patient Health Questionnaire Two-Item score (procedure)"/>
               </coding>
            </code>
            <subject>
               <reference value="urn:uuid:"/>
               <display value="Marthe Gallet"/>
            </subject>
            <performedDateTime value="2024-12-19"/>
         </Procedure>
      </resource>
   </entry>
   <entry>
      <fullUrl value="urn:uuid:148d4edc-966f-4184-83e5-4fd09a8a8c93"/>
      <resource>
         <Procedure>
            <id value="148d4edc-966f-4184-83e5-4fd09a8a8c93"/>
            <meta>
               <profile value="http://hl7.org/fhir/uv/ips/StructureDefinition/Procedure-uv-ips"/>
            </meta>
            <text>
               <status value="generated"/>
               <div xmlns="http://www.w3.org/1999/xhtml">
                  <table class="hl7__ips">
                     <tr>
                        <td>Assessment using Morse Fall Scale</td>
                        <td>
                           <span class="nb">05-Dec-2024</span>
                        </td>
                        <td>-</td>
                     </tr>
                  </table>
               </div>
            </text>
            <status value="completed"/>
            <code>
               <coding>
                  <system value="http://snomed.info/sct"/>
                  <code value="762993000"/>
                  <display value="Assessment using Morse Fall Scale (procedure)"/>
               </coding>
               <text value="Assessment using Morse Fall Scale"/>
            </code>
            <subject>
               <reference value="urn:uuid:"/>
               <display value="Marthe Gallet"/>
            </subject>
            <performedDateTime value="2024-12-05"/>
         </Procedure>
      </resource>
   </entry>
   <entry>
      <fullUrl value="urn:uuid:f8ed0cdd-6a4b-4e97-ad22-0c900a4e4ae9"/>
      <resource>
         <Procedure>
            <id value="f8ed0cdd-6a4b-4e97-ad22-0c900a4e4ae9"/>
            <meta>
               <profile value="http://hl7.org/fhir/uv/ips/StructureDefinition/Procedure-uv-ips"/>
            </meta>
            <text>
               <status value="generated"/>
               <div xmlns="http://www.w3.org/1999/xhtml">
                  <table class="hl7__ips">
                     <tr>
                        <td>Assessment using AUDIT-C (Alcohol Use Disorders Identification Test - Consumption)</td>
                        <td>
                           <span class="nb">05-Dec-2024</span>
                        </td>
                        <td>-</td>
                     </tr>
                  </table>
               </div>
            </text>
            <status value="completed"/>
            <code>
               <coding>
                  <system value="http://snomed.info/sct"/>
                  <code value="763302001"/>
                  <display value="Assessment using Alcohol Use Disorders Identification Test - Consumption (procedure)"/>
               </coding>
               <text value="Assessment using AUDIT-C (Alcohol Use Disorders Identification Test - Consumption)"/>
            </code>
            <subject>
               <reference value="urn:uuid:"/>
               <display value="Marthe Gallet"/>
            </subject>
            <performedDateTime value="2024-12-05"/>
         </Procedure>
      </resource>
   </entry>
   <entry>
      <fullUrl value="urn:uuid:4270be4b-7a65-468b-8b4d-c262c1fd0daf"/>
      <resource>
         <Procedure>
            <id value="4270be4b-7a65-468b-8b4d-c262c1fd0daf"/>
            <meta>
               <profile value="http://hl7.org/fhir/uv/ips/StructureDefinition/Procedure-uv-ips"/>
            </meta>
            <text>
               <status value="generated"/>
               <div xmlns="http://www.w3.org/1999/xhtml">
                  <table class="hl7__ips">
                     <tr>
                        <td>Assessment of substance use</td>
                        <td>
                           <span class="nb">05-Dec-2024</span>
                        </td>
                        <td>-</td>
                     </tr>
                  </table>
               </div>
            </text>
            <status value="completed"/>
            <code>
               <coding>
                  <system value="http://snomed.info/sct"/>
                  <code value="428211000124100"/>
                  <display value="Assessment of substance use (procedure)"/>
               </coding>
               <text value="Assessment of substance use"/>
            </code>
            <subject>
               <reference value="urn:uuid:"/>
               <display value="Marthe Gallet"/>
            </subject>
            <performedDateTime value="2024-12-05"/>
         </Procedure>
      </resource>
   </entry>
   <entry>
      <fullUrl value="urn:uuid:7edee3fb-5c3f-4181-8f33-26385c4ec399"/>
      <resource>
         <Procedure>
            <id value="7edee3fb-5c3f-4181-8f33-26385c4ec399"/>
            <meta>
               <profile value="http://hl7.org/fhir/uv/ips/StructureDefinition/Procedure-uv-ips"/>
            </meta>
            <text>
               <status value="generated"/>
               <div xmlns="http://www.w3.org/1999/xhtml">
                  <table class="hl7__ips">
                     <tr>
                        <td>Suture open wound</td>
                        <td>
                           <span class="nb">25-Apr-2019</span>
                        </td>
                        <td>Facial laceration</td>
                     </tr>
                  </table>
               </div>
            </text>
            <status value="completed"/>
            <code>
               <coding>
                  <system value="http://snomed.info/sct"/>
                  <code value="288086009"/>
                  <display value="Suture open wound"/>
               </coding>
               <text value="Suture open wound"/>
            </code>
            <subject>
               <reference value="urn:uuid:"/>
               <display value="Marthe Gallet"/>
            </subject>
            <performedDateTime value="2019-04-25"/>
            <reasonCode>
               <coding>
                  <system value="http://snomed.info/sct"/>
                  <code value="370247008"/>
                  <display value="Facial laceration"/>
               </coding>
            </reasonCode>
         </Procedure>
      </resource>
   </entry>
   <entry>
      <fullUrl value="urn:uuid:6d1e72dc-8c91-4ce6-a367-9333addb7acd"/>
      <resource>
         <Procedure>
            <id value="6d1e72dc-8c91-4ce6-a367-9333addb7acd"/>
            <meta>
               <profile value="http://hl7.org/fhir/uv/ips/StructureDefinition/Procedure-uv-ips"/>
            </meta>
            <text>
               <status value="generated"/>
               <div xmlns="http://www.w3.org/1999/xhtml">
                  <table class="hl7__ips">
                     <tr>
                        <td>Referral to home health care service</td>
                        <td>
                           <span class="nb">10-Mar-2016</span>
                        </td>
                        <td>-</td>
                     </tr>
                  </table>
               </div>
            </text>
            <status value="completed"/>
            <code>
               <coding>
                  <system value="http://snomed.info/sct"/>
                  <code value="417511005"/>
                  <display value="Referral to home health care service (procedure)"/>
               </coding>
               <text value="Referral to home health care service"/>
            </code>
            <subject>
               <reference value="urn:uuid:"/>
               <display value="Marthe Gallet"/>
            </subject>
            <performedDateTime value="2016-03-10"/>
         </Procedure>
      </resource>
   </entry>
   <entry>
      <fullUrl value="urn:uuid:d8b1a703-21c6-4387-9ec9-e71528e5da15"/>
      <resource>
         <AllergyIntolerance>
            <id value="d8b1a703-21c6-4387-9ec9-e71528e5da15"/>
            <meta>
               <profile value="http://hl7.eu/fhir/eps/StructureDefinition/allergyIntolerance-eu-eps"/>
            </meta>
            <text>
               <status value="generated"/>
               <div xmlns="http://www.w3.org/1999/xhtml">
                  <table class="hl7__ips">
                     <tr>
                        <th>Allergy/Intolerance</th>
                        <th>Onset Date</th>
                        <th>Status</th>
                        <th>Type</th>
                        <th>Reaction</th>
                     </tr>
                     <tr>
                        <td/>
                        <td>?</td>
                        <td>active</td>
                        <td>?</td>
                        <td/>
                     </tr>
                  </table>
               </div>
            </text>
            <clinicalStatus>
               <coding>
                  <system value="http://terminology.hl7.org/CodeSystem/allergyintolerance-clinical"/>
                  <code value="active"/>
               </coding>
            </clinicalStatus>
            <verificationStatus>
               <coding>
                  <system value="http://terminology.hl7.org/CodeSystem/allergyintolerance-verification"/>
                  <code value="confirmed"/>
               </coding>
            </verificationStatus>
            <code>
               <text/>
            </code>
            <patient>
               <reference value="urn:uuid:7b7f01f7-be68-4417-831d-aa53d674b363"/>
               <display value="Marthe Gallet"/>
            </patient>
            <onsetDateTime>
               <extension url="http://hl7.org/fhir/StructureDefinition/data-absent-reason">
                  <valueCode value="unknown"/>
               </extension>
            </onsetDateTime>
         </AllergyIntolerance>
      </resource>
   </entry>
   <entry>
      <fullUrl value="urn:uuid:d78b5ed9-cb5f-4854-86ce-acf65dc0a3dc"/>
      <resource>
         <CarePlan>
            <id value="d78b5ed9-cb5f-4854-86ce-acf65dc0a3dc"/>
            <text>
               <status value="generated"/>
               <div xmlns="http://www.w3.org/1999/xhtml">
                  <table class="hl7__ips first25">
                     <tr>
                        <th>Active Planned Care / Goals</th>
                        <th>Start Date</th>
                        <th>Reason</th>
                     </tr>
                     <tr>
                        <td>Hyperlipidemia clinical management plan</td>
                        <td>
                           <span class="nb">11-Oct-1990</span>
                        </td>
                        <td>Hyperlipidemia</td>
                     </tr>
                     <tr>
                        <td>
                           <ul>
                              <li>Achieve and maintain LDL cholesterol below 70 mg/dL to reduce cardiovascular risk.</li>
                              <li>Keep total cholesterol below 200 mg/dL.</li>
                              <li>Keep triglycerides below 150 mg/dL.</li>
                              <li>Maintain HDL cholesterol above 50 mg/dL.</li>
                           </ul>
                        </td>
                        <td/>
                        <td/>
                     </tr>
                  </table>
               </div>
            </text>
            <status value="active"/>
            <intent value="plan"/>
            <category>
               <coding>
                  <system value="http://terminology.hl7.org/CodeSystem/care-plan-category"/>
                  <code value="assess-plan"/>
                  <display value="Assessment and Plan"/>
               </coding>
            </category>
            <subject>
               <reference value="urn:uuid:7b7f01f7-be68-4417-831d-aa53d674b363"/>
               <display value="Marthe Gallet"/>
            </subject>
            <period>
               <start value="1990-10-11"/>
            </period>
            <goal>
               <reference value="urn:uuid:1f4add90-fcfe-46af-b5d8-fe6d02a2f374"/>
            </goal>
            <goal>
               <reference value="urn:uuid:e9af3858-f654-4ad1-b0bc-5e399f02b90c"/>
            </goal>
            <goal>
               <reference value="urn:uuid:b1ee28ff-e291-4994-a407-24149e79af06"/>
            </goal>
            <goal>
               <reference value="urn:uuid:2652cf95-0061-4491-a4f4-dd24a4376a2d"/>
            </goal>
            <activity>
               <detail>
                  <kind value="Appointment"/>
                  <code>
                     <coding>
                        <system value="http://snomed.info/sct"/>
                        <code value="736285004"/>
                        <display value="Hyperlipidemia clinical management plan (record artifact)"/>
                     </coding>
                  </code>
                  <reasonCode>
                     <coding>
                        <system value="http://snomed.info/sct"/>
                        <code value="55822004"/>
                        <display value="Hyperlipidemia"/>
                     </coding>
                  </reasonCode>
                  <status value="unknown"/>
                  <description value="Hyperlipidemia clinical management plan"/>
               </detail>
            </activity>
         </CarePlan>
      </resource>
   </entry>
   <entry>
      <fullUrl value="urn:uuid:a163c73a-4f59-4c6b-a51f-107e446d5d32"/>
      <resource>
         <CarePlan>
            <id value="a163c73a-4f59-4c6b-a51f-107e446d5d32"/>
            <text>
               <status value="generated"/>
               <div xmlns="http://www.w3.org/1999/xhtml">
                  <table class="hl7__ips first25">
                     <tr>
                        <th>Active Planned Care / Goals</th>
                        <th>Start Date</th>
                        <th>Reason</th>
                     </tr>
                     <tr>
                        <td>Lifestyle education regarding hypertension</td>
                        <td>
                           <span class="nb">05-Aug-1982</span>
                        </td>
                        <td>Essential hypertension (disorder)</td>
                     </tr>
                     <tr>
                        <td>
                           <ul>
                              <li>Maintain blood pressure below 130/80 mmHg to reduce risk of kidney and cardiovascular complications.</li>
                              <li>Patient will demonstrate understanding of lifestyle modifications for hypertension, including dietary sodium reduction, regular physical activity, and medication adherence.</li>
                           </ul>
                        </td>
                        <td/>
                        <td/>
                     </tr>
                  </table>
               </div>
            </text>
            <status value="active"/>
            <intent value="plan"/>
            <category>
               <coding>
                  <system value="http://terminology.hl7.org/CodeSystem/care-plan-category"/>
                  <code value="assess-plan"/>
                  <display value="Assessment and Plan"/>
               </coding>
            </category>
            <subject>
               <reference value="urn:uuid:7b7f01f7-be68-4417-831d-aa53d674b363"/>
               <display value="Marthe Gallet"/>
            </subject>
            <period>
               <start value="1982-08-05"/>
            </period>
            <goal>
               <reference value="urn:uuid:b55fed23-0e57-42eb-b11d-c2dfe21f266e"/>
            </goal>
            <goal>
               <reference value="urn:uuid:942b7c71-f9ca-4f43-8aab-12f6349e1d7c"/>
            </goal>
            <activity>
               <detail>
                  <kind value="Appointment"/>
                  <code>
                     <coding>
                        <system value="http://snomed.info/sct"/>
                        <code value="443402002"/>
                        <display value="Lifestyle education regarding hypertension (procedure)"/>
                     </coding>
                  </code>
                  <reasonCode>
                     <coding>
                        <system value="http://snomed.info/sct"/>
                        <code value="59621000"/>
                        <display value="Essential hypertension (disorder)"/>
                     </coding>
                  </reasonCode>
                  <status value="unknown"/>
                  <description value="Lifestyle education regarding hypertension"/>
               </detail>
            </activity>
         </CarePlan>
      </resource>
   </entry>
   <entry>
      <fullUrl value="urn:uuid:65b6d4f1-7b67-4dca-9eb1-4e62986c8a5e"/>
      <resource>
         <ImmunizationRecommendation>
            <id value="65b6d4f1-7b67-4dca-9eb1-4e62986c8a5e"/>
            <text>
               <status value="generated"/>
               <div xmlns="http://www.w3.org/1999/xhtml">
                  <table class="hl7__ips">
                     <tr>
                        <td>Vaccine product containing only Influenza virus antigen (medicinal product)</td>
                        <td>
                           <span class="nb">01-Oct-2025</span>
                        </td>
                        <td>Annual seasonal influenza vaccination</td>
                     </tr>
                  </table>
               </div>
            </text>
            <patient>
               <reference value="urn:uuid:7b7f01f7-be68-4417-831d-aa53d674b363"/>
               <display value="Marthe Gallet"/>
            </patient>
            <date value="2025-10-22"/>
            <recommendation>
               <vaccineCode>
                  <coding>
                     <system value="http://snomed.info/sct"/>
                     <code value="1181000221105"/>
                     <display value="Vaccine product containing only Influenza virus antigen (medicinal product)"/>
                  </coding>
               </vaccineCode>
               <targetDisease>
                  <coding>
                     <system value="http://snomed.info/sct"/>
                     <code value="6142004"/>
                     <display value="Influenza (disorder)"/>
                  </coding>
               </targetDisease>
               <forecastStatus>
                  <coding>
                     <system value="http://terminology.hl7.org/CodeSystem/immunization-recommendation-status"/>
                     <code value="due"/>
                     <display value="Due"/>
                  </coding>
               </forecastStatus>
               <dateCriterion>
                  <code>
                     <coding>
                        <system value="http://loinc.org"/>
                        <code value="30980-7"/>
                        <display value="Date vaccine due"/>
                     </coding>
                  </code>
                  <value value="2025-10-01"/>
               </dateCriterion>
               <series value="Annual seasonal influenza vaccination"/>
            </recommendation>
         </ImmunizationRecommendation>
      </resource>
   </entry>
   <entry>
      <fullUrl value="urn:uuid:e432a4e0-1697-4ec8-97ea-223006e053ef"/>
      <resource>
         <Observation>
            <id value="e432a4e0-1697-4ec8-97ea-223006e053ef"/>
            <meta>
               <profile value="http://hl7.org/fhir/StructureDefinition/vitalsigns"/>
            </meta>
            <text>
               <status value="generated"/>
               <div xmlns="http://www.w3.org/1999/xhtml">
                  <table class="hl7__ips">
                     <tr>
                        <th>Vital Sign</th>
                        <th>Date</th>
                        <th>Measurement</th>
                     </tr>
                     <tr>
                        <td>Body Height</td>
                        <td>10-Jul-2025</td>
                        <td>154.6 cm</td>
                     </tr>
                  </table>
               </div>
            </text>
            <status value="final"/>
            <category>
               <coding>
                  <system value="http://terminology.hl7.org/CodeSystem/observation-category"/>
                  <code value="vital-signs"/>
                  <display value="Vital Signs"/>
               </coding>
            </category>
            <code>
               <coding>
                  <system value="http://loinc.org"/>
                  <code value="$8302-2"/>
                  <display value="Body Height"/>
               </coding>
            </code>
            <subject>
               <reference value="urn:uuid:7b7f01f7-be68-4417-831d-aa53d674b363"/>
               <display value="Marthe Gallet"/>
            </subject>
            <effectiveDateTime value="2025-07-10"/>
            <valueQuantity>
               <value value="154.6"/>
               <unit value="cm"/>
               <code value="cm"/>
            </valueQuantity>
         </Observation>
      </resource>
   </entry>
   <entry>
      <fullUrl value="urn:uuid:c9ce231a-118b-4ff7-abb3-411a20999487"/>
      <resource>
         <Observation>
            <id value="c9ce231a-118b-4ff7-abb3-411a20999487"/>
            <meta>
               <profile value="http://hl7.org/fhir/StructureDefinition/vitalsigns"/>
            </meta>
            <text>
               <status value="generated"/>
               <div xmlns="http://www.w3.org/1999/xhtml">
                  <table class="hl7__ips">
                     <tr>
                        <th>Vital Sign</th>
                        <th>Date</th>
                        <th>Measurement</th>
                     </tr>
                     <tr>
                        <td>Pain severity - 0-10 verbal numeric rating [Score] - Reported</td>
                        <td>10-Jul-2025</td>
                        <td>2 {score}</td>
                     </tr>
                  </table>
               </div>
            </text>
            <status value="final"/>
            <category>
               <coding>
                  <system value="http://terminology.hl7.org/CodeSystem/observation-category"/>
                  <code value="vital-signs"/>
                  <display value="Vital Signs"/>
               </coding>
            </category>
            <code>
               <coding>
                  <system value="http://loinc.org"/>
                  <code value="$72514-3"/>
                  <display value="Pain severity - 0-10 verbal numeric rating [Score] - Reported"/>
               </coding>
            </code>
            <subject>
               <reference value="urn:uuid:7b7f01f7-be68-4417-831d-aa53d674b363"/>
               <display value="Marthe Gallet"/>
            </subject>
            <effectiveDateTime value="2025-07-10"/>
            <valueQuantity>
               <value value="2"/>
               <unit value="{score}"/>
               <code value="{score}"/>
            </valueQuantity>
         </Observation>
      </resource>
   </entry>
   <entry>
      <fullUrl value="urn:uuid:a0ef5cbc-3bce-4dab-bf94-fe07d4fc7660"/>
      <resource>
         <Observation>
            <id value="a0ef5cbc-3bce-4dab-bf94-fe07d4fc7660"/>
            <meta>
               <profile value="http://hl7.org/fhir/StructureDefinition/vitalsigns"/>
            </meta>
            <text>
               <status value="generated"/>
               <div xmlns="http://www.w3.org/1999/xhtml">
                  <table class="hl7__ips">
                     <tr>
                        <th>Vital Sign</th>
                        <th>Date</th>
                        <th>Measurement</th>
                     </tr>
                     <tr>
                        <td>Body Weight</td>
                        <td>10-Jul-2025</td>
                        <td>72.5 kg</td>
                     </tr>
                  </table>
               </div>
            </text>
            <status value="final"/>
            <category>
               <coding>
                  <system value="http://terminology.hl7.org/CodeSystem/observation-category"/>
                  <code value="vital-signs"/>
                  <display value="Vital Signs"/>
               </coding>
            </category>
            <code>
               <coding>
                  <system value="http://loinc.org"/>
                  <code value="$29463-7"/>
                  <display value="Body Weight"/>
               </coding>
            </code>
            <subject>
               <reference value="urn:uuid:7b7f01f7-be68-4417-831d-aa53d674b363"/>
               <display value="Marthe Gallet"/>
            </subject>
            <effectiveDateTime value="2025-07-10"/>
            <valueQuantity>
               <value value="72.5"/>
               <unit value="kg"/>
               <code value="kg"/>
            </valueQuantity>
         </Observation>
      </resource>
   </entry>
   <entry>
      <fullUrl value="urn:uuid:1c9d532f-9e7e-4cf4-ae1a-a5141f67bc78"/>
      <resource>
         <Observation>
            <id value="1c9d532f-9e7e-4cf4-ae1a-a5141f67bc78"/>
            <meta>
               <profile value="http://hl7.org/fhir/StructureDefinition/vitalsigns"/>
            </meta>
            <text>
               <status value="generated"/>
               <div xmlns="http://www.w3.org/1999/xhtml">
                  <table class="hl7__ips">
                     <tr>
                        <th>Vital Sign</th>
                        <th>Date</th>
                        <th>Measurement</th>
                     </tr>
                     <tr>
                        <td>Body mass index (BMI) [Ratio]</td>
                        <td>10-Jul-2025</td>
                        <td>30.3 kg/m2</td>
                     </tr>
                  </table>
               </div>
            </text>
            <status value="final"/>
            <category>
               <coding>
                  <system value="http://terminology.hl7.org/CodeSystem/observation-category"/>
                  <code value="vital-signs"/>
                  <display value="Vital Signs"/>
               </coding>
            </category>
            <code>
               <coding>
                  <system value="http://loinc.org"/>
                  <code value="$39156-5"/>
                  <display value="Body mass index (BMI) [Ratio]"/>
               </coding>
            </code>
            <subject>
               <reference value="urn:uuid:7b7f01f7-be68-4417-831d-aa53d674b363"/>
               <display value="Marthe Gallet"/>
            </subject>
            <effectiveDateTime value="2025-07-10"/>
            <valueQuantity>
               <value value="30.3"/>
               <unit value="kg/m2"/>
               <code value="kg/m2"/>
            </valueQuantity>
         </Observation>
      </resource>
   </entry>
   <entry>
      <fullUrl value="urn:uuid:3c9de288-4c38-46b6-8b14-f8d444a4d220"/>
      <resource>
         <Observation>
            <id value="3c9de288-4c38-46b6-8b14-f8d444a4d220"/>
            <meta>
               <profile value="http://hl7.org/fhir/StructureDefinition/vitalsigns"/>
            </meta>
            <text>
               <status value="generated"/>
               <div xmlns="http://www.w3.org/1999/xhtml">
                  <table class="hl7__ips">
                     <tr>
                        <th>Vital Sign</th>
                        <th>Date</th>
                        <th>Measurement</th>
                     </tr>
                     <tr>
                        <td>Diastolic Blood Pressure</td>
                        <td>10-Jul-2025</td>
                        <td>70 mm[Hg]</td>
                     </tr>
                  </table>
               </div>
            </text>
            <status value="final"/>
            <category>
               <coding>
                  <system value="http://terminology.hl7.org/CodeSystem/observation-category"/>
                  <code value="vital-signs"/>
                  <display value="Vital Signs"/>
               </coding>
            </category>
            <code>
               <coding>
                  <system value="http://loinc.org"/>
                  <code value="$8462-4"/>
                  <display value="Diastolic Blood Pressure"/>
               </coding>
            </code>
            <subject>
               <reference value="urn:uuid:7b7f01f7-be68-4417-831d-aa53d674b363"/>
               <display value="Marthe Gallet"/>
            </subject>
            <effectiveDateTime value="2025-07-10"/>
            <valueQuantity>
               <value value="70"/>
               <unit value="mm[Hg]"/>
               <code value="mm[Hg]"/>
            </valueQuantity>
         </Observation>
      </resource>
   </entry>
   <entry>
      <fullUrl value="urn:uuid:5a4ffcc4-0567-48e4-a0a1-02f947cc89d1"/>
      <resource>
         <Observation>
            <id value="5a4ffcc4-0567-48e4-a0a1-02f947cc89d1"/>
            <meta>
               <profile value="http://hl7.org/fhir/StructureDefinition/vitalsigns"/>
            </meta>
            <text>
               <status value="generated"/>
               <div xmlns="http://www.w3.org/1999/xhtml">
                  <table class="hl7__ips">
                     <tr>
                        <th>Vital Sign</th>
                        <th>Date</th>
                        <th>Measurement</th>
                     </tr>
                     <tr>
                        <td>Systolic Blood Pressure</td>
                        <td>10-Jul-2025</td>
                        <td>113 mm[Hg]</td>
                     </tr>
                  </table>
               </div>
            </text>
            <status value="final"/>
            <category>
               <coding>
                  <system value="http://terminology.hl7.org/CodeSystem/observation-category"/>
                  <code value="vital-signs"/>
                  <display value="Vital Signs"/>
               </coding>
            </category>
            <code>
               <coding>
                  <system value="http://loinc.org"/>
                  <code value="$8480-6"/>
                  <display value="Systolic Blood Pressure"/>
               </coding>
            </code>
            <subject>
               <reference value="urn:uuid:7b7f01f7-be68-4417-831d-aa53d674b363"/>
               <display value="Marthe Gallet"/>
            </subject>
            <effectiveDateTime value="2025-07-10"/>
            <valueQuantity>
               <value value="113"/>
               <unit value="mm[Hg]"/>
               <code value="mm[Hg]"/>
            </valueQuantity>
         </Observation>
      </resource>
   </entry>
   <entry>
      <fullUrl value="urn:uuid:f1ffe6ee-a4cf-4c8b-b1cd-ad195363a365"/>
      <resource>
         <Observation>
            <id value="f1ffe6ee-a4cf-4c8b-b1cd-ad195363a365"/>
            <meta>
               <profile value="http://hl7.org/fhir/StructureDefinition/vitalsigns"/>
            </meta>
            <text>
               <status value="generated"/>
               <div xmlns="http://www.w3.org/1999/xhtml">
                  <table class="hl7__ips">
                     <tr>
                        <th>Vital Sign</th>
                        <th>Date</th>
                        <th>Measurement</th>
                     </tr>
                     <tr>
                        <td>Heart rate</td>
                        <td>10-Jul-2025</td>
                        <td>77 /min</td>
                     </tr>
                  </table>
               </div>
            </text>
            <status value="final"/>
            <category>
               <coding>
                  <system value="http://terminology.hl7.org/CodeSystem/observation-category"/>
                  <code value="vital-signs"/>
                  <display value="Vital Signs"/>
               </coding>
            </category>
            <code>
               <coding>
                  <system value="http://loinc.org"/>
                  <code value="$8867-4"/>
                  <display value="Heart rate"/>
               </coding>
            </code>
            <subject>
               <reference value="urn:uuid:7b7f01f7-be68-4417-831d-aa53d674b363"/>
               <display value="Marthe Gallet"/>
            </subject>
            <effectiveDateTime value="2025-07-10"/>
            <valueQuantity>
               <value value="77"/>
               <unit value="/min"/>
               <code value="/min"/>
            </valueQuantity>
         </Observation>
      </resource>
   </entry>
   <entry>
      <fullUrl value="urn:uuid:b52e8121-76c0-47a9-871f-155794dc14cb"/>
      <resource>
         <Observation>
            <id value="b52e8121-76c0-47a9-871f-155794dc14cb"/>
            <meta>
               <profile value="http://hl7.org/fhir/StructureDefinition/vitalsigns"/>
            </meta>
            <text>
               <status value="generated"/>
               <div xmlns="http://www.w3.org/1999/xhtml">
                  <table class="hl7__ips">
                     <tr>
                        <th>Vital Sign</th>
                        <th>Date</th>
                        <th>Measurement</th>
                     </tr>
                     <tr>
                        <td>Respiratory rate</td>
                        <td>10-Jul-2025</td>
                        <td>13 /min</td>
                     </tr>
                  </table>
               </div>
            </text>
            <status value="final"/>
            <category>
               <coding>
                  <system value="http://terminology.hl7.org/CodeSystem/observation-category"/>
                  <code value="vital-signs"/>
                  <display value="Vital Signs"/>
               </coding>
            </category>
            <code>
               <coding>
                  <system value="http://loinc.org"/>
                  <code value="$9279-1"/>
                  <display value="Respiratory rate"/>
               </coding>
            </code>
            <subject>
               <reference value="urn:uuid:7b7f01f7-be68-4417-831d-aa53d674b363"/>
               <display value="Marthe Gallet"/>
            </subject>
            <effectiveDateTime value="2025-07-10"/>
            <valueQuantity>
               <value value="13"/>
               <unit value="/min"/>
               <code value="/min"/>
            </valueQuantity>
         </Observation>
      </resource>
   </entry>
   <entry>
      <fullUrl value="urn:uuid:c6b793e8-b793-42f9-a02c-2d9442bde8ab"/>
      <resource>
         <Observation>
            <id value="c6b793e8-b793-42f9-a02c-2d9442bde8ab"/>
            <meta>
               <profile value="http://hl7.org/fhir/StructureDefinition/vitalsigns"/>
            </meta>
            <text>
               <status value="generated"/>
               <div xmlns="http://www.w3.org/1999/xhtml">
                  <table class="hl7__ips">
                     <tr>
                        <th>Vital Sign</th>
                        <th>Date</th>
                        <th>Measurement</th>
                     </tr>
                     <tr>
                        <td>Body Height</td>
                        <td>03-Apr-2025</td>
                        <td>154.6 cm</td>
                     </tr>
                  </table>
               </div>
            </text>
            <status value="final"/>
            <category>
               <coding>
                  <system value="http://terminology.hl7.org/CodeSystem/observation-category"/>
                  <code value="vital-signs"/>
                  <display value="Vital Signs"/>
               </coding>
            </category>
            <code>
               <coding>
                  <system value="http://loinc.org"/>
                  <code value="$8302-2"/>
                  <display value="Body Height"/>
               </coding>
            </code>
            <subject>
               <reference value="urn:uuid:7b7f01f7-be68-4417-831d-aa53d674b363"/>
               <display value="Marthe Gallet"/>
            </subject>
            <effectiveDateTime value="2025-04-03"/>
            <valueQuantity>
               <value value="154.6"/>
               <unit value="cm"/>
               <code value="cm"/>
            </valueQuantity>
         </Observation>
      </resource>
   </entry>
   <entry>
      <fullUrl value="urn:uuid:b8972ec5-8435-4967-8533-6a680a7a389f"/>
      <resource>
         <Observation>
            <id value="b8972ec5-8435-4967-8533-6a680a7a389f"/>
            <meta>
               <profile value="http://hl7.org/fhir/StructureDefinition/vitalsigns"/>
            </meta>
            <text>
               <status value="generated"/>
               <div xmlns="http://www.w3.org/1999/xhtml">
                  <table class="hl7__ips">
                     <tr>
                        <th>Vital Sign</th>
                        <th>Date</th>
                        <th>Measurement</th>
                     </tr>
                     <tr>
                        <td>Pain severity - 0-10 verbal numeric rating [Score] - Reported</td>
                        <td>03-Apr-2025</td>
                        <td>4 {score}</td>
                     </tr>
                  </table>
               </div>
            </text>
            <status value="final"/>
            <category>
               <coding>
                  <system value="http://terminology.hl7.org/CodeSystem/observation-category"/>
                  <code value="vital-signs"/>
                  <display value="Vital Signs"/>
               </coding>
            </category>
            <code>
               <coding>
                  <system value="http://loinc.org"/>
                  <code value="$72514-3"/>
                  <display value="Pain severity - 0-10 verbal numeric rating [Score] - Reported"/>
               </coding>
            </code>
            <subject>
               <reference value="urn:uuid:7b7f01f7-be68-4417-831d-aa53d674b363"/>
               <display value="Marthe Gallet"/>
            </subject>
            <effectiveDateTime value="2025-04-03"/>
            <valueQuantity>
               <value value="4"/>
               <unit value="{score}"/>
               <code value="{score}"/>
            </valueQuantity>
         </Observation>
      </resource>
   </entry>
   <entry>
      <fullUrl value="urn:uuid:b46cdb9c-4e90-4ecc-8f25-9511d6461105"/>
      <resource>
         <Observation>
            <id value="b46cdb9c-4e90-4ecc-8f25-9511d6461105"/>
            <meta>
               <profile value="http://hl7.org/fhir/StructureDefinition/vitalsigns"/>
            </meta>
            <text>
               <status value="generated"/>
               <div xmlns="http://www.w3.org/1999/xhtml">
                  <table class="hl7__ips">
                     <tr>
                        <th>Vital Sign</th>
                        <th>Date</th>
                        <th>Measurement</th>
                     </tr>
                     <tr>
                        <td>Body Weight</td>
                        <td>03-Apr-2025</td>
                        <td>72.5 kg</td>
                     </tr>
                  </table>
               </div>
            </text>
            <status value="final"/>
            <category>
               <coding>
                  <system value="http://terminology.hl7.org/CodeSystem/observation-category"/>
                  <code value="vital-signs"/>
                  <display value="Vital Signs"/>
               </coding>
            </category>
            <code>
               <coding>
                  <system value="http://loinc.org"/>
                  <code value="$29463-7"/>
                  <display value="Body Weight"/>
               </coding>
            </code>
            <subject>
               <reference value="urn:uuid:7b7f01f7-be68-4417-831d-aa53d674b363"/>
               <display value="Marthe Gallet"/>
            </subject>
            <effectiveDateTime value="2025-04-03"/>
            <valueQuantity>
               <value value="72.5"/>
               <unit value="kg"/>
               <code value="kg"/>
            </valueQuantity>
         </Observation>
      </resource>
   </entry>
   <entry>
      <fullUrl value="urn:uuid:255072f3-dcb0-4305-a486-7f22b120ed01"/>
      <resource>
         <Observation>
            <id value="255072f3-dcb0-4305-a486-7f22b120ed01"/>
            <meta>
               <profile value="http://hl7.org/fhir/StructureDefinition/vitalsigns"/>
            </meta>
            <text>
               <status value="generated"/>
               <div xmlns="http://www.w3.org/1999/xhtml">
                  <table class="hl7__ips">
                     <tr>
                        <th>Vital Sign</th>
                        <th>Date</th>
                        <th>Measurement</th>
                     </tr>
                     <tr>
                        <td>Body mass index (BMI) [Ratio]</td>
                        <td>03-Apr-2025</td>
                        <td>30.3 kg/m2</td>
                     </tr>
                  </table>
               </div>
            </text>
            <status value="final"/>
            <category>
               <coding>
                  <system value="http://terminology.hl7.org/CodeSystem/observation-category"/>
                  <code value="vital-signs"/>
                  <display value="Vital Signs"/>
               </coding>
            </category>
            <code>
               <coding>
                  <system value="http://loinc.org"/>
                  <code value="$39156-5"/>
                  <display value="Body mass index (BMI) [Ratio]"/>
               </coding>
            </code>
            <subject>
               <reference value="urn:uuid:7b7f01f7-be68-4417-831d-aa53d674b363"/>
               <display value="Marthe Gallet"/>
            </subject>
            <effectiveDateTime value="2025-04-03"/>
            <valueQuantity>
               <value value="30.3"/>
               <unit value="kg/m2"/>
               <code value="kg/m2"/>
            </valueQuantity>
         </Observation>
      </resource>
   </entry>
   <entry>
      <fullUrl value="urn:uuid:ff22f270-8652-429e-bcf3-0846d80179a7"/>
      <resource>
         <Observation>
            <id value="ff22f270-8652-429e-bcf3-0846d80179a7"/>
            <meta>
               <profile value="http://hl7.org/fhir/StructureDefinition/vitalsigns"/>
            </meta>
            <text>
               <status value="generated"/>
               <div xmlns="http://www.w3.org/1999/xhtml">
                  <table class="hl7__ips">
                     <tr>
                        <th>Vital Sign</th>
                        <th>Date</th>
                        <th>Measurement</th>
                     </tr>
                     <tr>
                        <td>Diastolic Blood Pressure</td>
                        <td>03-Apr-2025</td>
                        <td>68 mm[Hg]</td>
                     </tr>
                  </table>
               </div>
            </text>
            <status value="final"/>
            <category>
               <coding>
                  <system value="http://terminology.hl7.org/CodeSystem/observation-category"/>
                  <code value="vital-signs"/>
                  <display value="Vital Signs"/>
               </coding>
            </category>
            <code>
               <coding>
                  <system value="http://loinc.org"/>
                  <code value="$8462-4"/>
                  <display value="Diastolic Blood Pressure"/>
               </coding>
            </code>
            <subject>
               <reference value="urn:uuid:7b7f01f7-be68-4417-831d-aa53d674b363"/>
               <display value="Marthe Gallet"/>
            </subject>
            <effectiveDateTime value="2025-04-03"/>
            <valueQuantity>
               <value value="68"/>
               <unit value="mm[Hg]"/>
               <code value="mm[Hg]"/>
            </valueQuantity>
         </Observation>
      </resource>
   </entry>
   <entry>
      <fullUrl value="urn:uuid:1fc4296c-21f9-47c4-8955-e107147ff6df"/>
      <resource>
         <Observation>
            <id value="1fc4296c-21f9-47c4-8955-e107147ff6df"/>
            <meta>
               <profile value="http://hl7.org/fhir/StructureDefinition/vitalsigns"/>
            </meta>
            <text>
               <status value="generated"/>
               <div xmlns="http://www.w3.org/1999/xhtml">
                  <table class="hl7__ips">
                     <tr>
                        <th>Vital Sign</th>
                        <th>Date</th>
                        <th>Measurement</th>
                     </tr>
                     <tr>
                        <td>Systolic Blood Pressure</td>
                        <td>03-Apr-2025</td>
                        <td>116 mm[Hg]</td>
                     </tr>
                  </table>
               </div>
            </text>
            <status value="final"/>
            <category>
               <coding>
                  <system value="http://terminology.hl7.org/CodeSystem/observation-category"/>
                  <code value="vital-signs"/>
                  <display value="Vital Signs"/>
               </coding>
            </category>
            <code>
               <coding>
                  <system value="http://loinc.org"/>
                  <code value="$8480-6"/>
                  <display value="Systolic Blood Pressure"/>
               </coding>
            </code>
            <subject>
               <reference value="urn:uuid:7b7f01f7-be68-4417-831d-aa53d674b363"/>
               <display value="Marthe Gallet"/>
            </subject>
            <effectiveDateTime value="2025-04-03"/>
            <valueQuantity>
               <value value="116"/>
               <unit value="mm[Hg]"/>
               <code value="mm[Hg]"/>
            </valueQuantity>
         </Observation>
      </resource>
   </entry>
   <entry>
      <fullUrl value="urn:uuid:ae322e1d-6633-4e77-861a-14415d0010cf"/>
      <resource>
         <Observation>
            <id value="ae322e1d-6633-4e77-861a-14415d0010cf"/>
            <meta>
               <profile value="http://hl7.org/fhir/StructureDefinition/vitalsigns"/>
            </meta>
            <text>
               <status value="generated"/>
               <div xmlns="http://www.w3.org/1999/xhtml">
                  <table class="hl7__ips">
                     <tr>
                        <th>Vital Sign</th>
                        <th>Date</th>
                        <th>Measurement</th>
                     </tr>
                     <tr>
                        <td>Heart rate</td>
                        <td>03-Apr-2025</td>
                        <td>97 /min</td>
                     </tr>
                  </table>
               </div>
            </text>
            <status value="final"/>
            <category>
               <coding>
                  <system value="http://terminology.hl7.org/CodeSystem/observation-category"/>
                  <code value="vital-signs"/>
                  <display value="Vital Signs"/>
               </coding>
            </category>
            <code>
               <coding>
                  <system value="http://loinc.org"/>
                  <code value="$8867-4"/>
                  <display value="Heart rate"/>
               </coding>
            </code>
            <subject>
               <reference value="urn:uuid:7b7f01f7-be68-4417-831d-aa53d674b363"/>
               <display value="Marthe Gallet"/>
            </subject>
            <effectiveDateTime value="2025-04-03"/>
            <valueQuantity>
               <value value="97"/>
               <unit value="/min"/>
               <code value="/min"/>
            </valueQuantity>
         </Observation>
      </resource>
   </entry>
   <entry>
      <fullUrl value="urn:uuid:f35667e5-c9ee-433b-8072-97ac5dd0c9ff"/>
      <resource>
         <Observation>
            <id value="f35667e5-c9ee-433b-8072-97ac5dd0c9ff"/>
            <meta>
               <profile value="http://hl7.org/fhir/StructureDefinition/vitalsigns"/>
            </meta>
            <text>
               <status value="generated"/>
               <div xmlns="http://www.w3.org/1999/xhtml">
                  <table class="hl7__ips">
                     <tr>
                        <th>Vital Sign</th>
                        <th>Date</th>
                        <th>Measurement</th>
                     </tr>
                     <tr>
                        <td>Respiratory rate</td>
                        <td>03-Apr-2025</td>
                        <td>15 /min</td>
                     </tr>
                  </table>
               </div>
            </text>
            <status value="final"/>
            <category>
               <coding>
                  <system value="http://terminology.hl7.org/CodeSystem/observation-category"/>
                  <code value="vital-signs"/>
                  <display value="Vital Signs"/>
               </coding>
            </category>
            <code>
               <coding>
                  <system value="http://loinc.org"/>
                  <code value="$9279-1"/>
                  <display value="Respiratory rate"/>
               </coding>
            </code>
            <subject>
               <reference value="urn:uuid:7b7f01f7-be68-4417-831d-aa53d674b363"/>
               <display value="Marthe Gallet"/>
            </subject>
            <effectiveDateTime value="2025-04-03"/>
            <valueQuantity>
               <value value="15"/>
               <unit value="/min"/>
               <code value="/min"/>
            </valueQuantity>
         </Observation>
      </resource>
   </entry>
   <entry>
      <fullUrl value="urn:uuid:eb2d70b0-e41a-4af0-ba91-68defa1b4005"/>
      <resource>
         <Observation>
            <id value="eb2d70b0-e41a-4af0-ba91-68defa1b4005"/>
            <meta>
               <profile value="http://hl7.eu/fhir/laboratory/StructureDefinition/Observation-resultslab-eu-lab"/>
            </meta>
            <text>
               <status value="generated"/>
               <div xmlns="http://www.w3.org/1999/xhtml">
                  <table class="hl7__eu__lab__report">
                     <tr>
                        <th>Test</th>
                        <th>10-Jul-2025</th>
                        <th>Reference Range</th>
                        <th>Unit</th>
                     </tr>
                     <tr>
                        <td>Glucose [Mass/volume] in Serum or Plasma</td>
                        <td>76.4</td>
                        <td>70 - 140</td>
                        <td/>
                        <td>mg/dL</td>
                     </tr>
                  </table>
               </div>
            </text>
            <status value="final"/>
            <category>
               <coding>
                  <system value="http://terminology.hl7.org/CodeSystem/observation-category"/>
                  <code value="laboratory"/>
               </coding>
            </category>
            <code>
               <coding>
                  <system value="http://loinc.org"/>
                  <code value="2345-7"/>
                  <display value="Glucose [Mass/volume] in Serum or Plasma"/>
               </coding>
               <text value="Glucose [Mass/volume] in Serum or Plasma"/>
            </code>
            <subject>
               <reference value="urn:uuid:7b7f01f7-be68-4417-831d-aa53d674b363"/>
               <display value="Marthe Gallet"/>
            </subject>
            <effectiveDateTime value="2025-07-10T19:05:43Z"/>
            <performer>
               <display value="The Central European Lab"/>
            </performer>
            <valueQuantity>
               <value value="76.4"/>
               <unit value="mg/dL"/>
               <system value="http://unitsofmeasure.org"/>
               <code value="mg/dL"/>
            </valueQuantity>
            <referenceRange>
               <low>
                  <value value="70"/>
                  <system value="http://unitsofmeasure.org"/>
                  <code value="mg/dL"/>
               </low>
            </referenceRange>
            <referenceRange>
               <high>
                  <value value="140"/>
                  <system value="http://unitsofmeasure.org"/>
                  <code value="mg/dL"/>
               </high>
            </referenceRange>
         </Observation>
      </resource>
   </entry>
   <entry>
      <fullUrl value="urn:uuid:ebe48ef5-34af-42c8-bd30-f3f16cf6b596"/>
      <resource>
         <Observation>
            <id value="ebe48ef5-34af-42c8-bd30-f3f16cf6b596"/>
            <meta>
               <profile value="http://hl7.eu/fhir/laboratory/StructureDefinition/Observation-resultslab-eu-lab"/>
            </meta>
            <text>
               <status value="generated"/>
               <div xmlns="http://www.w3.org/1999/xhtml">
                  <table class="hl7__eu__lab__report">
                     <tr>
                        <th>Test</th>
                        <th>10-Jul-2025</th>
                        <th>Reference Range</th>
                        <th>Unit</th>
                     </tr>
                     <tr>
                        <td>Urea nitrogen [Mass/volume] in Serum or Plasma</td>
                        <td>16.7</td>
                        <td>7 - 50</td>
                        <td/>
                        <td>mg/dL</td>
                     </tr>
                  </table>
               </div>
            </text>
            <status value="final"/>
            <category>
               <coding>
                  <system value="http://terminology.hl7.org/CodeSystem/observation-category"/>
                  <code value="laboratory"/>
               </coding>
            </category>
            <code>
               <coding>
                  <system value="http://loinc.org"/>
                  <code value="3094-0"/>
                  <display value="Urea nitrogen [Mass/volume] in Serum or Plasma"/>
               </coding>
               <text value="Urea nitrogen [Mass/volume] in Serum or Plasma"/>
            </code>
            <subject>
               <reference value="urn:uuid:7b7f01f7-be68-4417-831d-aa53d674b363"/>
               <display value="Marthe Gallet"/>
            </subject>
            <effectiveDateTime value="2025-07-10T19:05:43Z"/>
            <performer>
               <display value="The Central European Lab"/>
            </performer>
            <valueQuantity>
               <value value="16.7"/>
               <unit value="mg/dL"/>
               <system value="http://unitsofmeasure.org"/>
               <code value="mg/dL"/>
            </valueQuantity>
            <referenceRange>
               <low>
                  <value value="7"/>
                  <system value="http://unitsofmeasure.org"/>
                  <code value="mg/dL"/>
               </low>
            </referenceRange>
            <referenceRange>
               <high>
                  <value value="50"/>
                  <system value="http://unitsofmeasure.org"/>
                  <code value="mg/dL"/>
               </high>
            </referenceRange>
         </Observation>
      </resource>
   </entry>
   <entry>
      <fullUrl value="urn:uuid:9c949798-c0c5-4a6c-917c-79e21fc16819"/>
      <resource>
         <Observation>
            <id value="9c949798-c0c5-4a6c-917c-79e21fc16819"/>
            <meta>
               <profile value="http://hl7.eu/fhir/laboratory/StructureDefinition/Observation-resultslab-eu-lab"/>
            </meta>
            <text>
               <status value="generated"/>
               <div xmlns="http://www.w3.org/1999/xhtml">
                  <table class="hl7__eu__lab__report">
                     <tr>
                        <th>Test</th>
                        <th>10-Jul-2025</th>
                        <th>Reference Range</th>
                        <th>Unit</th>
                     </tr>
                     <tr>
                        <td>Creatinine [Mass/volume] in Serum or Plasma</td>
                        <td>2.1</td>
                        <td>0.6 - 1.1</td>
                        <td>H</td>
                        <td>mg/dL</td>
                     </tr>
                  </table>
               </div>
            </text>
            <status value="final"/>
            <category>
               <coding>
                  <system value="http://terminology.hl7.org/CodeSystem/observation-category"/>
                  <code value="laboratory"/>
               </coding>
            </category>
            <code>
               <coding>
                  <system value="http://loinc.org"/>
                  <code value="2160-0"/>
                  <display value="Creatinine [Mass/volume] in Serum or Plasma"/>
               </coding>
               <text value="Creatinine [Mass/volume] in Serum or Plasma"/>
            </code>
            <subject>
               <reference value="urn:uuid:7b7f01f7-be68-4417-831d-aa53d674b363"/>
               <display value="Marthe Gallet"/>
            </subject>
            <effectiveDateTime value="2025-07-10T19:05:43Z"/>
            <performer>
               <display value="The Central European Lab"/>
            </performer>
            <valueQuantity>
               <value value="2.1"/>
               <unit value="mg/dL"/>
               <system value="http://unitsofmeasure.org"/>
               <code value="mg/dL"/>
            </valueQuantity>
            <interpretation>
               <coding>
                  <system value="http://terminology.hl7.org/CodeSystem/v3-ObservationInterpretation"/>
                  <code value="H"/>
                  <display value="High"/>
               </coding>
            </interpretation>
            <referenceRange>
               <low>
                  <value value="0.6"/>
                  <system value="http://unitsofmeasure.org"/>
                  <code value="mg/dL"/>
               </low>
            </referenceRange>
            <referenceRange>
               <high>
                  <value value="1.1"/>
                  <system value="http://unitsofmeasure.org"/>
                  <code value="mg/dL"/>
               </high>
            </referenceRange>
         </Observation>
      </resource>
   </entry>
   <entry>
      <fullUrl value="urn:uuid:ee91dc4b-04da-4d0a-a804-e78279df820e"/>
      <resource>
         <Observation>
            <id value="ee91dc4b-04da-4d0a-a804-e78279df820e"/>
            <meta>
               <profile value="http://hl7.eu/fhir/laboratory/StructureDefinition/Observation-resultslab-eu-lab"/>
            </meta>
            <text>
               <status value="generated"/>
               <div xmlns="http://www.w3.org/1999/xhtml">
                  <table class="hl7__eu__lab__report">
                     <tr>
                        <th>Test</th>
                        <th>10-Jul-2025</th>
                        <th>Reference Range</th>
                        <th>Unit</th>
                     </tr>
                     <tr>
                        <td>Calcium [Mass/volume] in Serum or Plasma</td>
                        <td>9.5</td>
                        <td>8.5 - 10.5</td>
                        <td/>
                        <td>mg/dL</td>
                     </tr>
                  </table>
               </div>
            </text>
            <status value="final"/>
            <category>
               <coding>
                  <system value="http://terminology.hl7.org/CodeSystem/observation-category"/>
                  <code value="laboratory"/>
               </coding>
            </category>
            <code>
               <coding>
                  <system value="http://loinc.org"/>
                  <code value="17861-6"/>
                  <display value="Calcium [Mass/volume] in Serum or Plasma"/>
               </coding>
               <text value="Calcium [Mass/volume] in Serum or Plasma"/>
            </code>
            <subject>
               <reference value="urn:uuid:7b7f01f7-be68-4417-831d-aa53d674b363"/>
               <display value="Marthe Gallet"/>
            </subject>
            <effectiveDateTime value="2025-07-10T19:05:43Z"/>
            <performer>
               <display value="The Central European Lab"/>
            </performer>
            <valueQuantity>
               <value value="9.5"/>
               <unit value="mg/dL"/>
               <system value="http://unitsofmeasure.org"/>
               <code value="mg/dL"/>
            </valueQuantity>
            <referenceRange>
               <low>
                  <value value="8.5"/>
                  <system value="http://unitsofmeasure.org"/>
                  <code value="mg/dL"/>
               </low>
            </referenceRange>
            <referenceRange>
               <high>
                  <value value="10.5"/>
                  <system value="http://unitsofmeasure.org"/>
                  <code value="mg/dL"/>
               </high>
            </referenceRange>
         </Observation>
      </resource>
   </entry>
   <entry>
      <fullUrl value="urn:uuid:6abadebe-8eb7-432d-9a7b-22bd0aecfc6a"/>
      <resource>
         <Observation>
            <id value="6abadebe-8eb7-432d-9a7b-22bd0aecfc6a"/>
            <meta>
               <profile value="http://hl7.eu/fhir/laboratory/StructureDefinition/Observation-resultslab-eu-lab"/>
            </meta>
            <text>
               <status value="generated"/>
               <div xmlns="http://www.w3.org/1999/xhtml">
                  <table class="hl7__eu__lab__report">
                     <tr>
                        <th>Test</th>
                        <th>10-Jul-2025</th>
                        <th>Reference Range</th>
                        <th>Unit</th>
                     </tr>
                     <tr>
                        <td>Sodium [Moles/volume] in Serum or Plasma</td>
                        <td>143.6</td>
                        <td>135 - 145</td>
                        <td/>
                        <td>mmol/L</td>
                     </tr>
                  </table>
               </div>
            </text>
            <status value="final"/>
            <category>
               <coding>
                  <system value="http://terminology.hl7.org/CodeSystem/observation-category"/>
                  <code value="laboratory"/>
               </coding>
            </category>
            <code>
               <coding>
                  <system value="http://loinc.org"/>
                  <code value="2951-2"/>
                  <display value="Sodium [Moles/volume] in Serum or Plasma"/>
               </coding>
               <text value="Sodium [Moles/volume] in Serum or Plasma"/>
            </code>
            <subject>
               <reference value="urn:uuid:7b7f01f7-be68-4417-831d-aa53d674b363"/>
               <display value="Marthe Gallet"/>
            </subject>
            <effectiveDateTime value="2025-07-10T19:05:43Z"/>
            <performer>
               <display value="The Central European Lab"/>
            </performer>
            <valueQuantity>
               <value value="143.6"/>
               <unit value="mmol/L"/>
               <system value="http://unitsofmeasure.org"/>
               <code value="mmol/L"/>
            </valueQuantity>
            <referenceRange>
               <low>
                  <value value="135"/>
                  <system value="http://unitsofmeasure.org"/>
                  <code value="mmol/L"/>
               </low>
            </referenceRange>
            <referenceRange>
               <high>
                  <value value="145"/>
                  <system value="http://unitsofmeasure.org"/>
                  <code value="mmol/L"/>
               </high>
            </referenceRange>
         </Observation>
      </resource>
   </entry>
   <entry>
      <fullUrl value="urn:uuid:4a0da1b5-1496-4213-8006-ee0152df4207"/>
      <resource>
         <Observation>
            <id value="4a0da1b5-1496-4213-8006-ee0152df4207"/>
            <meta>
               <profile value="http://hl7.eu/fhir/laboratory/StructureDefinition/Observation-resultslab-eu-lab"/>
            </meta>
            <text>
               <status value="generated"/>
               <div xmlns="http://www.w3.org/1999/xhtml">
                  <table class="hl7__eu__lab__report">
                     <tr>
                        <th>Test</th>
                        <th>10-Jul-2025</th>
                        <th>Reference Range</th>
                        <th>Unit</th>
                     </tr>
                     <tr>
                        <td>Potassium [Moles/volume] in Serum or Plasma</td>
                        <td>4.1</td>
                        <td>3.5 - 5.1</td>
                        <td/>
                        <td>mmol/L</td>
                     </tr>
                  </table>
               </div>
            </text>
            <status value="final"/>
            <category>
               <coding>
                  <system value="http://terminology.hl7.org/CodeSystem/observation-category"/>
                  <code value="laboratory"/>
               </coding>
            </category>
            <code>
               <coding>
                  <system value="http://loinc.org"/>
                  <code value="2823-3"/>
                  <display value="Potassium [Moles/volume] in Serum or Plasma"/>
               </coding>
               <text value="Potassium [Moles/volume] in Serum or Plasma"/>
            </code>
            <subject>
               <reference value="urn:uuid:7b7f01f7-be68-4417-831d-aa53d674b363"/>
               <display value="Marthe Gallet"/>
            </subject>
            <effectiveDateTime value="2025-07-10T19:05:43Z"/>
            <performer>
               <display value="The Central European Lab"/>
            </performer>
            <valueQuantity>
               <value value="4.1"/>
               <unit value="mmol/L"/>
               <system value="http://unitsofmeasure.org"/>
               <code value="mmol/L"/>
            </valueQuantity>
            <referenceRange>
               <low>
                  <value value="3.5"/>
                  <system value="http://unitsofmeasure.org"/>
                  <code value="mmol/L"/>
               </low>
            </referenceRange>
            <referenceRange>
               <high>
                  <value value="5.1"/>
                  <system value="http://unitsofmeasure.org"/>
                  <code value="mmol/L"/>
               </high>
            </referenceRange>
         </Observation>
      </resource>
   </entry>
   <entry>
      <fullUrl value="urn:uuid:d04cece5-a81c-4d89-b643-b6cea92e2fb8"/>
      <resource>
         <Observation>
            <id value="d04cece5-a81c-4d89-b643-b6cea92e2fb8"/>
            <meta>
               <profile value="http://hl7.eu/fhir/laboratory/StructureDefinition/Observation-resultslab-eu-lab"/>
            </meta>
            <text>
               <status value="generated"/>
               <div xmlns="http://www.w3.org/1999/xhtml">
                  <table class="hl7__eu__lab__report">
                     <tr>
                        <th>Test</th>
                        <th>10-Jul-2025</th>
                        <th>Reference Range</th>
                        <th>Unit</th>
                     </tr>
                     <tr>
                        <td>Chloride [Moles/volume] in Serum or Plasma</td>
                        <td>102.5</td>
                        <td>98 - 108</td>
                        <td/>
                        <td>mmol/L</td>
                     </tr>
                  </table>
               </div>
            </text>
            <status value="final"/>
            <category>
               <coding>
                  <system value="http://terminology.hl7.org/CodeSystem/observation-category"/>
                  <code value="laboratory"/>
               </coding>
            </category>
            <code>
               <coding>
                  <system value="http://loinc.org"/>
                  <code value="2075-0"/>
                  <display value="Chloride [Moles/volume] in Serum or Plasma"/>
               </coding>
               <text value="Chloride [Moles/volume] in Serum or Plasma"/>
            </code>
            <subject>
               <reference value="urn:uuid:7b7f01f7-be68-4417-831d-aa53d674b363"/>
               <display value="Marthe Gallet"/>
            </subject>
            <effectiveDateTime value="2025-07-10T19:05:43Z"/>
            <performer>
               <display value="The Central European Lab"/>
            </performer>
            <valueQuantity>
               <value value="102.5"/>
               <unit value="mmol/L"/>
               <system value="http://unitsofmeasure.org"/>
               <code value="mmol/L"/>
            </valueQuantity>
            <referenceRange>
               <low>
                  <value value="98"/>
                  <system value="http://unitsofmeasure.org"/>
                  <code value="mmol/L"/>
               </low>
            </referenceRange>
            <referenceRange>
               <high>
                  <value value="108"/>
                  <system value="http://unitsofmeasure.org"/>
                  <code value="mmol/L"/>
               </high>
            </referenceRange>
         </Observation>
      </resource>
   </entry>
   <entry>
      <fullUrl value="urn:uuid:6902e8fd-650b-4cc0-96f5-23077e4cdc97"/>
      <resource>
         <Observation>
            <id value="6902e8fd-650b-4cc0-96f5-23077e4cdc97"/>
            <meta>
               <profile value="http://hl7.eu/fhir/laboratory/StructureDefinition/Observation-resultslab-eu-lab"/>
            </meta>
            <text>
               <status value="generated"/>
               <div xmlns="http://www.w3.org/1999/xhtml">
                  <table class="hl7__eu__lab__report">
                     <tr>
                        <th>Test</th>
                        <th>10-Jul-2025</th>
                        <th>Reference Range</th>
                        <th>Unit</th>
                     </tr>
                     <tr>
                        <td>Carbon dioxide, total [Moles/volume] in Serum or Plasma</td>
                        <td>21.0</td>
                        <td>22 - 32</td>
                        <td>L</td>
                        <td>mmol/L</td>
                     </tr>
                  </table>
               </div>
            </text>
            <status value="final"/>
            <category>
               <coding>
                  <system value="http://terminology.hl7.org/CodeSystem/observation-category"/>
                  <code value="laboratory"/>
               </coding>
            </category>
            <code>
               <coding>
                  <system value="http://loinc.org"/>
                  <code value="2028-9"/>
                  <display value="Carbon dioxide, total [Moles/volume] in Serum or Plasma"/>
               </coding>
               <text value="Carbon dioxide, total [Moles/volume] in Serum or Plasma"/>
            </code>
            <subject>
               <reference value="urn:uuid:7b7f01f7-be68-4417-831d-aa53d674b363"/>
               <display value="Marthe Gallet"/>
            </subject>
            <effectiveDateTime value="2025-07-10T19:05:43Z"/>
            <performer>
               <display value="The Central European Lab"/>
            </performer>
            <valueQuantity>
               <value value="21"/>
               <unit value="mmol/L"/>
               <system value="http://unitsofmeasure.org"/>
               <code value="mmol/L"/>
            </valueQuantity>
            <interpretation>
               <coding>
                  <system value="http://terminology.hl7.org/CodeSystem/v3-ObservationInterpretation"/>
                  <code value="L"/>
                  <display value="Low"/>
               </coding>
            </interpretation>
            <referenceRange>
               <low>
                  <value value="22"/>
                  <system value="http://unitsofmeasure.org"/>
                  <code value="mmol/L"/>
               </low>
            </referenceRange>
            <referenceRange>
               <high>
                  <value value="32"/>
                  <system value="http://unitsofmeasure.org"/>
                  <code value="mmol/L"/>
               </high>
            </referenceRange>
         </Observation>
      </resource>
   </entry>
   <entry>
      <fullUrl value="urn:uuid:945a601e-2491-4524-be3b-d48b713fab1a"/>
      <resource>
         <Observation>
            <id value="945a601e-2491-4524-be3b-d48b713fab1a"/>
            <meta>
               <profile value="http://hl7.eu/fhir/laboratory/StructureDefinition/Observation-resultslab-eu-lab"/>
            </meta>
            <text>
               <status value="generated"/>
               <div xmlns="http://www.w3.org/1999/xhtml">
                  <table class="hl7__eu__lab__report">
                     <tr>
                        <th>Test</th>
                        <th>10-Jul-2025</th>
                        <th>Reference Range</th>
                        <th>Unit</th>
                     </tr>
                     <tr>
                        <td>Appearance of Urine</td>
                     </tr>
                  </table>
               </div>
            </text>
            <status value="final"/>
            <category>
               <coding>
                  <system value="http://terminology.hl7.org/CodeSystem/observation-category"/>
                  <code value="laboratory"/>
               </coding>
            </category>
            <code>
               <coding>
                  <system value="http://loinc.org"/>
                  <code value="5767-9"/>
                  <display value="Appearance of Urine"/>
               </coding>
               <text value="Appearance of Urine"/>
            </code>
            <subject>
               <reference value="urn:uuid:7b7f01f7-be68-4417-831d-aa53d674b363"/>
               <display value="Marthe Gallet"/>
            </subject>
            <effectiveDateTime value="2025-07-10T19:05:43Z"/>
            <performer>
               <display value="The Central European Lab"/>
            </performer>
         </Observation>
      </resource>
   </entry>
   <entry>
      <fullUrl value="urn:uuid:b09165f8-0d29-4ac5-8217-7f585a969de3"/>
      <resource>
         <Observation>
            <id value="b09165f8-0d29-4ac5-8217-7f585a969de3"/>
            <meta>
               <profile value="http://hl7.eu/fhir/laboratory/StructureDefinition/Observation-resultslab-eu-lab"/>
            </meta>
            <text>
               <status value="generated"/>
               <div xmlns="http://www.w3.org/1999/xhtml">
                  <table class="hl7__eu__lab__report">
                     <tr>
                        <th>Test</th>
                        <th>10-Jul-2025</th>
                        <th>Reference Range</th>
                        <th>Unit</th>
                     </tr>
                     <tr>
                        <td>Odor of Urine</td>
                     </tr>
                  </table>
               </div>
            </text>
            <status value="final"/>
            <category>
               <coding>
                  <system value="http://terminology.hl7.org/CodeSystem/observation-category"/>
                  <code value="laboratory"/>
               </coding>
            </category>
            <code>
               <coding>
                  <system value="http://loinc.org"/>
                  <code value="34533-0"/>
                  <display value="Odor of Urine"/>
               </coding>
               <text value="Odor of Urine"/>
            </code>
            <subject>
               <reference value="urn:uuid:7b7f01f7-be68-4417-831d-aa53d674b363"/>
               <display value="Marthe Gallet"/>
            </subject>
            <effectiveDateTime value="2025-07-10T19:05:43Z"/>
            <performer>
               <display value="The Central European Lab"/>
            </performer>
         </Observation>
      </resource>
   </entry>
   <entry>
      <fullUrl value="urn:uuid:80e89271-576f-4c8c-98df-725ccd226403"/>
      <resource>
         <Observation>
            <id value="80e89271-576f-4c8c-98df-725ccd226403"/>
            <meta>
               <profile value="http://hl7.eu/fhir/laboratory/StructureDefinition/Observation-resultslab-eu-lab"/>
            </meta>
            <text>
               <status value="generated"/>
               <div xmlns="http://www.w3.org/1999/xhtml">
                  <table class="hl7__eu__lab__report">
                     <tr>
                        <th>Test</th>
                        <th>10-Jul-2025</th>
                        <th>Reference Range</th>
                        <th>Unit</th>
                     </tr>
                     <tr>
                        <td>Clarity of Urine</td>
                     </tr>
                  </table>
               </div>
            </text>
            <status value="final"/>
            <category>
               <coding>
                  <system value="http://terminology.hl7.org/CodeSystem/observation-category"/>
                  <code value="laboratory"/>
               </coding>
            </category>
            <code>
               <coding>
                  <system value="http://loinc.org"/>
                  <code value="32167-9"/>
                  <display value="Clarity of Urine"/>
               </coding>
               <text value="Clarity of Urine"/>
            </code>
            <subject>
               <reference value="urn:uuid:7b7f01f7-be68-4417-831d-aa53d674b363"/>
               <display value="Marthe Gallet"/>
            </subject>
            <effectiveDateTime value="2025-07-10T19:05:43Z"/>
            <performer>
               <display value="The Central European Lab"/>
            </performer>
         </Observation>
      </resource>
   </entry>
   <entry>
      <fullUrl value="urn:uuid:43dba35c-bf11-42ef-b6a3-8ef2712c0704"/>
      <resource>
         <Observation>
            <id value="43dba35c-bf11-42ef-b6a3-8ef2712c0704"/>
            <meta>
               <profile value="http://hl7.eu/fhir/laboratory/StructureDefinition/Observation-resultslab-eu-lab"/>
            </meta>
            <text>
               <status value="generated"/>
               <div xmlns="http://www.w3.org/1999/xhtml">
                  <table class="hl7__eu__lab__report">
                     <tr>
                        <th>Test</th>
                        <th>10-Jul-2025</th>
                        <th>Reference Range</th>
                        <th>Unit</th>
                     </tr>
                     <tr>
                        <td>Color of Urine</td>
                     </tr>
                  </table>
               </div>
            </text>
            <status value="final"/>
            <category>
               <coding>
                  <system value="http://terminology.hl7.org/CodeSystem/observation-category"/>
                  <code value="laboratory"/>
               </coding>
            </category>
            <code>
               <coding>
                  <system value="http://loinc.org"/>
                  <code value="5778-6"/>
                  <display value="Color of Urine"/>
               </coding>
               <text value="Color of Urine"/>
            </code>
            <subject>
               <reference value="urn:uuid:7b7f01f7-be68-4417-831d-aa53d674b363"/>
               <display value="Marthe Gallet"/>
            </subject>
            <effectiveDateTime value="2025-07-10T19:05:43Z"/>
            <performer>
               <display value="The Central European Lab"/>
            </performer>
         </Observation>
      </resource>
   </entry>
   <entry>
      <fullUrl value="urn:uuid:91d53a3a-5b5d-482b-9a2f-b95f292dba7b"/>
      <resource>
         <Observation>
            <id value="91d53a3a-5b5d-482b-9a2f-b95f292dba7b"/>
            <meta>
               <profile value="http://hl7.eu/fhir/laboratory/StructureDefinition/Observation-resultslab-eu-lab"/>
            </meta>
            <text>
               <status value="generated"/>
               <div xmlns="http://www.w3.org/1999/xhtml">
                  <table class="hl7__eu__lab__report">
                     <tr>
                        <th>Test</th>
                        <th>10-Jul-2025</th>
                        <th>Reference Range</th>
                        <th>Unit</th>
                     </tr>
                     <tr>
                        <td>Glucose [Mass/volume] in Urine by Test strip</td>
                        <td>1.8</td>
                        <td>0.8 - 0</td>
                        <td>H</td>
                        <td>mg/dL</td>
                     </tr>
                  </table>
               </div>
            </text>
            <status value="final"/>
            <category>
               <coding>
                  <system value="http://terminology.hl7.org/CodeSystem/observation-category"/>
                  <code value="laboratory"/>
               </coding>
            </category>
            <code>
               <coding>
                  <system value="http://loinc.org"/>
                  <code value="5792-7"/>
                  <display value="Glucose [Mass/volume] in Urine by Test strip"/>
               </coding>
               <text value="Glucose [Mass/volume] in Urine by Test strip"/>
            </code>
            <subject>
               <reference value="urn:uuid:7b7f01f7-be68-4417-831d-aa53d674b363"/>
               <display value="Marthe Gallet"/>
            </subject>
            <effectiveDateTime value="2025-07-10T19:05:43Z"/>
            <performer>
               <display value="The Central European Lab"/>
            </performer>
            <valueQuantity>
               <value value="1.8"/>
               <unit value="mg/dL"/>
               <system value="http://unitsofmeasure.org"/>
               <code value="mg/dL"/>
            </valueQuantity>
            <interpretation>
               <coding>
                  <system value="http://terminology.hl7.org/CodeSystem/v3-ObservationInterpretation"/>
                  <code value="H"/>
                  <display value="High"/>
               </coding>
            </interpretation>
            <referenceRange>
               <low>
                  <value value="0.8"/>
                  <system value="http://unitsofmeasure.org"/>
                  <code value="mg/dL"/>
               </low>
            </referenceRange>
            <referenceRange>
               <high>
                  <value value="0"/>
                  <system value="http://unitsofmeasure.org"/>
                  <code value="mg/dL"/>
               </high>
            </referenceRange>
         </Observation>
      </resource>
   </entry>
   <entry>
      <fullUrl value="urn:uuid:a9c9e1ed-384a-4e64-ad48-d828f4b526c8"/>
      <resource>
         <Observation>
            <id value="a9c9e1ed-384a-4e64-ad48-d828f4b526c8"/>
            <meta>
               <profile value="http://hl7.eu/fhir/laboratory/StructureDefinition/Observation-resultslab-eu-lab"/>
            </meta>
            <text>
               <status value="generated"/>
               <div xmlns="http://www.w3.org/1999/xhtml">
                  <table class="hl7__eu__lab__report">
                     <tr>
                        <th>Test</th>
                        <th>10-Jul-2025</th>
                        <th>Reference Range</th>
                        <th>Unit</th>
                     </tr>
                     <tr>
                        <td>Glucose [Presence] in Urine by Test strip</td>
                     </tr>
                  </table>
               </div>
            </text>
            <status value="final"/>
            <category>
               <coding>
                  <system value="http://terminology.hl7.org/CodeSystem/observation-category"/>
                  <code value="laboratory"/>
               </coding>
            </category>
            <code>
               <coding>
                  <system value="http://loinc.org"/>
                  <code value="25428-4"/>
                  <display value="Glucose [Presence] in Urine by Test strip"/>
               </coding>
               <text value="Glucose [Presence] in Urine by Test strip"/>
            </code>
            <subject>
               <reference value="urn:uuid:7b7f01f7-be68-4417-831d-aa53d674b363"/>
               <display value="Marthe Gallet"/>
            </subject>
            <effectiveDateTime value="2025-07-10T19:05:43Z"/>
            <performer>
               <display value="The Central European Lab"/>
            </performer>
         </Observation>
      </resource>
   </entry>
   <entry>
      <fullUrl value="urn:uuid:e0cc712c-39a7-41f2-a978-14342ceaad2a"/>
      <resource>
         <Observation>
            <id value="e0cc712c-39a7-41f2-a978-14342ceaad2a"/>
            <meta>
               <profile value="http://hl7.eu/fhir/laboratory/StructureDefinition/Observation-resultslab-eu-lab"/>
            </meta>
            <text>
               <status value="generated"/>
               <div xmlns="http://www.w3.org/1999/xhtml">
                  <table class="hl7__eu__lab__report">
                     <tr>
                        <th>Test</th>
                        <th>10-Jul-2025</th>
                        <th>Reference Range</th>
                        <th>Unit</th>
                     </tr>
                     <tr>
                        <td>Bilirubin.total [Mass/volume] in Urine by Test strip</td>
                        <td>0.8</td>
                        <td>0 - 1</td>
                        <td/>
                        <td>mg/dL</td>
                     </tr>
                  </table>
               </div>
            </text>
            <status value="final"/>
            <category>
               <coding>
                  <system value="http://terminology.hl7.org/CodeSystem/observation-category"/>
                  <code value="laboratory"/>
               </coding>
            </category>
            <code>
               <coding>
                  <system value="http://loinc.org"/>
                  <code value="20505-4"/>
                  <display value="Bilirubin.total [Mass/volume] in Urine by Test strip"/>
               </coding>
               <text value="Bilirubin.total [Mass/volume] in Urine by Test strip"/>
            </code>
            <subject>
               <reference value="urn:uuid:7b7f01f7-be68-4417-831d-aa53d674b363"/>
               <display value="Marthe Gallet"/>
            </subject>
            <effectiveDateTime value="2025-07-10T19:05:43Z"/>
            <performer>
               <display value="The Central European Lab"/>
            </performer>
            <valueQuantity>
               <value value="0.8"/>
               <unit value="mg/dL"/>
               <system value="http://unitsofmeasure.org"/>
               <code value="mg/dL"/>
            </valueQuantity>
            <referenceRange>
               <low>
                  <value value="0"/>
                  <system value="http://unitsofmeasure.org"/>
                  <code value="mg/dL"/>
               </low>
            </referenceRange>
            <referenceRange>
               <high>
                  <value value="1"/>
                  <system value="http://unitsofmeasure.org"/>
                  <code value="mg/dL"/>
               </high>
            </referenceRange>
         </Observation>
      </resource>
   </entry>
   <entry>
      <fullUrl value="urn:uuid:8e7f43a5-6243-4053-b986-a37121c552e0"/>
      <resource>
         <Observation>
            <id value="8e7f43a5-6243-4053-b986-a37121c552e0"/>
            <meta>
               <profile value="http://hl7.eu/fhir/laboratory/StructureDefinition/Observation-resultslab-eu-lab"/>
            </meta>
            <text>
               <status value="generated"/>
               <div xmlns="http://www.w3.org/1999/xhtml">
                  <table class="hl7__eu__lab__report">
                     <tr>
                        <th>Test</th>
                        <th>10-Jul-2025</th>
                        <th>Reference Range</th>
                        <th>Unit</th>
                     </tr>
                     <tr>
                        <td>Bilirubin.total [Presence] in Urine by Test strip</td>
                     </tr>
                  </table>
               </div>
            </text>
            <status value="final"/>
            <category>
               <coding>
                  <system value="http://terminology.hl7.org/CodeSystem/observation-category"/>
                  <code value="laboratory"/>
               </coding>
            </category>
            <code>
               <coding>
                  <system value="http://loinc.org"/>
                  <code value="5770-3"/>
                  <display value="Bilirubin.total [Presence] in Urine by Test strip"/>
               </coding>
               <text value="Bilirubin.total [Presence] in Urine by Test strip"/>
            </code>
            <subject>
               <reference value="urn:uuid:7b7f01f7-be68-4417-831d-aa53d674b363"/>
               <display value="Marthe Gallet"/>
            </subject>
            <effectiveDateTime value="2025-07-10T19:05:43Z"/>
            <performer>
               <display value="The Central European Lab"/>
            </performer>
         </Observation>
      </resource>
   </entry>
   <entry>
      <fullUrl value="urn:uuid:91c92c0f-3f4a-4115-a385-d2dbc9006212"/>
      <resource>
         <Observation>
            <id value="91c92c0f-3f4a-4115-a385-d2dbc9006212"/>
            <meta>
               <profile value="http://hl7.eu/fhir/laboratory/StructureDefinition/Observation-resultslab-eu-lab"/>
            </meta>
            <text>
               <status value="generated"/>
               <div xmlns="http://www.w3.org/1999/xhtml">
                  <table class="hl7__eu__lab__report">
                     <tr>
                        <th>Test</th>
                        <th>10-Jul-2025</th>
                        <th>Reference Range</th>
                        <th>Unit</th>
                     </tr>
                     <tr>
                        <td>Ketones [Mass/volume] in Urine by Test strip</td>
                        <td>12.0</td>
                        <td>0 - 20</td>
                        <td/>
                        <td>mg/dL</td>
                     </tr>
                  </table>
               </div>
            </text>
            <status value="final"/>
            <category>
               <coding>
                  <system value="http://terminology.hl7.org/CodeSystem/observation-category"/>
                  <code value="laboratory"/>
               </coding>
            </category>
            <code>
               <coding>
                  <system value="http://loinc.org"/>
                  <code value="5797-6"/>
                  <display value="Ketones [Mass/volume] in Urine by Test strip"/>
               </coding>
               <text value="Ketones [Mass/volume] in Urine by Test strip"/>
            </code>
            <subject>
               <reference value="urn:uuid:7b7f01f7-be68-4417-831d-aa53d674b363"/>
               <display value="Marthe Gallet"/>
            </subject>
            <effectiveDateTime value="2025-07-10T19:05:43Z"/>
            <performer>
               <display value="The Central European Lab"/>
            </performer>
            <valueQuantity>
               <value value="12"/>
               <unit value="mg/dL"/>
               <system value="http://unitsofmeasure.org"/>
               <code value="mg/dL"/>
            </valueQuantity>
            <referenceRange>
               <low>
                  <value value="0"/>
                  <system value="http://unitsofmeasure.org"/>
                  <code value="mg/dL"/>
               </low>
            </referenceRange>
            <referenceRange>
               <high>
                  <value value="20"/>
                  <system value="http://unitsofmeasure.org"/>
                  <code value="mg/dL"/>
               </high>
            </referenceRange>
         </Observation>
      </resource>
   </entry>
   <entry>
      <fullUrl value="urn:uuid:db219039-890b-41d8-883b-2851e6f25c30"/>
      <resource>
         <Observation>
            <id value="db219039-890b-41d8-883b-2851e6f25c30"/>
            <meta>
               <profile value="http://hl7.eu/fhir/laboratory/StructureDefinition/Observation-resultslab-eu-lab"/>
            </meta>
            <text>
               <status value="generated"/>
               <div xmlns="http://www.w3.org/1999/xhtml">
                  <table class="hl7__eu__lab__report">
                     <tr>
                        <th>Test</th>
                        <th>10-Jul-2025</th>
                        <th>Reference Range</th>
                        <th>Unit</th>
                     </tr>
                     <tr>
                        <td>Ketones [Presence] in Urine by Test strip</td>
                     </tr>
                  </table>
               </div>
            </text>
            <status value="final"/>
            <category>
               <coding>
                  <system value="http://terminology.hl7.org/CodeSystem/observation-category"/>
                  <code value="laboratory"/>
               </coding>
            </category>
            <code>
               <coding>
                  <system value="http://loinc.org"/>
                  <code value="2514-8"/>
                  <display value="Ketones [Presence] in Urine by Test strip"/>
               </coding>
               <text value="Ketones [Presence] in Urine by Test strip"/>
            </code>
            <subject>
               <reference value="urn:uuid:7b7f01f7-be68-4417-831d-aa53d674b363"/>
               <display value="Marthe Gallet"/>
            </subject>
            <effectiveDateTime value="2025-07-10T19:05:43Z"/>
            <performer>
               <display value="The Central European Lab"/>
            </performer>
         </Observation>
      </resource>
   </entry>
   <entry>
      <fullUrl value="urn:uuid:27a264f9-b421-40fa-8544-8debbf9e841d"/>
      <resource>
         <Observation>
            <id value="27a264f9-b421-40fa-8544-8debbf9e841d"/>
            <meta>
               <profile value="http://hl7.eu/fhir/laboratory/StructureDefinition/Observation-resultslab-eu-lab"/>
            </meta>
            <text>
               <status value="generated"/>
               <div xmlns="http://www.w3.org/1999/xhtml">
                  <table class="hl7__eu__lab__report">
                     <tr>
                        <th>Test</th>
                        <th>10-Jul-2025</th>
                        <th>Reference Range</th>
                        <th>Unit</th>
                     </tr>
                     <tr>
                        <td>Specific gravity of Urine by Test strip</td>
                        <td>1.0</td>
                        <td>1.01 - 1.03</td>
                        <td>L</td>
                        <td>{nominal}</td>
                     </tr>
                  </table>
               </div>
            </text>
            <status value="final"/>
            <category>
               <coding>
                  <system value="http://terminology.hl7.org/CodeSystem/observation-category"/>
                  <code value="laboratory"/>
               </coding>
            </category>
            <code>
               <coding>
                  <system value="http://loinc.org"/>
                  <code value="5811-5"/>
                  <display value="Specific gravity of Urine by Test strip"/>
               </coding>
               <text value="Specific gravity of Urine by Test strip"/>
            </code>
            <subject>
               <reference value="urn:uuid:7b7f01f7-be68-4417-831d-aa53d674b363"/>
               <display value="Marthe Gallet"/>
            </subject>
            <effectiveDateTime value="2025-07-10T19:05:43Z"/>
            <performer>
               <display value="The Central European Lab"/>
            </performer>
            <valueQuantity>
               <value value="1"/>
               <unit value="{nominal}"/>
               <system value="http://unitsofmeasure.org"/>
               <code value="{nominal}"/>
            </valueQuantity>
            <interpretation>
               <coding>
                  <system value="http://terminology.hl7.org/CodeSystem/v3-ObservationInterpretation"/>
                  <code value="L"/>
                  <display value="Low"/>
               </coding>
            </interpretation>
            <referenceRange>
               <low>
                  <value value="1.01"/>
                  <system value="http://unitsofmeasure.org"/>
                  <code value="g/mL"/>
               </low>
            </referenceRange>
            <referenceRange>
               <high>
                  <value value="1.03"/>
                  <system value="http://unitsofmeasure.org"/>
                  <code value="g/mL"/>
               </high>
            </referenceRange>
         </Observation>
      </resource>
   </entry>
   <entry>
      <fullUrl value="urn:uuid:53b51cde-cc3f-4862-806a-1248cc86072c"/>
      <resource>
         <Observation>
            <id value="53b51cde-cc3f-4862-806a-1248cc86072c"/>
            <meta>
               <profile value="http://hl7.eu/fhir/laboratory/StructureDefinition/Observation-resultslab-eu-lab"/>
            </meta>
            <text>
               <status value="generated"/>
               <div xmlns="http://www.w3.org/1999/xhtml">
                  <table class="hl7__eu__lab__report">
                     <tr>
                        <th>Test</th>
                        <th>10-Jul-2025</th>
                        <th>Reference Range</th>
                        <th>Unit</th>
                     </tr>
                     <tr>
                        <td>pH of Urine by Test strip</td>
                        <td>6.0</td>
                        <td>4.6 - 7</td>
                        <td/>
                        <td>pH</td>
                     </tr>
                  </table>
               </div>
            </text>
            <status value="final"/>
            <category>
               <coding>
                  <system value="http://terminology.hl7.org/CodeSystem/observation-category"/>
                  <code value="laboratory"/>
               </coding>
            </category>
            <code>
               <coding>
                  <system value="http://loinc.org"/>
                  <code value="5803-2"/>
                  <display value="pH of Urine by Test strip"/>
               </coding>
               <text value="pH of Urine by Test strip"/>
            </code>
            <subject>
               <reference value="urn:uuid:7b7f01f7-be68-4417-831d-aa53d674b363"/>
               <display value="Marthe Gallet"/>
            </subject>
            <effectiveDateTime value="2025-07-10T19:05:43Z"/>
            <performer>
               <display value="The Central European Lab"/>
            </performer>
            <valueQuantity>
               <value value="6"/>
               <unit value="pH"/>
               <system value="http://unitsofmeasure.org"/>
               <code value="pH"/>
            </valueQuantity>
            <referenceRange>
               <low>
                  <value value="4.6"/>
                  <system value="http://unitsofmeasure.org"/>
                  <code value="pH"/>
               </low>
            </referenceRange>
            <referenceRange>
               <high>
                  <value value="7"/>
                  <system value="http://unitsofmeasure.org"/>
                  <code value="pH"/>
               </high>
            </referenceRange>
         </Observation>
      </resource>
   </entry>
   <entry>
      <fullUrl value="urn:uuid:f7340d3a-5646-4135-b195-d3c8efce421d"/>
      <resource>
         <Observation>
            <id value="f7340d3a-5646-4135-b195-d3c8efce421d"/>
            <meta>
               <profile value="http://hl7.eu/fhir/laboratory/StructureDefinition/Observation-resultslab-eu-lab"/>
            </meta>
            <text>
               <status value="generated"/>
               <div xmlns="http://www.w3.org/1999/xhtml">
                  <table class="hl7__eu__lab__report">
                     <tr>
                        <th>Test</th>
                        <th>10-Jul-2025</th>
                        <th>Reference Range</th>
                        <th>Unit</th>
                     </tr>
                     <tr>
                        <td>Protein [Mass/volume] in Urine by Test strip</td>
                        <td>223.4</td>
                        <td>0 - 15</td>
                        <td>H</td>
                        <td>mg/dL</td>
                     </tr>
                  </table>
               </div>
            </text>
            <status value="final"/>
            <category>
               <coding>
                  <system value="http://terminology.hl7.org/CodeSystem/observation-category"/>
                  <code value="laboratory"/>
               </coding>
            </category>
            <code>
               <coding>
                  <system value="http://loinc.org"/>
                  <code value="5804-0"/>
                  <display value="Protein [Mass/volume] in Urine by Test strip"/>
               </coding>
               <text value="Protein [Mass/volume] in Urine by Test strip"/>
            </code>
            <subject>
               <reference value="urn:uuid:7b7f01f7-be68-4417-831d-aa53d674b363"/>
               <display value="Marthe Gallet"/>
            </subject>
            <effectiveDateTime value="2025-07-10T19:05:43Z"/>
            <performer>
               <display value="The Central European Lab"/>
            </performer>
            <valueQuantity>
               <value value="223.4"/>
               <unit value="mg/dL"/>
               <system value="http://unitsofmeasure.org"/>
               <code value="mg/dL"/>
            </valueQuantity>
            <interpretation>
               <coding>
                  <system value="http://terminology.hl7.org/CodeSystem/v3-ObservationInterpretation"/>
                  <code value="H"/>
                  <display value="High"/>
               </coding>
            </interpretation>
            <referenceRange>
               <low>
                  <value value="0"/>
                  <system value="http://unitsofmeasure.org"/>
                  <code value="mg/dL"/>
               </low>
            </referenceRange>
            <referenceRange>
               <high>
                  <value value="15"/>
                  <system value="http://unitsofmeasure.org"/>
                  <code value="mg/dL"/>
               </high>
            </referenceRange>
         </Observation>
      </resource>
   </entry>
   <entry>
      <fullUrl value="urn:uuid:1c82083f-26ab-4927-9b58-847bd0a2fb72"/>
      <resource>
         <Observation>
            <id value="1c82083f-26ab-4927-9b58-847bd0a2fb72"/>
            <meta>
               <profile value="http://hl7.eu/fhir/laboratory/StructureDefinition/Observation-resultslab-eu-lab"/>
            </meta>
            <text>
               <status value="generated"/>
               <div xmlns="http://www.w3.org/1999/xhtml">
                  <table class="hl7__eu__lab__report">
                     <tr>
                        <th>Test</th>
                        <th>10-Jul-2025</th>
                        <th>Reference Range</th>
                        <th>Unit</th>
                     </tr>
                     <tr>
                        <td>Protein [Presence] in Urine by Test strip</td>
                     </tr>
                  </table>
               </div>
            </text>
            <status value="final"/>
            <category>
               <coding>
                  <system value="http://terminology.hl7.org/CodeSystem/observation-category"/>
                  <code value="laboratory"/>
               </coding>
            </category>
            <code>
               <coding>
                  <system value="http://loinc.org"/>
                  <code value="20454-5"/>
                  <display value="Protein [Presence] in Urine by Test strip"/>
               </coding>
               <text value="Protein [Presence] in Urine by Test strip"/>
            </code>
            <subject>
               <reference value="urn:uuid:7b7f01f7-be68-4417-831d-aa53d674b363"/>
               <display value="Marthe Gallet"/>
            </subject>
            <effectiveDateTime value="2025-07-10T19:05:43Z"/>
            <performer>
               <display value="The Central European Lab"/>
            </performer>
         </Observation>
      </resource>
   </entry>
   <entry>
      <fullUrl value="urn:uuid:e8d27cb7-6468-4042-bdc8-f1afdd6e5b71"/>
      <resource>
         <Observation>
            <id value="e8d27cb7-6468-4042-bdc8-f1afdd6e5b71"/>
            <meta>
               <profile value="http://hl7.eu/fhir/laboratory/StructureDefinition/Observation-resultslab-eu-lab"/>
            </meta>
            <text>
               <status value="generated"/>
               <div xmlns="http://www.w3.org/1999/xhtml">
                  <table class="hl7__eu__lab__report">
                     <tr>
                        <th>Test</th>
                        <th>10-Jul-2025</th>
                        <th>Reference Range</th>
                        <th>Unit</th>
                     </tr>
                     <tr>
                        <td>Nitrite [Presence] in Urine by Test strip</td>
                     </tr>
                  </table>
               </div>
            </text>
            <status value="final"/>
            <category>
               <coding>
                  <system value="http://terminology.hl7.org/CodeSystem/observation-category"/>
                  <code value="laboratory"/>
               </coding>
            </category>
            <code>
               <coding>
                  <system value="http://loinc.org"/>
                  <code value="5802-4"/>
                  <display value="Nitrite [Presence] in Urine by Test strip"/>
               </coding>
               <text value="Nitrite [Presence] in Urine by Test strip"/>
            </code>
            <subject>
               <reference value="urn:uuid:7b7f01f7-be68-4417-831d-aa53d674b363"/>
               <display value="Marthe Gallet"/>
            </subject>
            <effectiveDateTime value="2025-07-10T19:05:43Z"/>
            <performer>
               <display value="The Central European Lab"/>
            </performer>
         </Observation>
      </resource>
   </entry>
   <entry>
      <fullUrl value="urn:uuid:67a6fbf5-b96e-49e6-aa19-02c67425f5c0"/>
      <resource>
         <Observation>
            <id value="67a6fbf5-b96e-49e6-aa19-02c67425f5c0"/>
            <meta>
               <profile value="http://hl7.eu/fhir/laboratory/StructureDefinition/Observation-resultslab-eu-lab"/>
            </meta>
            <text>
               <status value="generated"/>
               <div xmlns="http://www.w3.org/1999/xhtml">
                  <table class="hl7__eu__lab__report">
                     <tr>
                        <th>Test</th>
                        <th>10-Jul-2025</th>
                        <th>Reference Range</th>
                        <th>Unit</th>
                     </tr>
                     <tr>
                        <td>Hemoglobin [Presence] in Urine by Test strip</td>
                     </tr>
                  </table>
               </div>
            </text>
            <status value="final"/>
            <category>
               <coding>
                  <system value="http://terminology.hl7.org/CodeSystem/observation-category"/>
                  <code value="laboratory"/>
               </coding>
            </category>
            <code>
               <coding>
                  <system value="http://loinc.org"/>
                  <code value="5794-3"/>
                  <display value="Hemoglobin [Presence] in Urine by Test strip"/>
               </coding>
               <text value="Hemoglobin [Presence] in Urine by Test strip"/>
            </code>
            <subject>
               <reference value="urn:uuid:7b7f01f7-be68-4417-831d-aa53d674b363"/>
               <display value="Marthe Gallet"/>
            </subject>
            <effectiveDateTime value="2025-07-10T19:05:43Z"/>
            <performer>
               <display value="The Central European Lab"/>
            </performer>
         </Observation>
      </resource>
   </entry>
   <entry>
      <fullUrl value="urn:uuid:a2a9d01e-5170-4c15-b72c-7af3c2626402"/>
      <resource>
         <Observation>
            <id value="a2a9d01e-5170-4c15-b72c-7af3c2626402"/>
            <meta>
               <profile value="http://hl7.eu/fhir/laboratory/StructureDefinition/Observation-resultslab-eu-lab"/>
            </meta>
            <text>
               <status value="generated"/>
               <div xmlns="http://www.w3.org/1999/xhtml">
                  <table class="hl7__eu__lab__report">
                     <tr>
                        <th>Test</th>
                        <th>10-Jul-2025</th>
                        <th>Reference Range</th>
                        <th>Unit</th>
                     </tr>
                     <tr>
                        <td>Leukocyte esterase [Presence] in Urine by Test strip</td>
                     </tr>
                  </table>
               </div>
            </text>
            <status value="final"/>
            <category>
               <coding>
                  <system value="http://terminology.hl7.org/CodeSystem/observation-category"/>
                  <code value="laboratory"/>
               </coding>
            </category>
            <code>
               <coding>
                  <system value="http://loinc.org"/>
                  <code value="5799-2"/>
                  <display value="Leukocyte esterase [Presence] in Urine by Test strip"/>
               </coding>
               <text value="Leukocyte esterase [Presence] in Urine by Test strip"/>
            </code>
            <subject>
               <reference value="urn:uuid:7b7f01f7-be68-4417-831d-aa53d674b363"/>
               <display value="Marthe Gallet"/>
            </subject>
            <effectiveDateTime value="2025-07-10T19:05:43Z"/>
            <performer>
               <display value="The Central European Lab"/>
            </performer>
         </Observation>
      </resource>
   </entry>
   <entry>
      <fullUrl value="urn:uuid:bcb57d77-46fa-4362-86e5-3ee6e6765b14"/>
      <resource>
         <Device>
            <id value="bcb57d77-46fa-4362-86e5-3ee6e6765b14"/>
            <text>
               <status value="generated"/>
               <div xmlns="http://www.w3.org/1999/xhtml">SYNDERAI Synthetic Generator v5.0</div>
            </text>
            <status value="active&#34;"/>
            <distinctIdentifier value="synderai-generator-50"/>
            <manufacturer value="SYNDERAI Project"/>
            <deviceName>
               <name value="SYNDERAI Synthetic Generator"/>
               <type value="manufacturer-name"/>
            </deviceName>
            <version>
               <value value="5.0"/>
            </version>
         </Device>
      </resource>
   </entry>
   <entry>
      <fullUrl value="urn:uuid:69db545d-13af-4c68-ba53-b644c6f11ec2"/>
      <resource>
         <Provenance>
            <id value="69db545d-13af-4c68-ba53-b644c6f11ec2"/>
            <text>
               <status value="generated"/>
               <div xmlns="http://www.w3.org/1999/xhtml">Provenance for SYNDERAI Synthetic Example Data Resource</div>
            </text>
            <target>
               <reference value="Patient/7b7f01f7-be68-4417-831d-aa53d674b363"/>
            </target>
            <target>
               <reference value="Bundle/dc8bfe6f-17cc-4c34-be30-53117485b700"/>
            </target>
            <target>
               <reference value="Composition/5a4ad858-135f-4dbc-9e8e-05e187fa79db"/>
            </target>
            <target>
               <reference value="PractitionerRole/71ab422e-7d4d-4abc-9ad8-3af43210ffc4"/>
            </target>
            <target>
               <reference value="Organization/93f52fbf-e555-4b8d-a7f8-88245b46211b"/>
            </target>
            <target>
               <reference value="Practitioner/f79aeddd-18b9-46fb-b721-e49c9342b392"/>
            </target>
            <recorded value="2025-07-10T19:05:43Z"/>
            <policy value="https://synderai.net/synderai-synthetic-data-policy"/>
            <reason>
               <text value="Interoperability Testing and Training (non-clinical use)"/>
            </reason>
            <activity>
               <text value="Synthetic Example Data Generation"/>
            </activity>
            <agent>
               <type>
                  <text value="author"/>
               </type>
               <who>
                  <reference value="Device/bcb57d77-46fa-4362-86e5-3ee6e6765b14"/>
               </who>
            </agent>
         </Provenance>
      </resource>
   </entry>
</Bundle>