<Bundle xmlns="http://hl7.org/fhir">
   <id value="6fbab12e-22e6-4037-90d0-f0cdbae11295"/>
   <meta>
      <profile value="http://hl7.eu/fhir/eps/StructureDefinition/bundle-eu-eps"/>
   </meta>
   <identifier>
      <system value="urn:oid:2.16.840.1.113883.2.51.999"/>
      <value value="da8c3def-a715-4de7-a4d9-2c8f2b4659d9"/>
      <assigner>
         <display value="HL7 Europe"/>
      </assigner>
   </identifier>
   <type value="document"/>
   <timestamp value="2024-11-01T16:05:46Z"/>
   <entry>
      <fullUrl value="urn:uuid:9da5acbe-528a-44cc-9c54-2c2f75d67d5c"/>
      <resource>
         <Composition>
            <id value="9da5acbe-528a-44cc-9c54-2c2f75d67d5c"/>
            <meta>
               <profile value="http://hl7.eu/fhir/eps/StructureDefinition/composition-eu-eps"/>
               <security>
                  <system value="http://terminology.hl7.org/CodeSystem/v3-ActReason"/>
                  <code value="HTEST"/>
               </security>
               <security>
                  <system value="http://terminology.hl7.org/CodeSystem/v3-ActReason"/>
                  <code value="TRAIN"/>
               </security>
               <tag>
                  <system value="https://synderai.net/fhir/CodeSystem/tags"/>
                  <code value="synthetic"/>
                  <display value="SYNDERAI Synthetic data"/>
               </tag>
            </meta>
            <identifier>
               <system value="urn:oid:2.16.840.1.113883.2.51.999"/>
               <value value="e943969d-d755-40f0-a2f1-9ac72129c19d"/>
               <assigner>
                  <display value="HL7 Europe"/>
               </assigner>
            </identifier>
            <status value="final"/>
            <type>
               <coding>
                  <system value="http://loinc.org"/>
                  <code value="60591-5"/>
                  <display value="Patient summary Document"/>
               </coding>
               <text value="Patient summary Document"/>
            </type>
            <subject>
               <reference value="urn:uuid:38a01245-e632-4521-b4da-3964d204fa3c"/>
               <display value="Gabrielius Gaičiūnas"/>
            </subject>
            <date value="2024-11-01"/>
            <author>
               <reference value="urn:uuid:071915e1-0c9d-4d5e-9447-5625c8b4cda7"/>
            </author>
            <title value="European Patient Summary"/>
            <confidentiality value="N"/>
            <custodian>
               <reference value="urn:uuid:bd8387a5-d6b4-4070-9dc4-6b466bd25c87"/>
            </custodian>
            <section>
               <title value="Problem list"/>
               <code>
                  <coding>
                     <system value="http://loinc.org"/>
                     <code value="11450-4"/>
                     <display value="Problem list - Reported"/>
                  </coding>
               </code>
               <text>
                  <status value="generated"/>
                  <div xmlns="http://www.w3.org/1999/xhtml">
                     <table class="hl7__ips">
                        <tr>
                           <th>Condition</th>
                           <th>Onset Date</th>
                           <th>Status</th>
                        </tr>
                        <tr>
                           <td>Ischemic heart disease</td>
                           <td>
                              <span class="nb">03-Nov-2006</span>
                           </td>
                           <td>active</td>
                        </tr>
                        <tr>
                           <td>Proteinuria due to type 2 diabetes mellitus</td>
                           <td>
                              <span class="nb">19-Apr-2002</span>
                           </td>
                           <td>active</td>
                        </tr>
                        <tr>
                           <td>Acute ST segment elevation myocardial infarction</td>
                           <td>
                              <span class="nb">13-Jan-2002</span>
                           </td>
                           <td>active</td>
                        </tr>
                        <tr>
                           <td>Chronic sinusitis</td>
                           <td>
                              <span class="nb">23-Jun-1989</span>
                           </td>
                           <td>active</td>
                        </tr>
                        <tr>
                           <td>Microalbuminuria due to type 2 diabetes mellitus</td>
                           <td>
                              <span class="nb">27-Jan-1989</span>
                           </td>
                           <td>active</td>
                        </tr>
                        <tr>
                           <td>Disorder of kidney due to diabetes mellitus</td>
                           <td>
                              <span class="nb">20-Apr-1979</span>
                           </td>
                           <td>active</td>
                        </tr>
                        <tr>
                           <td>Essential hypertension</td>
                           <td>
                              <span class="nb">03-Feb-1978</span>
                           </td>
                           <td>active</td>
                        </tr>
                        <tr>
                           <td>Prediabetes</td>
                           <td>
                              <span class="nb">28-Jan-1972</span>
                           </td>
                           <td>active</td>
                        </tr>
                        <tr>
                           <td>Anemia</td>
                           <td>
                              <span class="nb">28-Jan-1972</span>
                           </td>
                           <td>active</td>
                        </tr>
                     </table>
                  </div>
               </text>
               <entry>
                  <reference value="urn:uuid:f2eded00-604c-4fae-8697-b7f764b2ced8"/>
               </entry>
               <entry>
                  <reference value="urn:uuid:2aa5e1ab-8bc8-4b15-a584-b837641c2b63"/>
               </entry>
               <entry>
                  <reference value="urn:uuid:0bbe051a-55b5-4618-a05a-157371c5c89b"/>
               </entry>
               <entry>
                  <reference value="urn:uuid:113984bb-99ad-4f47-8ccb-60e85933588c"/>
               </entry>
               <entry>
                  <reference value="urn:uuid:46b9ecb6-a4b9-4b98-b029-d769462df42d"/>
               </entry>
               <entry>
                  <reference value="urn:uuid:da6adf1f-a083-45ef-a819-53f1603b5641"/>
               </entry>
               <entry>
                  <reference value="urn:uuid:cbda8034-cac7-4d24-970d-5ed229dfca60"/>
               </entry>
               <entry>
                  <reference value="urn:uuid:fed49c90-143b-42f2-89f9-69ea319eee77"/>
               </entry>
               <entry>
                  <reference value="urn:uuid:9d4ab7cf-05aa-491e-98a4-bbc23338d52f"/>
               </entry>
            </section>
            <section>
               <title value="Medication list"/>
               <code>
                  <coding>
                     <system value="http://loinc.org"/>
                     <code value="10160-0"/>
                     <display value="History of Medication use Narrative"/>
                  </coding>
               </code>
               <text>
                  <status value="generated"/>
                  <div xmlns="http://www.w3.org/1999/xhtml">
                     <table class="hl7__ips">
                        <tr>
                           <th>Medication</th>
                           <th>Since</th>
                           <th>Form</th>
                           <th>Dosage</th>
                           <th>Reason</th>
                        </tr>
                        <tr>
                           <td>insulin isophane human 70 UNT/ML / insulin regular human 30 UNT/ML Injectable Suspension [Humulin]</td>
                           <td>
                              <span class="nb">2024-11-01</span>
                           </td>
                           <td>-</td>
                           <td>10 units subcutaneously before breakfast and dinner</td>
                           <td>Prediabetes</td>
                        </tr>
                        <tr>
                           <td>Ibuprofen 400 mg oral tablet</td>
                           <td>
                              <span class="nb">2024-11-01</span>
                           </td>
                           <td>-</td>
                           <td>1 tablet (400 mg) every 8 hours as needed</td>
                           <td>-</td>
                        </tr>
                        <tr>
                           <td>Amlodipine (as amlodipine besylate) 2.5 mg oral tablet</td>
                           <td>
                              <span class="nb">2024-11-01</span>
                           </td>
                           <td>-</td>
                           <td>1 tablet (2.5 mg) by mouth once daily</td>
                           <td>Essential hypertension (disorder)</td>
                        </tr>
                        <tr>
                           <td>Hydrochlorothiazide 25 mg oral tablet</td>
                           <td>
                              <span class="nb">2024-11-01</span>
                           </td>
                           <td>-</td>
                           <td>1 tablet (25 mg) by mouth once daily</td>
                           <td>Essential hypertension (disorder)</td>
                        </tr>
                        <tr>
                           <td>24 HR tacrolimus 1 MG Extended Release Oral Tablet</td>
                           <td>
                              <span class="nb">2024-11-01</span>
                           </td>
                           <td>-</td>
                           <td>1 tablet (1 mg) by mouth once daily</td>
                           <td>History of renal transplant (situation)</td>
                        </tr>
                        <tr>
                           <td>Clopidogrel (as clopidogrel bisulfate) 75 mg oral tablet</td>
                           <td>
                              <span class="nb">2006-11-10</span>
                           </td>
                           <td>-</td>
                           <td>1 tablet (75 mg) once daily</td>
                           <td>-</td>
                        </tr>
                        <tr>
                           <td>Nitroglycerin 400 microgram/actuation sublingual spray</td>
                           <td>
                              <span class="nb">2006-11-10</span>
                           </td>
                           <td>-</td>
                           <td>400 micrograms per spray, spray one dose under the tongue as needed for chest pain, may repeat every 5 minutes as needed, up to 3 sprays in 15 minutes</td>
                           <td>-</td>
                        </tr>
                        <tr>
                           <td>Metoprolol tartrate (as metoprolol succinate) 100 mg prolonged-release oral tablet</td>
                           <td>
                              <span class="nb">2006-11-10</span>
                           </td>
                           <td>-</td>
                           <td>1 tablet (100 mg) once daily</td>
                           <td>-</td>
                        </tr>
                        <tr>
                           <td>Aspirin 81 mg gastro-resistant oral tablet</td>
                           <td>
                              <span class="nb">2002-01-13</span>
                           </td>
                           <td>-</td>
                           <td>1 tablet (81 mg) once daily</td>
                           <td>-</td>
                        </tr>
                        <tr>
                           <td>Simvastatin 20 mg oral tablet</td>
                           <td>
                              <span class="nb">2002-01-13</span>
                           </td>
                           <td>-</td>
                           <td>1 tablet (20 mg) by mouth once daily</td>
                           <td>-</td>
                        </tr>
                        <tr>
                           <td>Carvedilol 3.125 mg oral tablet</td>
                           <td>
                              <span class="nb">2002-01-13</span>
                           </td>
                           <td>-</td>
                           <td>1 tablet (3.125 mg) by mouth twice daily</td>
                           <td>-</td>
                        </tr>
                        <tr>
                           <td>Prasugrel (as prasugrel hydrochloride) 10 mg oral tablet</td>
                           <td>
                              <span class="nb">2002-01-13</span>
                           </td>
                           <td>-</td>
                           <td>1 tablet (10 mg) once daily</td>
                           <td>-</td>
                        </tr>
                        <tr>
                           <td>Losartan potassium 100 mg oral tablet</td>
                           <td>
                              <span class="nb">2002-01-13</span>
                           </td>
                           <td>-</td>
                           <td>1 tablet (100 mg) by mouth once daily</td>
                           <td>-</td>
                        </tr>
                     </table>
                  </div>
               </text>
               <entry>
                  <reference value="urn:uuid:38755c7c-97f4-4a99-a9d3-a201dba43627"/>
               </entry>
               <entry>
                  <reference value="urn:uuid:4a98d6fe-7659-424b-8bc8-7d1d31369e31"/>
               </entry>
               <entry>
                  <reference value="urn:uuid:3a8698f4-ce5e-49a4-905e-28a88799ce21"/>
               </entry>
               <entry>
                  <reference value="urn:uuid:52a1f560-0894-405b-b3f9-ce0450eaa9ee"/>
               </entry>
               <entry>
                  <reference value="urn:uuid:69ad1b2b-dde5-448e-ab7f-bef357949444"/>
               </entry>
               <entry>
                  <reference value="urn:uuid:4ec9c978-2279-490e-86e3-5bd68df2926a"/>
               </entry>
               <entry>
                  <reference value="urn:uuid:ae3f0c07-48ac-4b11-af68-7cd16c1c89a2"/>
               </entry>
               <entry>
                  <reference value="urn:uuid:23242601-69ff-4f97-8cc7-42cd999352e8"/>
               </entry>
               <entry>
                  <reference value="urn:uuid:4dcd08a7-10e0-4eea-9d08-6bab86e792a5"/>
               </entry>
               <entry>
                  <reference value="urn:uuid:e906396d-0e61-4b43-8d21-95275c6645b8"/>
               </entry>
               <entry>
                  <reference value="urn:uuid:16f9ee51-c3d6-475a-bb0a-f377926e1474"/>
               </entry>
               <entry>
                  <reference value="urn:uuid:e315ff7b-b248-4a6b-9b8f-86f9e3c4b38f"/>
               </entry>
               <entry>
                  <reference value="urn:uuid:31c29c24-e6b1-46b2-8d15-4e2d690b89fe"/>
               </entry>
            </section>
            <section>
               <title value="Immunizations list"/>
               <code>
                  <coding>
                     <system value="http://loinc.org"/>
                     <code value="11369-6"/>
                     <display value="History of Immunization note"/>
                  </coding>
               </code>
               <text>
                  <status value="generated"/>
                  <div xmlns="http://www.w3.org/1999/xhtml">
                     <table class="hl7__ips">
                        <tr>
                           <th>Vaccine</th>
                           <th>Date</th>
                        </tr>
                        <tr>
                           <td>Influenza virus antigen only vaccine product</td>
                           <td>
                              <span class="nb">01-Nov-2024</span>
                           </td>
                        </tr>
                        <tr>
                           <td>SARS-CoV-2 mRNA vaccine</td>
                           <td>
                              <span class="nb">26-Feb-2021</span>
                           </td>
                        </tr>
                        <tr>
                           <td>Clostridium tetani toxoid antigen adsorbed only vaccine product</td>
                           <td>
                              <span class="nb">11-Sep-2015</span>
                           </td>
                        </tr>
                     </table>
                  </div>
               </text>
               <entry>
                  <reference value="urn:uuid:c8f83bdc-2ef6-4a6f-ace5-5694c2f4ba7b"/>
               </entry>
               <entry>
                  <reference value="urn:uuid:9bd01b58-6039-4bae-bf73-e9c3c8e66e45"/>
               </entry>
               <entry>
                  <reference value="urn:uuid:e05e1141-51e4-47a6-8ff4-38929014bc81"/>
               </entry>
            </section>
            <section>
               <title value="Procedure History list"/>
               <code>
                  <coding>
                     <system value="http://loinc.org"/>
                     <code value="47519-4"/>
                     <display value="History of Procedures Document"/>
                  </coding>
               </code>
               <text>
                  <status value="generated"/>
                  <div xmlns="http://www.w3.org/1999/xhtml">
                     <table class="hl7__ips">
                        <tr>
                           <th>Procedure</th>
                           <th>Date</th>
                           <th>Reason</th>
                        </tr>
                        <tr>
                           <td>Patient discharge</td>
                           <td>
                              <span class="nb">16-Dec-2018</span>
                           </td>
                           <td>-</td>
                        </tr>
                        <tr>
                           <td>Hospice care</td>
                           <td>
                              <span class="nb">15-Dec-2018</span>
                           </td>
                           <td>-</td>
                        </tr>
                        <tr>
                           <td>Notifications</td>
                           <td>
                              <span class="nb">23-Nov-2018</span>
                           </td>
                           <td>-</td>
                        </tr>
                        <tr>
                           <td>Certification procedure</td>
                           <td>
                              <span class="nb">23-Nov-2018</span>
                           </td>
                           <td>-</td>
                        </tr>
                        <tr>
                           <td>Initial patient assessment</td>
                           <td>
                              <span class="nb">23-Nov-2018</span>
                           </td>
                           <td>-</td>
                        </tr>
                        <tr>
                           <td>Development of individualized plan of care</td>
                           <td>
                              <span class="nb">23-Nov-2018</span>
                           </td>
                           <td>-</td>
                        </tr>
                        <tr>
                           <td>Referral to home health care service</td>
                           <td>
                              <span class="nb">01-Sep-2017</span>
                           </td>
                           <td>-</td>
                        </tr>
                        <tr>
                           <td>Medication reconciliation</td>
                           <td>
                              <span class="nb">23-Dec-2016</span>
                           </td>
                           <td>-</td>
                        </tr>
                        <tr>
                           <td>Assessment of health and social care needs</td>
                           <td>
                              <span class="nb">16-Dec-2016</span>
                           </td>
                           <td>-</td>
                        </tr>
                        <tr>
                           <td>Assessment using AUDIT-C (Alcohol Use Disorders Identification Test - Consumption)</td>
                           <td>
                              <span class="nb">16-Dec-2016</span>
                           </td>
                           <td>-</td>
                        </tr>
                        <tr>
                           <td>Screening for domestic abuse</td>
                           <td>
                              <span class="nb">16-Dec-2016</span>
                           </td>
                           <td>-</td>
                        </tr>
                        <tr>
                           <td>Assessment of substance use</td>
                           <td>
                              <span class="nb">16-Dec-2016</span>
                           </td>
                           <td>-</td>
                        </tr>
                     </table>
                  </div>
               </text>
               <entry>
                  <reference value="urn:uuid:2b415552-44f2-48df-bed6-2a71ef490aa2"/>
               </entry>
               <entry>
                  <reference value="urn:uuid:33f9e446-cd0e-47a1-a6f7-59c9bb17a257"/>
               </entry>
               <entry>
                  <reference value="urn:uuid:c6a44e1a-8ca7-41ed-bf10-934037371fcb"/>
               </entry>
               <entry>
                  <reference value="urn:uuid:76781284-7d0f-4161-98fc-48deaf6940b2"/>
               </entry>
               <entry>
                  <reference value="urn:uuid:be22918a-35c2-47a3-b33d-1365e4e04a2d"/>
               </entry>
               <entry>
                  <reference value="urn:uuid:43ff1229-b933-48fd-b5f8-db807fca687d"/>
               </entry>
               <entry>
                  <reference value="urn:uuid:ece3ba4e-44d4-4729-9b5b-ef8237502f0e"/>
               </entry>
               <entry>
                  <reference value="urn:uuid:efbdc768-4f2e-4722-a6e9-91fcae0fd47b"/>
               </entry>
               <entry>
                  <reference value="urn:uuid:f478deca-5d60-40a1-98d5-747da3f42fe1"/>
               </entry>
               <entry>
                  <reference value="urn:uuid:e3207685-307f-4805-94b0-3c1cdc291fb7"/>
               </entry>
               <entry>
                  <reference value="urn:uuid:8241ca0a-29c9-4009-bbe3-7a92e1940689"/>
               </entry>
               <entry>
                  <reference value="urn:uuid:738eba8e-b36f-4646-b51b-165d96b01535"/>
               </entry>
            </section>
            <section>
               <title value="Allergies and Intolerances"/>
               <code>
                  <coding>
                     <system value="http://loinc.org"/>
                     <code value="48765-2"/>
                     <display value="Allergies and adverse reactions Document"/>
                  </coding>
               </code>
               <text>
                  <status value="generated"/>
                  <div xmlns="http://www.w3.org/1999/xhtml">
                     <table class="hl7__ips">
                        <tr>
                           <th>Allergy/Intolerance</th>
                           <th>Onset Date</th>
                           <th>Status</th>
                           <th>Type</th>
                           <th>Reaction</th>
                        </tr>
                        <tr>
                           <td/>
                           <td>?</td>
                           <td>active</td>
                           <td>?</td>
                           <td/>
                        </tr>
                     </table>
                  </div>
               </text>
               <entry>
                  <reference value="urn:uuid:0a855401-64e8-40d9-83a5-fa8aa7760a33"/>
               </entry>
            </section>
            <section>
               <title value="Care Plan"/>
               <code>
                  <coding>
                     <system value="http://loinc.org"/>
                     <code value="18776-5"/>
                     <display value="Plan of care note"/>
                  </coding>
               </code>
               <text>
                  <status value="generated"/>
                  <div xmlns="http://www.w3.org/1999/xhtml">
                     <table class="hl7__ips">
                        <tr>
                           <th>Active Planned Care / Goals</th>
                           <th>Start Date</th>
                           <th>Reason</th>
                        </tr>
                        <tr>
                           <td>Care plan</td>
                           <td>
                              <span class="nb">03-Dec-2013</span>
                           </td>
                           <td>-</td>
                        </tr>
                        <tr>
                           <td>Dialysis care plan</td>
                           <td>
                              <span class="nb">08-Sep-2008</span>
                           </td>
                           <td>-</td>
                        </tr>
                        <tr>
                           <td>Discharge care plan</td>
                           <td>
                              <span class="nb">13-Jan-2002</span>
                           </td>
                           <td>-</td>
                        </tr>
                        <tr>
                           <td>Musculoskeletal care</td>
                           <td>
                              <span class="nb">17-Sep-1993</span>
                           </td>
                           <td>Localized primary osteoarthritis of the hand</td>
                        </tr>
                        <tr>
                           <td>
                              <ul>
                                 <li>Reduce severity of hand pain associated with osteoarthritis</li>
                                 <li>Improve ability to perform daily activities using hands</li>
                                 <li>Increase grip strength in affected hand</li>
                              </ul>
                           </td>
                           <td/>
                           <td/>
                        </tr>
                        <tr>
                           <td>Lifestyle education regarding hypertension</td>
                           <td>
                              <span class="nb">03-Feb-1978</span>
                           </td>
                           <td>Essential hypertension (disorder)</td>
                        </tr>
                        <tr>
                           <td>
                              <ul>
                                 <li>Maintain blood pressure below 130/80 mmHg through lifestyle modification and education.</li>
                                 <li>Patient will demonstrate adherence to recommended lifestyle modifications for hypertension, including dietary changes, increased physical activity, and reduced sodium intake.</li>
                              </ul>
                           </td>
                           <td/>
                           <td/>
                        </tr>
                        <tr>
                           <td>Diabetes self management plan</td>
                           <td>
                              <span class="nb">28-Jan-1972</span>
                           </td>
                           <td>Prediabetes</td>
                        </tr>
                        <tr>
                           <td>
                              <ul>
                                 <li>Patient will demonstrate understanding of diabetes self-management strategies including diet, exercise, and medication adherence.</li>
                                 <li>Maintain hemoglobin A1c below 7% to reduce risk of diabetes complications.</li>
                                 <li>Maintain fasting blood glucose below 100 mg/dL.</li>
                                 <li>Maintain blood pressure below 130/80 mmHg as part of diabetes self-management.</li>
                                 <li>Achieve at least 5% reduction in body weight to improve glycemic control.</li>
                              </ul>
                           </td>
                           <td/>
                           <td/>
                        </tr>
                        <tr>
                           <th>Immunization Recommendation</th>
                           <th>Due Date</th>
                           <th>Reason</th>
                        </tr>
                        <tr>
                           <td>Vaccine product containing only Influenza virus antigen (medicinal product)</td>
                           <td>
                              <span class="nb">01-Oct-2025</span>
                           </td>
                           <td>Annual seasonal influenza vaccination</td>
                        </tr>
                     </table>
                  </div>
               </text>
               <entry>
                  <reference value="urn:uuid:f78692f3-4b27-4ff7-81e0-b0f06da8f534"/>
               </entry>
               <entry>
                  <reference value="urn:uuid:3c4554c8-1e52-46cf-bdc9-1dd0d0c39a23"/>
               </entry>
               <entry>
                  <reference value="urn:uuid:a617915c-e514-4874-8ba1-28a1391d66af"/>
               </entry>
               <entry>
                  <reference value="urn:uuid:f5f61bee-b92c-4335-a248-4ca964aeaf7c"/>
               </entry>
               <entry>
                  <reference value="urn:uuid:91e59aa2-d924-47df-9ebd-118df49b087c"/>
               </entry>
               <entry>
                  <reference value="urn:uuid:d85220db-9559-4da2-8b3f-183f99bdde99"/>
               </entry>
               <entry>
                  <reference value="urn:uuid:8d946614-3a40-436a-94f5-14c4cab3fcfd"/>
               </entry>
            </section>
            <section>
               <title value="Vital Signs"/>
               <code>
                  <coding>
                     <system value="http://loinc.org"/>
                     <code value="8716-3"/>
                     <display value="Vital signs note"/>
                  </coding>
               </code>
               <text>
                  <status value="generated"/>
                  <div xmlns="http://www.w3.org/1999/xhtml">
                     <table class="hl7__ips">
                        <tr>
                           <th>Vital Signs</th>
                           <th>2024-11-01</th>
                           <th>2023-10-27</th>
                        </tr>
                        <tr>
                           <td>Body Height</td>
                           <td>183.6 cm</td>
                           <td>183.6 cm</td>
                        </tr>
                        <tr>
                           <td>Pain severity - 0-10 verbal numeric rating [Score] - Reported</td>
                           <td>2 {score}</td>
                           <td>2 {score}</td>
                        </tr>
                        <tr>
                           <td>Body Weight</td>
                           <td>93.8 kg</td>
                           <td>93.8 kg</td>
                        </tr>
                        <tr>
                           <td>Body mass index (BMI) [Ratio]</td>
                           <td>27.8 kg/m2</td>
                           <td>27.8 kg/m2</td>
                        </tr>
                        <tr>
                           <td>Diastolic Blood Pressure</td>
                           <td>81 mm[Hg]</td>
                           <td>78 mm[Hg]</td>
                        </tr>
                        <tr>
                           <td>Systolic Blood Pressure</td>
                           <td>88 mm[Hg]</td>
                           <td>96 mm[Hg]</td>
                        </tr>
                        <tr>
                           <td>Heart rate</td>
                           <td>75 /min</td>
                           <td>68 /min</td>
                        </tr>
                        <tr>
                           <td>Respiratory rate</td>
                           <td>16 /min</td>
                           <td>15 /min</td>
                        </tr>
                     </table>
                  </div>
               </text>
               <entry>
                  <reference value="urn:uuid:7e6b60ab-cb20-4e11-8464-fc8e49f5b093"/>
               </entry>
               <entry>
                  <reference value="urn:uuid:6686bd11-dfcb-47ea-9320-558474d96f0d"/>
               </entry>
               <entry>
                  <reference value="urn:uuid:85a28ed4-a157-40d6-8e0e-134f668917cc"/>
               </entry>
               <entry>
                  <reference value="urn:uuid:7a060631-0bc4-4bb3-8d1c-5a1bc8c73057"/>
               </entry>
               <entry>
                  <reference value="urn:uuid:7f6a7baa-d67e-4fe7-b133-3683032542c0"/>
               </entry>
               <entry>
                  <reference value="urn:uuid:1fc698dd-f331-405e-ab3f-da50e704aa53"/>
               </entry>
               <entry>
                  <reference value="urn:uuid:1ec80928-3f18-43c5-852c-65198f7d0696"/>
               </entry>
               <entry>
                  <reference value="urn:uuid:20cbad28-cf33-49f6-9f35-ba383bdc603a"/>
               </entry>
               <entry>
                  <reference value="urn:uuid:e43e5fa4-a918-47a8-9fdf-5509a51ba02d"/>
               </entry>
               <entry>
                  <reference value="urn:uuid:f9e4ccf1-fd69-4dbc-b333-c5b00e369d19"/>
               </entry>
               <entry>
                  <reference value="urn:uuid:a760ff2e-c985-4650-a52b-ff4e1668e94a"/>
               </entry>
               <entry>
                  <reference value="urn:uuid:7dd32711-0e5f-46dd-b73b-6df6c2a72274"/>
               </entry>
               <entry>
                  <reference value="urn:uuid:ff28d0a1-6a71-42e1-8af3-67c0e42e7344"/>
               </entry>
               <entry>
                  <reference value="urn:uuid:f63f02f7-0c32-4e3f-abbc-9c281a9d70b3"/>
               </entry>
               <entry>
                  <reference value="urn:uuid:6d8849f9-7894-40f3-936e-c3ffdcf1d40c"/>
               </entry>
               <entry>
                  <reference value="urn:uuid:55620360-3ea2-4ea9-beac-ae5bd65fb9e4"/>
               </entry>
            </section>
            <section>
               <title value="Relevant diagnostic tests/laboratory data"/>
               <code>
                  <coding>
                     <system value="http://loinc.org"/>
                     <code value="30954-2"/>
                     <display value="Relevant diagnostic tests/laboratory data note"/>
                  </coding>
               </code>
               <text>
                  <status value="generated"/>
                  <div xmlns="http://www.w3.org/1999/xhtml">
                     <table class="hl7__ips">
                        <table class="hl7__ips">
                           <thead>
                              <tr>
                                 <th>Recent Lab Observations</th>
                                 <th>01-NOV-2024</th>
                                 <th>Reference Range</th>
                                 <th>Unit</th>
                              </tr>
                           </thead>
                           <tbody>
                              <tr>
                                 <td>Hemoglobin A1c/Hemoglobin.total in Blood</td>
                                 <td>
                                    <strong>4.0 L</strong>
                                 </td>
                                 <td>4.6 - 6.4</td>
                                 <td>%</td>
                              </tr>
                              <tr>
                                 <td>Glucose [Mass/volume] in Blood</td>
                                 <td>90.0</td>
                                 <td>70 - 110</td>
                                 <td>mg/dL</td>
                              </tr>
                              <tr>
                                 <td>Urea nitrogen [Mass/volume] in Blood</td>
                                 <td>12.7</td>
                                 <td>7 - 43</td>
                                 <td>mg/dL</td>
                              </tr>
                              <tr>
                                 <td>Creatinine [Mass/volume] in Blood</td>
                                 <td>
                                    <strong>0.8 L</strong>
                                 </td>
                                 <td>0.9 - 1.3</td>
                                 <td>mg/dL</td>
                              </tr>
                              <tr>
                                 <td>Calcium [Mass/volume] in Blood</td>
                                 <td>8.6</td>
                                 <td>8.5 - 10.5</td>
                                 <td>mg/dL</td>
                              </tr>
                              <tr>
                                 <td>Sodium [Moles/volume] in Blood</td>
                                 <td>141.1</td>
                                 <td>135 - 145</td>
                                 <td>mmol/L</td>
                              </tr>
                              <tr>
                                 <td>Potassium [Moles/volume] in Blood</td>
                                 <td>4.7</td>
                                 <td>3.5 - 5.3</td>
                                 <td>mmol/L</td>
                              </tr>
                              <tr>
                                 <td>Chloride [Moles/volume] in Blood</td>
                                 <td>101.5</td>
                                 <td>98 - 108</td>
                                 <td>mmol/L</td>
                              </tr>
                              <tr>
                                 <td>Carbon dioxide, total [Moles/volume] in Blood</td>
                                 <td>23.8</td>
                                 <td>22 - 29</td>
                                 <td>mmol/L</td>
                              </tr>
                           </tbody>
                        </table>
                     </table>
                  </div>
               </text>
               <entry>
                  <reference value="urn:uuid:b74b7c86-dada-400a-8ff0-2f9fb964f6d8"/>
               </entry>
               <entry>
                  <reference value="urn:uuid:8dcc664f-f023-46ef-9423-591ba3374298"/>
               </entry>
               <entry>
                  <reference value="urn:uuid:fd31a024-b59b-492e-b693-85693b5dd48e"/>
               </entry>
               <entry>
                  <reference value="urn:uuid:63edc1d8-82ad-4afb-9f0e-2c80cdcdd10c"/>
               </entry>
               <entry>
                  <reference value="urn:uuid:1b6594f8-5ef1-40ea-aa37-ac0a3d88aad7"/>
               </entry>
               <entry>
                  <reference value="urn:uuid:70a79c97-084a-4f01-ae72-dd586af39663"/>
               </entry>
               <entry>
                  <reference value="urn:uuid:06094e8b-887b-402c-825a-7920b4c0e1a0"/>
               </entry>
               <entry>
                  <reference value="urn:uuid:253f8d25-d925-4ba4-8c05-aac57a9fa22c"/>
               </entry>
               <entry>
                  <reference value="urn:uuid:3095593a-1c86-4109-870c-f03b6e2148f5"/>
               </entry>
            </section>
            <section>
               <title value="Device Use"/>
               <code>
                  <coding>
                     <system value="http://loinc.org"/>
                     <code value="46264-8"/>
                     <display value="History of medical device use"/>
                  </coding>
               </code>
               <text>
                  <status value="generated"/>
                  <div xmlns="http://www.w3.org/1999/xhtml">
                     <table class="hl7__ips">
                        <tr>
                           <th>Device</th>
                           <th>Date (since)</th>
                        </tr>
                        <tr>
                           <td>Home nebulizer (physical object)</td>
                           <td>
                              <span class="nb">23-Jun-1989</span>
                           </td>
                        </tr>
                        <tr>
                           <td>Blood glucose meter (physical object)</td>
                           <td>
                              <span class="nb">28-Jan-1972</span>
                           </td>
                        </tr>
                     </table>
                  </div>
               </text>
               <entry>
                  <reference value="urn:uuid:8c8e4af9-ed30-46aa-a7b7-ce5d7795542d"/>
               </entry>
               <entry>
                  <reference value="urn:uuid:2136224d-2ac4-4385-bcf3-edfb0b3881fb"/>
               </entry>
            </section>
         </Composition>
      </resource>
   </entry>
   <entry>
      <fullUrl value="urn:uuid:38a01245-e632-4521-b4da-3964d204fa3c"/>
      <resource>
         <Patient>
            <id value="38a01245-e632-4521-b4da-3964d204fa3c"/>
            <meta>
               <profile value="http://hl7.eu/fhir/eps/StructureDefinition/patient-eu-eps"/>
               <security>
                  <system value="http://terminology.hl7.org/CodeSystem/v3-ActReason"/>
                  <code value="HTEST"/>
               </security>
               <security>
                  <system value="http://terminology.hl7.org/CodeSystem/v3-ActReason"/>
                  <code value="TRAIN"/>
               </security>
               <tag>
                  <system value="https://synderai.net/fhir/CodeSystem/tags"/>
                  <code value="synthetic"/>
                  <display value="SYNDERAI Synthetic data"/>
               </tag>
            </meta>
            <text>
               <status value="generated"/>
               <div xmlns="http://www.w3.org/1999/xhtml">
                  <table class="hl7__ips">
                     <tr>
                        <td>Gabrielius Gaičiūnas</td>
                        <td>male</td>
                        <td>19-May-1948</td>
                     </tr>
                  </table>
               </div>
            </text>
            <extension url="http://hl7.org/fhir/StructureDefinition/patient-nationality">
               <valueCodeableConcept>
                  <coding>
                     <system value="http://hl7.org/fhir/ValueSet/country"/>
                     <code value="LT"/>
                  </coding>
               </valueCodeableConcept>
            </extension>
            <identifier>
               <type>
                  <coding>
                     <system value="http://terminology.hl7.org/CodeSystem/v2-0203"/>
                     <code value="PT"/>
                  </coding>
               </type>
               <system value="http://ec.europa.eu/identifier/eci"/>
               <value value="5711-320329-3"/>
            </identifier>
            <identifier>
               <type>
                  <coding>
                     <system value="http://terminology.hl7.org/CodeSystem/v2-0203"/>
                     <code value="MR"/>
                  </coding>
               </type>
               <system value="http://local.setting.eu/identifier"/>
               <value value="b2cdf95b-c12d-3f56-84e4-d085f70edd0c"/>
            </identifier>
            <name>
               <family value="Gaičiūnas"/>
            </name>
            <name>
               <given value="Gabrielius"/>
            </name>
            <name>
               <text value="Gabrielius Gaičiūnas"/>
            </name>
            <telecom>
               <system value="phone"/>
               <value value="+370 71605146"/>
            </telecom>
            <gender value="male"/>
            <birthDate value="1948-05-19"/>
            <address>
               <use value="home"/>
               <type value="physical"/>
               <line value="5951 Monika Rapid"/>
               <city value="Poškaton"/>
               <postalCode value="97190"/>
               <country value="Lithuania"/>
            </address>
         </Patient>
      </resource>
   </entry>
   <entry>
      <fullUrl value="urn:uuid:071915e1-0c9d-4d5e-9447-5625c8b4cda7"/>
      <resource>
         <PractitionerRole>
            <id value="071915e1-0c9d-4d5e-9447-5625c8b4cda7"/>
            <meta>
               <profile value="http://hl7.eu/fhir/base/StructureDefinition/practitionerRole-eu"/>
            </meta>
            <text>
               <status value="generated"/>
               <div xmlns="http://www.w3.org/1999/xhtml">
                  <table class="hl7__ips">Provider Role Id 071915e1-0c9d-4d5e-9447-5625c8b4cda7</table>
               </div>
            </text>
            <practitioner>
               <reference value="urn:uuid:9beaeda5-b86b-4dcc-8a80-e24879698e73"/>
            </practitioner>
            <organization>
               <reference value="urn:uuid:bd8387a5-d6b4-4070-9dc4-6b466bd25c87"/>
            </organization>
         </PractitionerRole>
      </resource>
   </entry>
   <entry>
      <fullUrl value="urn:uuid:9beaeda5-b86b-4dcc-8a80-e24879698e73"/>
      <resource>
         <Practitioner>
            <id value="9beaeda5-b86b-4dcc-8a80-e24879698e73"/>
            <meta>
               <profile value="http://hl7.eu/fhir/base/StructureDefinition/practitioner-eu"/>
            </meta>
            <text>
               <status value="generated"/>
               <div xmlns="http://www.w3.org/1999/xhtml">
                  <table class="hl7__ips">Dr. Hel Ping</table>
               </div>
            </text>
            <name>
               <family value="Ping"/>
               <given value="Hel"/>
               <prefix value="Dr."/>
            </name>
         </Practitioner>
      </resource>
   </entry>
   <entry>
      <fullUrl value="urn:uuid:bd8387a5-d6b4-4070-9dc4-6b466bd25c87"/>
      <resource>
         <Organization>
            <id value="bd8387a5-d6b4-4070-9dc4-6b466bd25c87"/>
            <meta>
               <profile value="http://hl7.eu/fhir/base/StructureDefinition/organization-eu"/>
            </meta>
            <text>
               <status value="generated"/>
               <div xmlns="http://www.w3.org/1999/xhtml">
                  <table class="hl7__ips">Dr. Tomas Bakas</table>
               </div>
            </text>
            <identifier>
               <system value="urn:oid:2.16.840.1.113883.2.51.999"/>
               <value value="6e86ebc0-ce84-47b3-a194-d9ae7b40dfa7"/>
               <assigner>
                  <display value="HL7 Europe"/>
               </assigner>
            </identifier>
            <name value="Dr. Tomas Bakas"/>
            <address>
               <line value="182 Savanorių pr."/>
               <city value="Klaipėda"/>
               <postalCode value="LT-91200"/>
               <country value="Lithuania"/>
            </address>
         </Organization>
      </resource>
   </entry>
   <entry>
      <fullUrl value="urn:uuid:f2eded00-604c-4fae-8697-b7f764b2ced8"/>
      <resource>
         <Condition>
            <id value="f2eded00-604c-4fae-8697-b7f764b2ced8"/>
            <meta>
               <profile value="http://hl7.org/fhir/uv/ips/StructureDefinition/Condition-uv-ips"/>
            </meta>
            <text>
               <status value="generated"/>
               <div xmlns="http://www.w3.org/1999/xhtml">
                  <table class="hl7__ips">
                     <tr>
                        <td>Ischemic heart disease</td>
                        <td>
                           <span class="nb">03-Nov-2006</span>
                        </td>
                        <td>active</td>
                     </tr>
                  </table>
               </div>
            </text>
            <category>
               <coding>
                  <system value="http://terminology.hl7.org/CodeSystem/condition-category"/>
                  <code value="problem-list-item"/>
                  <display value="Problem List Item"/>
               </coding>
            </category>
            <code>
               <coding>
                  <system value="http://snomed.info/sct"/>
                  <code value="414545008"/>
                  <display value="Ischemic heart disease (disorder)"/>
               </coding>
               <text value="Ischemic heart disease"/>
            </code>
            <subject>
               <reference value="urn:uuid:"/>
               <display value="Gabrielius Gaičiūnas"/>
            </subject>
            <onsetDateTime value="2006-11-03"/>
            <asserter>
               <reference value="urn:uuid:"/>
               <display value="Dr. Tomas Bakas"/>
            </asserter>
         </Condition>
      </resource>
   </entry>
   <entry>
      <fullUrl value="urn:uuid:2aa5e1ab-8bc8-4b15-a584-b837641c2b63"/>
      <resource>
         <Condition>
            <id value="2aa5e1ab-8bc8-4b15-a584-b837641c2b63"/>
            <meta>
               <profile value="http://hl7.org/fhir/uv/ips/StructureDefinition/Condition-uv-ips"/>
            </meta>
            <text>
               <status value="generated"/>
               <div xmlns="http://www.w3.org/1999/xhtml">
                  <table class="hl7__ips">
                     <tr>
                        <td>Proteinuria due to type 2 diabetes mellitus</td>
                        <td>
                           <span class="nb">19-Apr-2002</span>
                        </td>
                        <td>active</td>
                     </tr>
                  </table>
               </div>
            </text>
            <category>
               <coding>
                  <system value="http://terminology.hl7.org/CodeSystem/condition-category"/>
                  <code value="problem-list-item"/>
                  <display value="Problem List Item"/>
               </coding>
            </category>
            <code>
               <coding>
                  <system value="http://snomed.info/sct"/>
                  <code value="157141000119108"/>
                  <display value="Proteinuria due to type 2 diabetes mellitus (disorder)"/>
               </coding>
               <text value="Proteinuria due to type 2 diabetes mellitus"/>
            </code>
            <subject>
               <reference value="urn:uuid:"/>
               <display value="Gabrielius Gaičiūnas"/>
            </subject>
            <onsetDateTime value="2002-04-19"/>
            <asserter>
               <reference value="urn:uuid:"/>
               <display value="Dr. Tomas Bakas"/>
            </asserter>
         </Condition>
      </resource>
   </entry>
   <entry>
      <fullUrl value="urn:uuid:0bbe051a-55b5-4618-a05a-157371c5c89b"/>
      <resource>
         <Condition>
            <id value="0bbe051a-55b5-4618-a05a-157371c5c89b"/>
            <meta>
               <profile value="http://hl7.org/fhir/uv/ips/StructureDefinition/Condition-uv-ips"/>
            </meta>
            <text>
               <status value="generated"/>
               <div xmlns="http://www.w3.org/1999/xhtml">
                  <table class="hl7__ips">
                     <tr>
                        <td>Acute ST segment elevation myocardial infarction</td>
                        <td>
                           <span class="nb">13-Jan-2002</span>
                        </td>
                        <td>active</td>
                     </tr>
                  </table>
               </div>
            </text>
            <category>
               <coding>
                  <system value="http://terminology.hl7.org/CodeSystem/condition-category"/>
                  <code value="problem-list-item"/>
                  <display value="Problem List Item"/>
               </coding>
            </category>
            <code>
               <coding>
                  <system value="http://snomed.info/sct"/>
                  <code value="401303003"/>
                  <display value="Acute ST segment elevation myocardial infarction (disorder)"/>
               </coding>
               <text value="Acute ST segment elevation myocardial infarction"/>
            </code>
            <subject>
               <reference value="urn:uuid:"/>
               <display value="Gabrielius Gaičiūnas"/>
            </subject>
            <onsetDateTime value="2002-01-13"/>
            <asserter>
               <reference value="urn:uuid:"/>
               <display value="Dr. Tomas Bakas"/>
            </asserter>
         </Condition>
      </resource>
   </entry>
   <entry>
      <fullUrl value="urn:uuid:113984bb-99ad-4f47-8ccb-60e85933588c"/>
      <resource>
         <Condition>
            <id value="113984bb-99ad-4f47-8ccb-60e85933588c"/>
            <meta>
               <profile value="http://hl7.org/fhir/uv/ips/StructureDefinition/Condition-uv-ips"/>
            </meta>
            <text>
               <status value="generated"/>
               <div xmlns="http://www.w3.org/1999/xhtml">
                  <table class="hl7__ips">
                     <tr>
                        <td>Chronic sinusitis</td>
                        <td>
                           <span class="nb">23-Jun-1989</span>
                        </td>
                        <td>active</td>
                     </tr>
                  </table>
               </div>
            </text>
            <category>
               <coding>
                  <system value="http://terminology.hl7.org/CodeSystem/condition-category"/>
                  <code value="problem-list-item"/>
                  <display value="Problem List Item"/>
               </coding>
            </category>
            <code>
               <coding>
                  <system value="http://snomed.info/sct"/>
                  <code value="40055000"/>
                  <display value="Chronic sinusitis (disorder)"/>
               </coding>
               <text value="Chronic sinusitis"/>
            </code>
            <subject>
               <reference value="urn:uuid:"/>
               <display value="Gabrielius Gaičiūnas"/>
            </subject>
            <onsetDateTime value="1989-06-23"/>
            <asserter>
               <reference value="urn:uuid:"/>
               <display value="Dr. Tomas Bakas"/>
            </asserter>
         </Condition>
      </resource>
   </entry>
   <entry>
      <fullUrl value="urn:uuid:46b9ecb6-a4b9-4b98-b029-d769462df42d"/>
      <resource>
         <Condition>
            <id value="46b9ecb6-a4b9-4b98-b029-d769462df42d"/>
            <meta>
               <profile value="http://hl7.org/fhir/uv/ips/StructureDefinition/Condition-uv-ips"/>
            </meta>
            <text>
               <status value="generated"/>
               <div xmlns="http://www.w3.org/1999/xhtml">
                  <table class="hl7__ips">
                     <tr>
                        <td>Microalbuminuria due to type 2 diabetes mellitus</td>
                        <td>
                           <span class="nb">27-Jan-1989</span>
                        </td>
                        <td>active</td>
                     </tr>
                  </table>
               </div>
            </text>
            <category>
               <coding>
                  <system value="http://terminology.hl7.org/CodeSystem/condition-category"/>
                  <code value="problem-list-item"/>
                  <display value="Problem List Item"/>
               </coding>
            </category>
            <code>
               <coding>
                  <system value="http://snomed.info/sct"/>
                  <code value="90781000119102"/>
                  <display value="Microalbuminuria due to type 2 diabetes mellitus (disorder)"/>
               </coding>
               <text value="Microalbuminuria due to type 2 diabetes mellitus"/>
            </code>
            <subject>
               <reference value="urn:uuid:"/>
               <display value="Gabrielius Gaičiūnas"/>
            </subject>
            <onsetDateTime value="1989-01-27"/>
            <asserter>
               <reference value="urn:uuid:"/>
               <display value="Dr. Tomas Bakas"/>
            </asserter>
         </Condition>
      </resource>
   </entry>
   <entry>
      <fullUrl value="urn:uuid:da6adf1f-a083-45ef-a819-53f1603b5641"/>
      <resource>
         <Condition>
            <id value="da6adf1f-a083-45ef-a819-53f1603b5641"/>
            <meta>
               <profile value="http://hl7.org/fhir/uv/ips/StructureDefinition/Condition-uv-ips"/>
            </meta>
            <text>
               <status value="generated"/>
               <div xmlns="http://www.w3.org/1999/xhtml">
                  <table class="hl7__ips">
                     <tr>
                        <td>Disorder of kidney due to diabetes mellitus</td>
                        <td>
                           <span class="nb">20-Apr-1979</span>
                        </td>
                        <td>active</td>
                     </tr>
                  </table>
               </div>
            </text>
            <category>
               <coding>
                  <system value="http://terminology.hl7.org/CodeSystem/condition-category"/>
                  <code value="problem-list-item"/>
                  <display value="Problem List Item"/>
               </coding>
            </category>
            <code>
               <coding>
                  <system value="http://snomed.info/sct"/>
                  <code value="127013003"/>
                  <display value="Disorder of kidney due to diabetes mellitus (disorder)"/>
               </coding>
               <text value="Disorder of kidney due to diabetes mellitus"/>
            </code>
            <subject>
               <reference value="urn:uuid:"/>
               <display value="Gabrielius Gaičiūnas"/>
            </subject>
            <onsetDateTime value="1979-04-20"/>
            <asserter>
               <reference value="urn:uuid:"/>
               <display value="Dr. Tomas Bakas"/>
            </asserter>
         </Condition>
      </resource>
   </entry>
   <entry>
      <fullUrl value="urn:uuid:cbda8034-cac7-4d24-970d-5ed229dfca60"/>
      <resource>
         <Condition>
            <id value="cbda8034-cac7-4d24-970d-5ed229dfca60"/>
            <meta>
               <profile value="http://hl7.org/fhir/uv/ips/StructureDefinition/Condition-uv-ips"/>
            </meta>
            <text>
               <status value="generated"/>
               <div xmlns="http://www.w3.org/1999/xhtml">
                  <table class="hl7__ips">
                     <tr>
                        <td>Essential hypertension</td>
                        <td>
                           <span class="nb">03-Feb-1978</span>
                        </td>
                        <td>active</td>
                     </tr>
                  </table>
               </div>
            </text>
            <category>
               <coding>
                  <system value="http://terminology.hl7.org/CodeSystem/condition-category"/>
                  <code value="problem-list-item"/>
                  <display value="Problem List Item"/>
               </coding>
            </category>
            <code>
               <coding>
                  <system value="http://snomed.info/sct"/>
                  <code value="59621000"/>
                  <display value="Essential hypertension (disorder)"/>
               </coding>
               <text value="Essential hypertension"/>
            </code>
            <subject>
               <reference value="urn:uuid:"/>
               <display value="Gabrielius Gaičiūnas"/>
            </subject>
            <onsetDateTime value="1978-02-03"/>
            <asserter>
               <reference value="urn:uuid:"/>
               <display value="Dr. Tomas Bakas"/>
            </asserter>
         </Condition>
      </resource>
   </entry>
   <entry>
      <fullUrl value="urn:uuid:fed49c90-143b-42f2-89f9-69ea319eee77"/>
      <resource>
         <Condition>
            <id value="fed49c90-143b-42f2-89f9-69ea319eee77"/>
            <meta>
               <profile value="http://hl7.org/fhir/uv/ips/StructureDefinition/Condition-uv-ips"/>
            </meta>
            <text>
               <status value="generated"/>
               <div xmlns="http://www.w3.org/1999/xhtml">
                  <table class="hl7__ips">
                     <tr>
                        <td>Prediabetes</td>
                        <td>
                           <span class="nb">28-Jan-1972</span>
                        </td>
                        <td>active</td>
                     </tr>
                  </table>
               </div>
            </text>
            <category>
               <coding>
                  <system value="http://terminology.hl7.org/CodeSystem/condition-category"/>
                  <code value="problem-list-item"/>
                  <display value="Problem List Item"/>
               </coding>
            </category>
            <code>
               <coding>
                  <system value="http://snomed.info/sct"/>
                  <code value="15777000"/>
                  <display value="Prediabetes (disorder)"/>
               </coding>
               <text value="Prediabetes"/>
            </code>
            <subject>
               <reference value="urn:uuid:"/>
               <display value="Gabrielius Gaičiūnas"/>
            </subject>
            <onsetDateTime value="1972-01-28"/>
            <asserter>
               <reference value="urn:uuid:"/>
               <display value="Dr. Tomas Bakas"/>
            </asserter>
         </Condition>
      </resource>
   </entry>
   <entry>
      <fullUrl value="urn:uuid:9d4ab7cf-05aa-491e-98a4-bbc23338d52f"/>
      <resource>
         <Condition>
            <id value="9d4ab7cf-05aa-491e-98a4-bbc23338d52f"/>
            <meta>
               <profile value="http://hl7.org/fhir/uv/ips/StructureDefinition/Condition-uv-ips"/>
            </meta>
            <text>
               <status value="generated"/>
               <div xmlns="http://www.w3.org/1999/xhtml">
                  <table class="hl7__ips">
                     <tr>
                        <td>Anemia</td>
                        <td>
                           <span class="nb">28-Jan-1972</span>
                        </td>
                        <td>active</td>
                     </tr>
                  </table>
               </div>
            </text>
            <category>
               <coding>
                  <system value="http://terminology.hl7.org/CodeSystem/condition-category"/>
                  <code value="problem-list-item"/>
                  <display value="Problem List Item"/>
               </coding>
            </category>
            <code>
               <coding>
                  <system value="http://snomed.info/sct"/>
                  <code value="271737000"/>
                  <display value="Anemia (disorder)"/>
               </coding>
               <text value="Anemia"/>
            </code>
            <subject>
               <reference value="urn:uuid:"/>
               <display value="Gabrielius Gaičiūnas"/>
            </subject>
            <onsetDateTime value="1972-01-28"/>
            <asserter>
               <reference value="urn:uuid:"/>
               <display value="Dr. Tomas Bakas"/>
            </asserter>
         </Condition>
      </resource>
   </entry>
   <entry>
      <fullUrl value="urn:uuid:692d27c1-0b73-4b37-a60b-f67ee5f900ee"/>
      <resource>
         <Condition>
            <id value="692d27c1-0b73-4b37-a60b-f67ee5f900ee"/>
            <meta>
               <profile value="http://hl7.org/fhir/uv/ips/StructureDefinition/Condition-uv-ips"/>
            </meta>
            <text>
               <status value="generated"/>
               <div xmlns="http://www.w3.org/1999/xhtml">
                  <table class="hl7__ips">
                     <tr>
                        <td>
                           <span class="grayedout">Acute viral pharyngitis</span>
                        </td>
                        <td>
                           <span class="nb">08-Dec-2016 - 21-Dec-2016</span>
                        </td>
                        <td>
                           <span class="grayedout">inactive</span>
                        </td>
                     </tr>
                  </table>
               </div>
            </text>
            <category>
               <coding>
                  <system value="http://terminology.hl7.org/CodeSystem/condition-category"/>
                  <code value="problem-list-item"/>
                  <display value="Problem List Item"/>
               </coding>
            </category>
            <code>
               <coding>
                  <system value="http://snomed.info/sct"/>
                  <code value="195662009"/>
                  <display value="Acute viral pharyngitis (disorder)"/>
               </coding>
               <text value="Acute viral pharyngitis"/>
            </code>
            <subject>
               <reference value="urn:uuid:"/>
               <display value="Gabrielius Gaičiūnas"/>
            </subject>
            <onsetDateTime value="2016-12-08"/>
            <abatementDateTime value="2016-12-21"/>
            <asserter>
               <reference value="urn:uuid:"/>
               <display value="Dr. Tomas Bakas"/>
            </asserter>
         </Condition>
      </resource>
   </entry>
   <entry>
      <fullUrl value="urn:uuid:6400a550-2f13-4f63-8b22-bf89fb608bed"/>
      <resource>
         <Medication>
            <id value="6400a550-2f13-4f63-8b22-bf89fb608bed"/>
            <meta>
               <profile value="http://hl7.eu/fhir/eps/StructureDefinition/Medication-eu-eps"/>
            </meta>
            <text>
               <status value="generated"/>
               <div xmlns="http://www.w3.org/1999/xhtml">insulin isophane human 70 UNT/ML / insulin regular human 30 UNT/ML Injectable Suspension [Humulin]</div>
            </text>
            <code>
               <coding>
                  <system value="http://www.nlm.nih.gov/research/umls/rxnorm"/>
                  <code value="106892"/>
                  <display value="insulin isophane  human 70 UNT/ML / insulin  regular  human 30 UNT/ML Injectable Suspension [Humulin]"/>
               </coding>
               <text value="insulin isophane  human 70 UNT/ML / insulin  regular  human 30 UNT/ML Injectable Suspension [Humulin]"/>
            </code>
         </Medication>
      </resource>
   </entry>
   <entry>
      <fullUrl value="urn:uuid:38755c7c-97f4-4a99-a9d3-a201dba43627"/>
      <resource>
         <MedicationStatement>
            <id value="38755c7c-97f4-4a99-a9d3-a201dba43627"/>
            <meta>
               <profile value="http://hl7.eu/fhir/eps/StructureDefinition/MedicationStatement-eu-eps"/>
            </meta>
            <text>
               <status value="generated"/>
               <div xmlns="http://www.w3.org/1999/xhtml">
                  <table class="hl7__ips first25">
                     <tr>
                        <th>Medication</th>
                        <th>Since</th>
                        <th>Form</th>
                        <th>Dosage</th>
                        <th>Reason</th>
                     </tr>
                     <tr>
                        <td>insulin isophane human 70 UNT/ML / insulin regular human 30 UNT/ML Injectable Suspension [Humulin]</td>
                        <td>
                           <span class="nb">2024-11-01</span>
                        </td>
                        <td>-</td>
                        <td>10 units subcutaneously before breakfast and dinner</td>
                        <td>Prediabetes</td>
                     </tr>
                  </table>
               </div>
            </text>
            <status value="active"/>
            <medicationReference>
               <reference value="urn:uuid:6400a550-2f13-4f63-8b22-bf89fb608bed"/>
               <display value="insulin isophane  human 70 UNT/ML / insulin  regular  human 30 UNT/ML Injectable Suspension [Humulin]"/>
            </medicationReference>
            <subject>
               <reference value="urn:uuid:38a01245-e632-4521-b4da-3964d204fa3c"/>
               <display value="Gabrielius Gaičiūnas"/>
            </subject>
            <effectivePeriod>
               <start value="2024-11-01"/>
            </effectivePeriod>
            <reasonCode>
               <coding>
                  <system value="http://snomed.info/sct"/>
                  <code value="15777000"/>
                  <display value="Prediabetes"/>
               </coding>
            </reasonCode>
            <dosage>
               <text value="10 units subcutaneously before breakfast and dinner"/>
               <timing>
                  <repeat>
                     <frequency value="2"/>
                     <period value="1"/>
                     <periodUnit value="d"/>
                  </repeat>
               </timing>
               <asNeededBoolean value="false"/>
               <doseAndRate>
                  <doseQuantity>
                     <value value="10"/>
                     <unit value="U"/>
                     <system value="$ucum"/>
                     <code value="U"/>
                  </doseQuantity>
               </doseAndRate>
            </dosage>
         </MedicationStatement>
      </resource>
   </entry>
   <entry>
      <fullUrl value="urn:uuid:136d1490-be85-45fa-b86b-03ae5f18eb28"/>
      <resource>
         <Medication>
            <id value="136d1490-be85-45fa-b86b-03ae5f18eb28"/>
            <meta>
               <profile value="http://hl7.eu/fhir/eps/StructureDefinition/Medication-eu-eps"/>
            </meta>
            <text>
               <status value="generated"/>
               <div xmlns="http://www.w3.org/1999/xhtml">Ibuprofen 400 mg oral tablet</div>
            </text>
            <code>
               <coding>
                  <system value="http://snomed.info/sct"/>
                  <code value="329653008"/>
                  <display value="Ibuprofen 400 mg oral tablet"/>
               </coding>
               <text value="Ibuprofen 400 mg oral tablet"/>
            </code>
         </Medication>
      </resource>
   </entry>
   <entry>
      <fullUrl value="urn:uuid:4a98d6fe-7659-424b-8bc8-7d1d31369e31"/>
      <resource>
         <MedicationStatement>
            <id value="4a98d6fe-7659-424b-8bc8-7d1d31369e31"/>
            <meta>
               <profile value="http://hl7.eu/fhir/eps/StructureDefinition/MedicationStatement-eu-eps"/>
            </meta>
            <text>
               <status value="generated"/>
               <div xmlns="http://www.w3.org/1999/xhtml">
                  <table class="hl7__ips first25">
                     <tr>
                        <th>Medication</th>
                        <th>Since</th>
                        <th>Form</th>
                        <th>Dosage</th>
                        <th>Reason</th>
                     </tr>
                     <tr>
                        <td>Ibuprofen 400 mg oral tablet</td>
                        <td>
                           <span class="nb">2024-11-01</span>
                        </td>
                        <td>-</td>
                        <td>1 tablet (400 mg) every 8 hours as needed</td>
                        <td>-</td>
                     </tr>
                  </table>
               </div>
            </text>
            <status value="active"/>
            <medicationReference>
               <reference value="urn:uuid:136d1490-be85-45fa-b86b-03ae5f18eb28"/>
               <display value="Ibuprofen 400 mg oral tablet"/>
            </medicationReference>
            <subject>
               <reference value="urn:uuid:38a01245-e632-4521-b4da-3964d204fa3c"/>
               <display value="Gabrielius Gaičiūnas"/>
            </subject>
            <effectivePeriod>
               <start value="2024-11-01"/>
            </effectivePeriod>
            <dosage>
               <text value="1 tablet (400 mg) every 8 hours as needed"/>
               <timing>
                  <repeat>
                     <frequency value="3"/>
                     <period value="1"/>
                     <periodUnit value="d"/>
                  </repeat>
               </timing>
               <asNeededBoolean value="true"/>
               <doseAndRate>
                  <doseQuantity>
                     <value value="1"/>
                     <unit value="{tbl}"/>
                     <system value="$ucum"/>
                     <code value="{tbl}"/>
                  </doseQuantity>
               </doseAndRate>
            </dosage>
         </MedicationStatement>
      </resource>
   </entry>
   <entry>
      <fullUrl value="urn:uuid:5f9b763f-3b44-4916-b11c-86707c4404e0"/>
      <resource>
         <Medication>
            <id value="5f9b763f-3b44-4916-b11c-86707c4404e0"/>
            <meta>
               <profile value="http://hl7.eu/fhir/eps/StructureDefinition/Medication-eu-eps"/>
            </meta>
            <text>
               <status value="generated"/>
               <div xmlns="http://www.w3.org/1999/xhtml">Amlodipine (as amlodipine besylate) 2.5 mg oral tablet</div>
            </text>
            <code>
               <coding>
                  <system value="http://snomed.info/sct"/>
                  <code value="1153431000"/>
                  <display value="Amlodipine (as amlodipine besylate) 2.5 mg oral tablet"/>
               </coding>
               <text value="Amlodipine (as amlodipine besylate) 2.5 mg oral tablet"/>
            </code>
         </Medication>
      </resource>
   </entry>
   <entry>
      <fullUrl value="urn:uuid:3a8698f4-ce5e-49a4-905e-28a88799ce21"/>
      <resource>
         <MedicationStatement>
            <id value="3a8698f4-ce5e-49a4-905e-28a88799ce21"/>
            <meta>
               <profile value="http://hl7.eu/fhir/eps/StructureDefinition/MedicationStatement-eu-eps"/>
            </meta>
            <text>
               <status value="generated"/>
               <div xmlns="http://www.w3.org/1999/xhtml">
                  <table class="hl7__ips first25">
                     <tr>
                        <th>Medication</th>
                        <th>Since</th>
                        <th>Form</th>
                        <th>Dosage</th>
                        <th>Reason</th>
                     </tr>
                     <tr>
                        <td>Amlodipine (as amlodipine besylate) 2.5 mg oral tablet</td>
                        <td>
                           <span class="nb">2024-11-01</span>
                        </td>
                        <td>-</td>
                        <td>1 tablet (2.5 mg) by mouth once daily</td>
                        <td>Essential hypertension (disorder)</td>
                     </tr>
                  </table>
               </div>
            </text>
            <status value="active"/>
            <medicationReference>
               <reference value="urn:uuid:5f9b763f-3b44-4916-b11c-86707c4404e0"/>
               <display value="Amlodipine (as amlodipine besylate) 2.5 mg oral tablet"/>
            </medicationReference>
            <subject>
               <reference value="urn:uuid:38a01245-e632-4521-b4da-3964d204fa3c"/>
               <display value="Gabrielius Gaičiūnas"/>
            </subject>
            <effectivePeriod>
               <start value="2024-11-01"/>
            </effectivePeriod>
            <reasonCode>
               <coding>
                  <system value="http://snomed.info/sct"/>
                  <code value="59621000"/>
                  <display value="Essential hypertension (disorder)"/>
               </coding>
            </reasonCode>
            <dosage>
               <text value="1 tablet (2.5 mg) by mouth once daily"/>
               <timing>
                  <repeat>
                     <frequency value="1"/>
                     <period value="1"/>
                     <periodUnit value="d"/>
                  </repeat>
               </timing>
               <asNeededBoolean value="false"/>
               <doseAndRate>
                  <doseQuantity>
                     <value value="1"/>
                     <unit value="{tbl}"/>
                     <code value="{tbl}"/>
                  </doseQuantity>
               </doseAndRate>
            </dosage>
         </MedicationStatement>
      </resource>
   </entry>
   <entry>
      <fullUrl value="urn:uuid:a448a545-d7b1-4327-94af-b2b7eb8f49e1"/>
      <resource>
         <Medication>
            <id value="a448a545-d7b1-4327-94af-b2b7eb8f49e1"/>
            <meta>
               <profile value="http://hl7.eu/fhir/eps/StructureDefinition/Medication-eu-eps"/>
            </meta>
            <text>
               <status value="generated"/>
               <div xmlns="http://www.w3.org/1999/xhtml">Hydrochlorothiazide 25 mg oral tablet</div>
            </text>
            <code>
               <coding>
                  <system value="http://snomed.info/sct"/>
                  <code value="376209006"/>
                  <display value="Hydrochlorothiazide 25 mg oral tablet"/>
               </coding>
               <text value="Hydrochlorothiazide 25 mg oral tablet"/>
            </code>
         </Medication>
      </resource>
   </entry>
   <entry>
      <fullUrl value="urn:uuid:52a1f560-0894-405b-b3f9-ce0450eaa9ee"/>
      <resource>
         <MedicationStatement>
            <id value="52a1f560-0894-405b-b3f9-ce0450eaa9ee"/>
            <meta>
               <profile value="http://hl7.eu/fhir/eps/StructureDefinition/MedicationStatement-eu-eps"/>
            </meta>
            <text>
               <status value="generated"/>
               <div xmlns="http://www.w3.org/1999/xhtml">
                  <table class="hl7__ips first25">
                     <tr>
                        <th>Medication</th>
                        <th>Since</th>
                        <th>Form</th>
                        <th>Dosage</th>
                        <th>Reason</th>
                     </tr>
                     <tr>
                        <td>Hydrochlorothiazide 25 mg oral tablet</td>
                        <td>
                           <span class="nb">2024-11-01</span>
                        </td>
                        <td>-</td>
                        <td>1 tablet (25 mg) by mouth once daily</td>
                        <td>Essential hypertension (disorder)</td>
                     </tr>
                  </table>
               </div>
            </text>
            <status value="active"/>
            <medicationReference>
               <reference value="urn:uuid:a448a545-d7b1-4327-94af-b2b7eb8f49e1"/>
               <display value="Hydrochlorothiazide 25 mg oral tablet"/>
            </medicationReference>
            <subject>
               <reference value="urn:uuid:38a01245-e632-4521-b4da-3964d204fa3c"/>
               <display value="Gabrielius Gaičiūnas"/>
            </subject>
            <effectivePeriod>
               <start value="2024-11-01"/>
            </effectivePeriod>
            <reasonCode>
               <coding>
                  <system value="http://snomed.info/sct"/>
                  <code value="59621000"/>
                  <display value="Essential hypertension (disorder)"/>
               </coding>
            </reasonCode>
            <dosage>
               <text value="1 tablet (25 mg) by mouth once daily"/>
               <timing>
                  <repeat>
                     <frequency value="1"/>
                     <period value="1"/>
                     <periodUnit value="d"/>
                  </repeat>
               </timing>
               <asNeededBoolean value="false"/>
               <doseAndRate>
                  <doseQuantity>
                     <value value="1"/>
                     <unit value="{tbl} (25 mg)"/>
                     <system value="$ucum"/>
                     <code value="{tbl}"/>
                  </doseQuantity>
               </doseAndRate>
            </dosage>
         </MedicationStatement>
      </resource>
   </entry>
   <entry>
      <fullUrl value="urn:uuid:61527d31-8bb9-4c74-917b-2430ab743690"/>
      <resource>
         <Medication>
            <id value="61527d31-8bb9-4c74-917b-2430ab743690"/>
            <meta>
               <profile value="http://hl7.eu/fhir/eps/StructureDefinition/Medication-eu-eps"/>
            </meta>
            <text>
               <status value="generated"/>
               <div xmlns="http://www.w3.org/1999/xhtml">24 HR tacrolimus 1 MG Extended Release Oral Tablet</div>
            </text>
            <code>
               <coding>
                  <system value="http://www.nlm.nih.gov/research/umls/rxnorm"/>
                  <code value="1664463"/>
                  <display value="24 HR tacrolimus 1 MG Extended Release Oral Tablet"/>
               </coding>
               <text value="24 HR tacrolimus 1 MG Extended Release Oral Tablet"/>
            </code>
         </Medication>
      </resource>
   </entry>
   <entry>
      <fullUrl value="urn:uuid:69ad1b2b-dde5-448e-ab7f-bef357949444"/>
      <resource>
         <MedicationStatement>
            <id value="69ad1b2b-dde5-448e-ab7f-bef357949444"/>
            <meta>
               <profile value="http://hl7.eu/fhir/eps/StructureDefinition/MedicationStatement-eu-eps"/>
            </meta>
            <text>
               <status value="generated"/>
               <div xmlns="http://www.w3.org/1999/xhtml">
                  <table class="hl7__ips first25">
                     <tr>
                        <th>Medication</th>
                        <th>Since</th>
                        <th>Form</th>
                        <th>Dosage</th>
                        <th>Reason</th>
                     </tr>
                     <tr>
                        <td>24 HR tacrolimus 1 MG Extended Release Oral Tablet</td>
                        <td>
                           <span class="nb">2024-11-01</span>
                        </td>
                        <td>-</td>
                        <td>1 tablet (1 mg) by mouth once daily</td>
                        <td>History of renal transplant (situation)</td>
                     </tr>
                  </table>
               </div>
            </text>
            <status value="active"/>
            <medicationReference>
               <reference value="urn:uuid:61527d31-8bb9-4c74-917b-2430ab743690"/>
               <display value="24 HR tacrolimus 1 MG Extended Release Oral Tablet"/>
            </medicationReference>
            <subject>
               <reference value="urn:uuid:38a01245-e632-4521-b4da-3964d204fa3c"/>
               <display value="Gabrielius Gaičiūnas"/>
            </subject>
            <effectivePeriod>
               <start value="2024-11-01"/>
            </effectivePeriod>
            <reasonCode>
               <coding>
                  <system value="http://snomed.info/sct"/>
                  <code value="161665007"/>
                  <display value="History of renal transplant (situation)"/>
               </coding>
            </reasonCode>
            <dosage>
               <text value="1 tablet (1 mg) by mouth once daily"/>
               <timing>
                  <repeat>
                     <frequency value="1"/>
                     <period value="1"/>
                     <periodUnit value="d"/>
                  </repeat>
               </timing>
               <asNeededBoolean value="false"/>
               <doseAndRate>
                  <doseQuantity>
                     <value value="1"/>
                     <unit value="{tbl} (1 mg)"/>
                     <system value="$ucum"/>
                     <code value="{tbl}"/>
                  </doseQuantity>
               </doseAndRate>
            </dosage>
         </MedicationStatement>
      </resource>
   </entry>
   <entry>
      <fullUrl value="urn:uuid:f242078f-92c4-4a48-be25-3d1ca26bb54e"/>
      <resource>
         <Medication>
            <id value="f242078f-92c4-4a48-be25-3d1ca26bb54e"/>
            <meta>
               <profile value="http://hl7.eu/fhir/eps/StructureDefinition/Medication-eu-eps"/>
            </meta>
            <text>
               <status value="generated"/>
               <div xmlns="http://www.w3.org/1999/xhtml">Clopidogrel (as clopidogrel bisulfate) 75 mg oral tablet</div>
            </text>
            <code>
               <coding>
                  <system value="http://snomed.info/sct"/>
                  <code value="783586007"/>
                  <display value="Clopidogrel (as clopidogrel bisulfate) 75 mg oral tablet"/>
               </coding>
               <text value="Clopidogrel (as clopidogrel bisulfate) 75 mg oral tablet"/>
            </code>
         </Medication>
      </resource>
   </entry>
   <entry>
      <fullUrl value="urn:uuid:4ec9c978-2279-490e-86e3-5bd68df2926a"/>
      <resource>
         <MedicationStatement>
            <id value="4ec9c978-2279-490e-86e3-5bd68df2926a"/>
            <meta>
               <profile value="http://hl7.eu/fhir/eps/StructureDefinition/MedicationStatement-eu-eps"/>
            </meta>
            <text>
               <status value="generated"/>
               <div xmlns="http://www.w3.org/1999/xhtml">
                  <table class="hl7__ips first25">
                     <tr>
                        <th>Medication</th>
                        <th>Since</th>
                        <th>Form</th>
                        <th>Dosage</th>
                        <th>Reason</th>
                     </tr>
                     <tr>
                        <td>Clopidogrel (as clopidogrel bisulfate) 75 mg oral tablet</td>
                        <td>
                           <span class="nb">2006-11-10</span>
                        </td>
                        <td>-</td>
                        <td>1 tablet (75 mg) once daily</td>
                        <td>-</td>
                     </tr>
                  </table>
               </div>
            </text>
            <status value="active"/>
            <medicationReference>
               <reference value="urn:uuid:f242078f-92c4-4a48-be25-3d1ca26bb54e"/>
               <display value="Clopidogrel (as clopidogrel bisulfate) 75 mg oral tablet"/>
            </medicationReference>
            <subject>
               <reference value="urn:uuid:38a01245-e632-4521-b4da-3964d204fa3c"/>
               <display value="Gabrielius Gaičiūnas"/>
            </subject>
            <effectivePeriod>
               <start value="2006-11-10"/>
            </effectivePeriod>
            <dosage>
               <text value="1 tablet (75 mg) once daily"/>
               <timing>
                  <repeat>
                     <frequency value="1"/>
                     <period value="1"/>
                     <periodUnit value="d"/>
                  </repeat>
               </timing>
               <asNeededBoolean value="false"/>
               <doseAndRate>
                  <doseQuantity>
                     <value value="1"/>
                     <unit value="{tbl}"/>
                     <code value="{tbl}"/>
                  </doseQuantity>
               </doseAndRate>
            </dosage>
         </MedicationStatement>
      </resource>
   </entry>
   <entry>
      <fullUrl value="urn:uuid:378a023b-9552-489c-8fa5-b7b9a1a504d8"/>
      <resource>
         <Medication>
            <id value="378a023b-9552-489c-8fa5-b7b9a1a504d8"/>
            <meta>
               <profile value="http://hl7.eu/fhir/eps/StructureDefinition/Medication-eu-eps"/>
            </meta>
            <text>
               <status value="generated"/>
               <div xmlns="http://www.w3.org/1999/xhtml">Nitroglycerin 400 microgram/actuation sublingual spray</div>
            </text>
            <code>
               <coding>
                  <system value="http://snomed.info/sct"/>
                  <code value="425176000"/>
                  <display value="Nitroglycerin 400 microgram/actuation sublingual spray"/>
               </coding>
               <text value="Nitroglycerin 400 microgram/actuation sublingual spray"/>
            </code>
         </Medication>
      </resource>
   </entry>
   <entry>
      <fullUrl value="urn:uuid:ae3f0c07-48ac-4b11-af68-7cd16c1c89a2"/>
      <resource>
         <MedicationStatement>
            <id value="ae3f0c07-48ac-4b11-af68-7cd16c1c89a2"/>
            <meta>
               <profile value="http://hl7.eu/fhir/eps/StructureDefinition/MedicationStatement-eu-eps"/>
            </meta>
            <text>
               <status value="generated"/>
               <div xmlns="http://www.w3.org/1999/xhtml">
                  <table class="hl7__ips first25">
                     <tr>
                        <th>Medication</th>
                        <th>Since</th>
                        <th>Form</th>
                        <th>Dosage</th>
                        <th>Reason</th>
                     </tr>
                     <tr>
                        <td>Nitroglycerin 400 microgram/actuation sublingual spray</td>
                        <td>
                           <span class="nb">2006-11-10</span>
                        </td>
                        <td>-</td>
                        <td>400 micrograms per spray, spray one dose under the tongue as needed for chest pain, may repeat every 5 minutes as needed, up to 3 sprays in 15 minutes</td>
                        <td>-</td>
                     </tr>
                  </table>
               </div>
            </text>
            <status value="active"/>
            <medicationReference>
               <reference value="urn:uuid:378a023b-9552-489c-8fa5-b7b9a1a504d8"/>
               <display value="Nitroglycerin 400 microgram/actuation sublingual spray"/>
            </medicationReference>
            <subject>
               <reference value="urn:uuid:38a01245-e632-4521-b4da-3964d204fa3c"/>
               <display value="Gabrielius Gaičiūnas"/>
            </subject>
            <effectivePeriod>
               <start value="2006-11-10"/>
            </effectivePeriod>
            <dosage>
               <text value="400 micrograms per spray, spray one dose under the tongue as needed for chest pain, may repeat every 5 minutes as needed, up to 3 sprays in 15 minutes"/>
               <timing>
                  <repeat>
                     <frequency value="1"/>
                     <period value="5"/>
                     <periodUnit value="min"/>
                  </repeat>
               </timing>
               <asNeededBoolean value="true"/>
               <doseAndRate>
                  <doseQuantity>
                     <value value="400"/>
                     <unit value="microgram"/>
                     <code value="ug"/>
                  </doseQuantity>
               </doseAndRate>
            </dosage>
         </MedicationStatement>
      </resource>
   </entry>
   <entry>
      <fullUrl value="urn:uuid:18521788-c37d-4f12-b519-8e47d4862079"/>
      <resource>
         <Medication>
            <id value="18521788-c37d-4f12-b519-8e47d4862079"/>
            <meta>
               <profile value="http://hl7.eu/fhir/eps/StructureDefinition/Medication-eu-eps"/>
            </meta>
            <text>
               <status value="generated"/>
               <div xmlns="http://www.w3.org/1999/xhtml">Metoprolol tartrate (as metoprolol succinate) 100 mg prolonged-release oral tablet</div>
            </text>
            <code>
               <coding>
                  <system value="http://snomed.info/sct"/>
                  <code value="879980009"/>
                  <display value="Metoprolol tartrate (as metoprolol succinate) 100 mg prolonged-release oral tablet"/>
               </coding>
               <text value="Metoprolol tartrate (as metoprolol succinate) 100 mg prolonged-release oral tablet"/>
            </code>
         </Medication>
      </resource>
   </entry>
   <entry>
      <fullUrl value="urn:uuid:23242601-69ff-4f97-8cc7-42cd999352e8"/>
      <resource>
         <MedicationStatement>
            <id value="23242601-69ff-4f97-8cc7-42cd999352e8"/>
            <meta>
               <profile value="http://hl7.eu/fhir/eps/StructureDefinition/MedicationStatement-eu-eps"/>
            </meta>
            <text>
               <status value="generated"/>
               <div xmlns="http://www.w3.org/1999/xhtml">
                  <table class="hl7__ips first25">
                     <tr>
                        <th>Medication</th>
                        <th>Since</th>
                        <th>Form</th>
                        <th>Dosage</th>
                        <th>Reason</th>
                     </tr>
                     <tr>
                        <td>Metoprolol tartrate (as metoprolol succinate) 100 mg prolonged-release oral tablet</td>
                        <td>
                           <span class="nb">2006-11-10</span>
                        </td>
                        <td>-</td>
                        <td>1 tablet (100 mg) once daily</td>
                        <td>-</td>
                     </tr>
                  </table>
               </div>
            </text>
            <status value="active"/>
            <medicationReference>
               <reference value="urn:uuid:18521788-c37d-4f12-b519-8e47d4862079"/>
               <display value="Metoprolol tartrate (as metoprolol succinate) 100 mg prolonged-release oral tablet"/>
            </medicationReference>
            <subject>
               <reference value="urn:uuid:38a01245-e632-4521-b4da-3964d204fa3c"/>
               <display value="Gabrielius Gaičiūnas"/>
            </subject>
            <effectivePeriod>
               <start value="2006-11-10"/>
            </effectivePeriod>
            <dosage>
               <text value="1 tablet (100 mg) once daily"/>
               <timing>
                  <repeat>
                     <frequency value="1"/>
                     <period value="1"/>
                     <periodUnit value="d"/>
                  </repeat>
               </timing>
               <asNeededBoolean value="false"/>
               <doseAndRate>
                  <doseQuantity>
                     <value value="1"/>
                     <unit value="{tbl}"/>
                     <code value="{tbl}"/>
                  </doseQuantity>
               </doseAndRate>
            </dosage>
         </MedicationStatement>
      </resource>
   </entry>
   <entry>
      <fullUrl value="urn:uuid:95993719-2ffd-4e28-b1d0-70b9a2077add"/>
      <resource>
         <Medication>
            <id value="95993719-2ffd-4e28-b1d0-70b9a2077add"/>
            <meta>
               <profile value="http://hl7.eu/fhir/eps/StructureDefinition/Medication-eu-eps"/>
            </meta>
            <text>
               <status value="generated"/>
               <div xmlns="http://www.w3.org/1999/xhtml">Aspirin 81 mg gastro-resistant oral tablet</div>
            </text>
            <code>
               <coding>
                  <system value="http://snomed.info/sct"/>
                  <code value="765570009"/>
                  <display value="Aspirin 81 mg gastro-resistant oral tablet"/>
               </coding>
               <text value="Aspirin 81 mg gastro-resistant oral tablet"/>
            </code>
         </Medication>
      </resource>
   </entry>
   <entry>
      <fullUrl value="urn:uuid:4dcd08a7-10e0-4eea-9d08-6bab86e792a5"/>
      <resource>
         <MedicationStatement>
            <id value="4dcd08a7-10e0-4eea-9d08-6bab86e792a5"/>
            <meta>
               <profile value="http://hl7.eu/fhir/eps/StructureDefinition/MedicationStatement-eu-eps"/>
            </meta>
            <text>
               <status value="generated"/>
               <div xmlns="http://www.w3.org/1999/xhtml">
                  <table class="hl7__ips first25">
                     <tr>
                        <th>Medication</th>
                        <th>Since</th>
                        <th>Form</th>
                        <th>Dosage</th>
                        <th>Reason</th>
                     </tr>
                     <tr>
                        <td>Aspirin 81 mg gastro-resistant oral tablet</td>
                        <td>
                           <span class="nb">2002-01-13</span>
                        </td>
                        <td>-</td>
                        <td>1 tablet (81 mg) once daily</td>
                        <td>-</td>
                     </tr>
                  </table>
               </div>
            </text>
            <status value="active"/>
            <medicationReference>
               <reference value="urn:uuid:95993719-2ffd-4e28-b1d0-70b9a2077add"/>
               <display value="Aspirin 81 mg gastro-resistant oral tablet"/>
            </medicationReference>
            <subject>
               <reference value="urn:uuid:38a01245-e632-4521-b4da-3964d204fa3c"/>
               <display value="Gabrielius Gaičiūnas"/>
            </subject>
            <effectivePeriod>
               <start value="2002-01-13"/>
            </effectivePeriod>
            <dosage>
               <text value="1 tablet (81 mg) once daily"/>
               <timing>
                  <repeat>
                     <frequency value="1"/>
                     <period value="1"/>
                     <periodUnit value="d"/>
                  </repeat>
               </timing>
               <asNeededBoolean value="false"/>
               <doseAndRate>
                  <doseQuantity>
                     <value value="1"/>
                     <unit value="{tbl}"/>
                     <system value="$ucum"/>
                     <code value="{tbl}"/>
                  </doseQuantity>
               </doseAndRate>
            </dosage>
         </MedicationStatement>
      </resource>
   </entry>
   <entry>
      <fullUrl value="urn:uuid:3730e985-77dd-4f3a-92fa-89a050f01338"/>
      <resource>
         <Medication>
            <id value="3730e985-77dd-4f3a-92fa-89a050f01338"/>
            <meta>
               <profile value="http://hl7.eu/fhir/eps/StructureDefinition/Medication-eu-eps"/>
            </meta>
            <text>
               <status value="generated"/>
               <div xmlns="http://www.w3.org/1999/xhtml">Simvastatin 20 mg oral tablet</div>
            </text>
            <code>
               <coding>
                  <system value="http://snomed.info/sct"/>
                  <code value="319997009"/>
                  <display value="Simvastatin 20 mg oral tablet"/>
               </coding>
               <text value="Simvastatin 20 mg oral tablet"/>
            </code>
         </Medication>
      </resource>
   </entry>
   <entry>
      <fullUrl value="urn:uuid:e906396d-0e61-4b43-8d21-95275c6645b8"/>
      <resource>
         <MedicationStatement>
            <id value="e906396d-0e61-4b43-8d21-95275c6645b8"/>
            <meta>
               <profile value="http://hl7.eu/fhir/eps/StructureDefinition/MedicationStatement-eu-eps"/>
            </meta>
            <text>
               <status value="generated"/>
               <div xmlns="http://www.w3.org/1999/xhtml">
                  <table class="hl7__ips first25">
                     <tr>
                        <th>Medication</th>
                        <th>Since</th>
                        <th>Form</th>
                        <th>Dosage</th>
                        <th>Reason</th>
                     </tr>
                     <tr>
                        <td>Simvastatin 20 mg oral tablet</td>
                        <td>
                           <span class="nb">2002-01-13</span>
                        </td>
                        <td>-</td>
                        <td>1 tablet (20 mg) by mouth once daily</td>
                        <td>-</td>
                     </tr>
                  </table>
               </div>
            </text>
            <status value="active"/>
            <medicationReference>
               <reference value="urn:uuid:3730e985-77dd-4f3a-92fa-89a050f01338"/>
               <display value="Simvastatin 20 mg oral tablet"/>
            </medicationReference>
            <subject>
               <reference value="urn:uuid:38a01245-e632-4521-b4da-3964d204fa3c"/>
               <display value="Gabrielius Gaičiūnas"/>
            </subject>
            <effectivePeriod>
               <start value="2002-01-13"/>
            </effectivePeriod>
            <dosage>
               <text value="1 tablet (20 mg) by mouth once daily"/>
               <timing>
                  <repeat>
                     <frequency value="1"/>
                     <period value="1"/>
                     <periodUnit value="d"/>
                  </repeat>
               </timing>
               <asNeededBoolean value="false"/>
               <doseAndRate>
                  <doseQuantity>
                     <value value="1"/>
                     <unit value="{tbl}"/>
                     <code value="{tbl}"/>
                  </doseQuantity>
               </doseAndRate>
            </dosage>
         </MedicationStatement>
      </resource>
   </entry>
   <entry>
      <fullUrl value="urn:uuid:58092a45-766a-4592-b027-283d64d8c04b"/>
      <resource>
         <Medication>
            <id value="58092a45-766a-4592-b027-283d64d8c04b"/>
            <meta>
               <profile value="http://hl7.eu/fhir/eps/StructureDefinition/Medication-eu-eps"/>
            </meta>
            <text>
               <status value="generated"/>
               <div xmlns="http://www.w3.org/1999/xhtml">Carvedilol 3.125 mg oral tablet</div>
            </text>
            <code>
               <coding>
                  <system value="http://snomed.info/sct"/>
                  <code value="318633000"/>
                  <display value="Carvedilol 3.125 mg oral tablet"/>
               </coding>
               <text value="Carvedilol 3.125 mg oral tablet"/>
            </code>
         </Medication>
      </resource>
   </entry>
   <entry>
      <fullUrl value="urn:uuid:16f9ee51-c3d6-475a-bb0a-f377926e1474"/>
      <resource>
         <MedicationStatement>
            <id value="16f9ee51-c3d6-475a-bb0a-f377926e1474"/>
            <meta>
               <profile value="http://hl7.eu/fhir/eps/StructureDefinition/MedicationStatement-eu-eps"/>
            </meta>
            <text>
               <status value="generated"/>
               <div xmlns="http://www.w3.org/1999/xhtml">
                  <table class="hl7__ips first25">
                     <tr>
                        <th>Medication</th>
                        <th>Since</th>
                        <th>Form</th>
                        <th>Dosage</th>
                        <th>Reason</th>
                     </tr>
                     <tr>
                        <td>Carvedilol 3.125 mg oral tablet</td>
                        <td>
                           <span class="nb">2002-01-13</span>
                        </td>
                        <td>-</td>
                        <td>1 tablet (3.125 mg) by mouth twice daily</td>
                        <td>-</td>
                     </tr>
                  </table>
               </div>
            </text>
            <status value="active"/>
            <medicationReference>
               <reference value="urn:uuid:58092a45-766a-4592-b027-283d64d8c04b"/>
               <display value="Carvedilol 3.125 mg oral tablet"/>
            </medicationReference>
            <subject>
               <reference value="urn:uuid:38a01245-e632-4521-b4da-3964d204fa3c"/>
               <display value="Gabrielius Gaičiūnas"/>
            </subject>
            <effectivePeriod>
               <start value="2002-01-13"/>
            </effectivePeriod>
            <dosage>
               <text value="1 tablet (3.125 mg) by mouth twice daily"/>
               <timing>
                  <repeat>
                     <frequency value="2"/>
                     <period value="1"/>
                     <periodUnit value="d"/>
                  </repeat>
               </timing>
               <asNeededBoolean value="false"/>
               <doseAndRate>
                  <doseQuantity>
                     <value value="1"/>
                     <unit value="{tbl}"/>
                     <system value="$ucum"/>
                     <code value="{tbl}"/>
                  </doseQuantity>
               </doseAndRate>
            </dosage>
         </MedicationStatement>
      </resource>
   </entry>
   <entry>
      <fullUrl value="urn:uuid:4d5b7d16-b52d-4316-8b7b-c2d3325298fe"/>
      <resource>
         <Medication>
            <id value="4d5b7d16-b52d-4316-8b7b-c2d3325298fe"/>
            <meta>
               <profile value="http://hl7.eu/fhir/eps/StructureDefinition/Medication-eu-eps"/>
            </meta>
            <text>
               <status value="generated"/>
               <div xmlns="http://www.w3.org/1999/xhtml">Prasugrel (as prasugrel hydrochloride) 10 mg oral tablet</div>
            </text>
            <code>
               <coding>
                  <system value="http://snomed.info/sct"/>
                  <code value="783368008"/>
                  <display value="Prasugrel (as prasugrel hydrochloride) 10 mg oral tablet"/>
               </coding>
               <text value="Prasugrel (as prasugrel hydrochloride) 10 mg oral tablet"/>
            </code>
         </Medication>
      </resource>
   </entry>
   <entry>
      <fullUrl value="urn:uuid:e315ff7b-b248-4a6b-9b8f-86f9e3c4b38f"/>
      <resource>
         <MedicationStatement>
            <id value="e315ff7b-b248-4a6b-9b8f-86f9e3c4b38f"/>
            <meta>
               <profile value="http://hl7.eu/fhir/eps/StructureDefinition/MedicationStatement-eu-eps"/>
            </meta>
            <text>
               <status value="generated"/>
               <div xmlns="http://www.w3.org/1999/xhtml">
                  <table class="hl7__ips first25">
                     <tr>
                        <th>Medication</th>
                        <th>Since</th>
                        <th>Form</th>
                        <th>Dosage</th>
                        <th>Reason</th>
                     </tr>
                     <tr>
                        <td>Prasugrel (as prasugrel hydrochloride) 10 mg oral tablet</td>
                        <td>
                           <span class="nb">2002-01-13</span>
                        </td>
                        <td>-</td>
                        <td>1 tablet (10 mg) once daily</td>
                        <td>-</td>
                     </tr>
                  </table>
               </div>
            </text>
            <status value="active"/>
            <medicationReference>
               <reference value="urn:uuid:4d5b7d16-b52d-4316-8b7b-c2d3325298fe"/>
               <display value="Prasugrel (as prasugrel hydrochloride) 10 mg oral tablet"/>
            </medicationReference>
            <subject>
               <reference value="urn:uuid:38a01245-e632-4521-b4da-3964d204fa3c"/>
               <display value="Gabrielius Gaičiūnas"/>
            </subject>
            <effectivePeriod>
               <start value="2002-01-13"/>
            </effectivePeriod>
            <dosage>
               <text value="1 tablet (10 mg) once daily"/>
               <timing>
                  <repeat>
                     <frequency value="1"/>
                     <period value="1"/>
                     <periodUnit value="d"/>
                  </repeat>
               </timing>
               <asNeededBoolean value="false"/>
               <doseAndRate>
                  <doseQuantity>
                     <value value="1"/>
                     <unit value="{tbl}"/>
                     <code value="{tbl}"/>
                  </doseQuantity>
               </doseAndRate>
            </dosage>
         </MedicationStatement>
      </resource>
   </entry>
   <entry>
      <fullUrl value="urn:uuid:eb017173-7c6c-4941-a327-bdedf85d9a94"/>
      <resource>
         <Medication>
            <id value="eb017173-7c6c-4941-a327-bdedf85d9a94"/>
            <meta>
               <profile value="http://hl7.eu/fhir/eps/StructureDefinition/Medication-eu-eps"/>
            </meta>
            <text>
               <status value="generated"/>
               <div xmlns="http://www.w3.org/1999/xhtml">Losartan potassium 100 mg oral tablet</div>
            </text>
            <code>
               <coding>
                  <system value="http://snomed.info/sct"/>
                  <code value="407784004"/>
                  <display value="Losartan potassium 100 mg oral tablet"/>
               </coding>
               <text value="Losartan potassium 100 mg oral tablet"/>
            </code>
         </Medication>
      </resource>
   </entry>
   <entry>
      <fullUrl value="urn:uuid:31c29c24-e6b1-46b2-8d15-4e2d690b89fe"/>
      <resource>
         <MedicationStatement>
            <id value="31c29c24-e6b1-46b2-8d15-4e2d690b89fe"/>
            <meta>
               <profile value="http://hl7.eu/fhir/eps/StructureDefinition/MedicationStatement-eu-eps"/>
            </meta>
            <text>
               <status value="generated"/>
               <div xmlns="http://www.w3.org/1999/xhtml">
                  <table class="hl7__ips first25">
                     <tr>
                        <th>Medication</th>
                        <th>Since</th>
                        <th>Form</th>
                        <th>Dosage</th>
                        <th>Reason</th>
                     </tr>
                     <tr>
                        <td>Losartan potassium 100 mg oral tablet</td>
                        <td>
                           <span class="nb">2002-01-13</span>
                        </td>
                        <td>-</td>
                        <td>1 tablet (100 mg) by mouth once daily</td>
                        <td>-</td>
                     </tr>
                  </table>
               </div>
            </text>
            <status value="active"/>
            <medicationReference>
               <reference value="urn:uuid:eb017173-7c6c-4941-a327-bdedf85d9a94"/>
               <display value="Losartan potassium 100 mg oral tablet"/>
            </medicationReference>
            <subject>
               <reference value="urn:uuid:38a01245-e632-4521-b4da-3964d204fa3c"/>
               <display value="Gabrielius Gaičiūnas"/>
            </subject>
            <effectivePeriod>
               <start value="2002-01-13"/>
            </effectivePeriod>
            <dosage>
               <text value="1 tablet (100 mg) by mouth once daily"/>
               <timing>
                  <repeat>
                     <frequency value="1"/>
                     <period value="1"/>
                     <periodUnit value="d"/>
                  </repeat>
               </timing>
               <asNeededBoolean value="false"/>
               <doseAndRate>
                  <doseQuantity>
                     <value value="1"/>
                     <unit value="{tbl}"/>
                     <system value="$ucum"/>
                     <code value="{tbl}"/>
                  </doseQuantity>
               </doseAndRate>
            </dosage>
         </MedicationStatement>
      </resource>
   </entry>
   <entry>
      <fullUrl value="urn:uuid:c8f83bdc-2ef6-4a6f-ace5-5694c2f4ba7b"/>
      <resource>
         <Immunization>
            <id value="c8f83bdc-2ef6-4a6f-ace5-5694c2f4ba7b"/>
            <meta>
               <profile value="http://hl7.org/fhir/uv/ips/StructureDefinition/Immunization-uv-ips"/>
            </meta>
            <text>
               <status value="generated"/>
               <div xmlns="http://www.w3.org/1999/xhtml">
                  <table class="hl7__ips">
                     <tr>
                        <td>Influenza virus antigen only vaccine product</td>
                        <td>
                           <span class="nb">01-Nov-2024</span>
                        </td>
                     </tr>
                  </table>
               </div>
            </text>
            <status value="completed"/>
            <vaccineCode>
               <coding>
                  <system value="http://snomed.info/sct"/>
                  <code value="1181000221105"/>
                  <display value="Vaccine product containing Influenza virus antigen"/>
               </coding>
               <coding>
                  <system value="http://www.whocc.no/atc"/>
                  <code value="J07BB02"/>
                  <display value="Influenza, inactivated, split virus"/>
               </coding>
               <text value="Influenza virus antigen only vaccine product"/>
            </vaccineCode>
            <patient>
               <reference value="urn:uuid:38a01245-e632-4521-b4da-3964d204fa3c"/>
               <display value="Gabrielius Gaičiūnas"/>
            </patient>
            <occurrenceDateTime value="2024-11-01"/>
            <lotNumber value="AA-nZZOq"/>
            <expirationDate value="2025-04-24"/>
            <site>
               <coding>
                  <system value="http://snomed.info/sct"/>
                  <code value="244979005"/>
                  <display value="Entire muscle of upper arm"/>
               </coding>
               <text value="Entire muscle of upper arm"/>
            </site>
            <route>
               <coding>
                  <system value="http://snomed.info/sct"/>
                  <code value="78421000"/>
                  <display value="Intramuscular route"/>
               </coding>
               <text value="Intramuscular route"/>
            </route>
         </Immunization>
      </resource>
   </entry>
   <entry>
      <fullUrl value="urn:uuid:9bd01b58-6039-4bae-bf73-e9c3c8e66e45"/>
      <resource>
         <Immunization>
            <id value="9bd01b58-6039-4bae-bf73-e9c3c8e66e45"/>
            <meta>
               <profile value="http://hl7.org/fhir/uv/ips/StructureDefinition/Immunization-uv-ips"/>
            </meta>
            <text>
               <status value="generated"/>
               <div xmlns="http://www.w3.org/1999/xhtml">
                  <table class="hl7__ips">
                     <tr>
                        <td>SARS-CoV-2 mRNA vaccine</td>
                        <td>
                           <span class="nb">26-Feb-2021</span>
                        </td>
                     </tr>
                  </table>
               </div>
            </text>
            <status value="completed"/>
            <vaccineCode>
               <coding>
                  <system value="http://snomed.info/sct"/>
                  <code value="1119349007"/>
                  <display value="Vaccine product containing SARS-CoV-2 mRNA"/>
               </coding>
               <coding>
                  <system value="http://www.whocc.no/atc"/>
                  <code value="J07BX03"/>
                  <display value="COVID-19 mRNA vaccines"/>
               </coding>
               <text value="SARS-CoV-2 mRNA vaccine"/>
            </vaccineCode>
            <patient>
               <reference value="urn:uuid:38a01245-e632-4521-b4da-3964d204fa3c"/>
               <display value="Gabrielius Gaičiūnas"/>
            </patient>
            <occurrenceDateTime value="2021-02-26"/>
            <lotNumber value="TS-cyiHxk"/>
            <expirationDate value="2021-04-17"/>
            <site>
               <coding>
                  <system value="http://snomed.info/sct"/>
                  <code value="244979005"/>
                  <display value="Entire muscle of upper arm"/>
               </coding>
               <text value="Entire muscle of upper arm"/>
            </site>
            <route>
               <coding>
                  <system value="http://snomed.info/sct"/>
                  <code value="78421000"/>
                  <display value="Intramuscular route"/>
               </coding>
               <text value="Intramuscular route"/>
            </route>
         </Immunization>
      </resource>
   </entry>
   <entry>
      <fullUrl value="urn:uuid:e05e1141-51e4-47a6-8ff4-38929014bc81"/>
      <resource>
         <Immunization>
            <id value="e05e1141-51e4-47a6-8ff4-38929014bc81"/>
            <meta>
               <profile value="http://hl7.org/fhir/uv/ips/StructureDefinition/Immunization-uv-ips"/>
            </meta>
            <text>
               <status value="generated"/>
               <div xmlns="http://www.w3.org/1999/xhtml">
                  <table class="hl7__ips">
                     <tr>
                        <td>Clostridium tetani toxoid antigen adsorbed only vaccine product</td>
                        <td>
                           <span class="nb">11-Sep-2015</span>
                        </td>
                     </tr>
                  </table>
               </div>
            </text>
            <status value="completed"/>
            <vaccineCode>
               <coding>
                  <system value="http://snomed.info/sct"/>
                  <code value="777725002"/>
                  <display value="Vaccine product containing only Clostridium tetani toxoid antigen adsorbed"/>
               </coding>
               <coding>
                  <system value="http://www.whocc.no/atc"/>
                  <code value="J07AM51"/>
                  <display value="Diphtheria-tetanus vaccines, adult type"/>
               </coding>
               <text value="Clostridium tetani toxoid antigen adsorbed only vaccine product"/>
            </vaccineCode>
            <patient>
               <reference value="urn:uuid:38a01245-e632-4521-b4da-3964d204fa3c"/>
               <display value="Gabrielius Gaičiūnas"/>
            </patient>
            <occurrenceDateTime value="2015-09-11"/>
            <lotNumber value="HW-XcbNrM"/>
            <expirationDate value="2016-04-17"/>
            <site>
               <coding>
                  <system value="http://snomed.info/sct"/>
                  <code value="244979005"/>
                  <display value="Entire muscle of upper arm"/>
               </coding>
               <text value="Entire muscle of upper arm"/>
            </site>
            <route>
               <coding>
                  <system value="http://snomed.info/sct"/>
                  <code value="78421000"/>
                  <display value="Intramuscular route"/>
               </coding>
               <text value="Intramuscular route"/>
            </route>
         </Immunization>
      </resource>
   </entry>
   <entry>
      <fullUrl value="urn:uuid:2b415552-44f2-48df-bed6-2a71ef490aa2"/>
      <resource>
         <Procedure>
            <id value="2b415552-44f2-48df-bed6-2a71ef490aa2"/>
            <meta>
               <profile value="http://hl7.org/fhir/uv/ips/StructureDefinition/Procedure-uv-ips"/>
            </meta>
            <text>
               <status value="generated"/>
               <div xmlns="http://www.w3.org/1999/xhtml">
                  <table class="hl7__ips">
                     <tr>
                        <td>Patient discharge</td>
                        <td>
                           <span class="nb">16-Dec-2018</span>
                        </td>
                        <td>-</td>
                     </tr>
                  </table>
               </div>
            </text>
            <status value="completed"/>
            <code>
               <coding>
                  <system value="http://snomed.info/sct"/>
                  <code value="58000006"/>
                  <display value="Patient discharge (procedure)"/>
               </coding>
               <text value="Patient discharge"/>
            </code>
            <subject>
               <reference value="urn:uuid:"/>
               <display value="Gabrielius Gaičiūnas"/>
            </subject>
            <performedDateTime value="2018-12-16"/>
         </Procedure>
      </resource>
   </entry>
   <entry>
      <fullUrl value="urn:uuid:33f9e446-cd0e-47a1-a6f7-59c9bb17a257"/>
      <resource>
         <Procedure>
            <id value="33f9e446-cd0e-47a1-a6f7-59c9bb17a257"/>
            <meta>
               <profile value="http://hl7.org/fhir/uv/ips/StructureDefinition/Procedure-uv-ips"/>
            </meta>
            <text>
               <status value="generated"/>
               <div xmlns="http://www.w3.org/1999/xhtml">
                  <table class="hl7__ips">
                     <tr>
                        <td>Hospice care</td>
                        <td>
                           <span class="nb">15-Dec-2018</span>
                        </td>
                        <td>-</td>
                     </tr>
                  </table>
               </div>
            </text>
            <status value="completed"/>
            <code>
               <coding>
                  <system value="http://snomed.info/sct"/>
                  <code value="385763009"/>
                  <display value="Hospice care (regime/therapy)"/>
               </coding>
               <text value="Hospice care"/>
            </code>
            <subject>
               <reference value="urn:uuid:"/>
               <display value="Gabrielius Gaičiūnas"/>
            </subject>
            <performedDateTime value="2018-12-15"/>
         </Procedure>
      </resource>
   </entry>
   <entry>
      <fullUrl value="urn:uuid:c6a44e1a-8ca7-41ed-bf10-934037371fcb"/>
      <resource>
         <Procedure>
            <id value="c6a44e1a-8ca7-41ed-bf10-934037371fcb"/>
            <meta>
               <profile value="http://hl7.org/fhir/uv/ips/StructureDefinition/Procedure-uv-ips"/>
            </meta>
            <text>
               <status value="generated"/>
               <div xmlns="http://www.w3.org/1999/xhtml">
                  <table class="hl7__ips">
                     <tr>
                        <td>Notifications</td>
                        <td>
                           <span class="nb">23-Nov-2018</span>
                        </td>
                        <td>-</td>
                     </tr>
                  </table>
               </div>
            </text>
            <status value="completed"/>
            <code>
               <coding>
                  <system value="http://snomed.info/sct"/>
                  <code value="185087000"/>
                  <display value="Notifications (procedure)"/>
               </coding>
               <text value="Notifications"/>
            </code>
            <subject>
               <reference value="urn:uuid:"/>
               <display value="Gabrielius Gaičiūnas"/>
            </subject>
            <performedDateTime value="2018-11-23"/>
         </Procedure>
      </resource>
   </entry>
   <entry>
      <fullUrl value="urn:uuid:76781284-7d0f-4161-98fc-48deaf6940b2"/>
      <resource>
         <Procedure>
            <id value="76781284-7d0f-4161-98fc-48deaf6940b2"/>
            <meta>
               <profile value="http://hl7.org/fhir/uv/ips/StructureDefinition/Procedure-uv-ips"/>
            </meta>
            <text>
               <status value="generated"/>
               <div xmlns="http://www.w3.org/1999/xhtml">
                  <table class="hl7__ips">
                     <tr>
                        <td>Certification procedure</td>
                        <td>
                           <span class="nb">23-Nov-2018</span>
                        </td>
                        <td>-</td>
                     </tr>
                  </table>
               </div>
            </text>
            <status value="completed"/>
            <code>
               <coding>
                  <system value="http://snomed.info/sct"/>
                  <code value="310417005"/>
                  <display value="Certification procedure (procedure)"/>
               </coding>
               <text value="Certification procedure"/>
            </code>
            <subject>
               <reference value="urn:uuid:"/>
               <display value="Gabrielius Gaičiūnas"/>
            </subject>
            <performedDateTime value="2018-11-23"/>
         </Procedure>
      </resource>
   </entry>
   <entry>
      <fullUrl value="urn:uuid:be22918a-35c2-47a3-b33d-1365e4e04a2d"/>
      <resource>
         <Procedure>
            <id value="be22918a-35c2-47a3-b33d-1365e4e04a2d"/>
            <meta>
               <profile value="http://hl7.org/fhir/uv/ips/StructureDefinition/Procedure-uv-ips"/>
            </meta>
            <text>
               <status value="generated"/>
               <div xmlns="http://www.w3.org/1999/xhtml">
                  <table class="hl7__ips">
                     <tr>
                        <td>Initial patient assessment</td>
                        <td>
                           <span class="nb">23-Nov-2018</span>
                        </td>
                        <td>-</td>
                     </tr>
                  </table>
               </div>
            </text>
            <status value="completed"/>
            <code>
               <coding>
                  <system value="http://snomed.info/sct"/>
                  <code value="315639002"/>
                  <display value="Initial patient assessment (procedure)"/>
               </coding>
               <text value="Initial patient assessment"/>
            </code>
            <subject>
               <reference value="urn:uuid:"/>
               <display value="Gabrielius Gaičiūnas"/>
            </subject>
            <performedDateTime value="2018-11-23"/>
         </Procedure>
      </resource>
   </entry>
   <entry>
      <fullUrl value="urn:uuid:43ff1229-b933-48fd-b5f8-db807fca687d"/>
      <resource>
         <Procedure>
            <id value="43ff1229-b933-48fd-b5f8-db807fca687d"/>
            <meta>
               <profile value="http://hl7.org/fhir/uv/ips/StructureDefinition/Procedure-uv-ips"/>
            </meta>
            <text>
               <status value="generated"/>
               <div xmlns="http://www.w3.org/1999/xhtml">
                  <table class="hl7__ips">
                     <tr>
                        <td>Development of individualized plan of care</td>
                        <td>
                           <span class="nb">23-Nov-2018</span>
                        </td>
                        <td>-</td>
                     </tr>
                  </table>
               </div>
            </text>
            <status value="completed"/>
            <code>
               <coding>
                  <system value="http://snomed.info/sct"/>
                  <code value="370789001"/>
                  <display value="Development of individualized plan of care (procedure)"/>
               </coding>
               <text value="Development of individualized plan of care"/>
            </code>
            <subject>
               <reference value="urn:uuid:"/>
               <display value="Gabrielius Gaičiūnas"/>
            </subject>
            <performedDateTime value="2018-11-23"/>
         </Procedure>
      </resource>
   </entry>
   <entry>
      <fullUrl value="urn:uuid:ece3ba4e-44d4-4729-9b5b-ef8237502f0e"/>
      <resource>
         <Procedure>
            <id value="ece3ba4e-44d4-4729-9b5b-ef8237502f0e"/>
            <meta>
               <profile value="http://hl7.org/fhir/uv/ips/StructureDefinition/Procedure-uv-ips"/>
            </meta>
            <text>
               <status value="generated"/>
               <div xmlns="http://www.w3.org/1999/xhtml">
                  <table class="hl7__ips">
                     <tr>
                        <td>Referral to home health care service</td>
                        <td>
                           <span class="nb">01-Sep-2017</span>
                        </td>
                        <td>-</td>
                     </tr>
                  </table>
               </div>
            </text>
            <status value="completed"/>
            <code>
               <coding>
                  <system value="http://snomed.info/sct"/>
                  <code value="417511005"/>
                  <display value="Referral to home health care service (procedure)"/>
               </coding>
               <text value="Referral to home health care service"/>
            </code>
            <subject>
               <reference value="urn:uuid:"/>
               <display value="Gabrielius Gaičiūnas"/>
            </subject>
            <performedDateTime value="2017-09-01"/>
         </Procedure>
      </resource>
   </entry>
   <entry>
      <fullUrl value="urn:uuid:efbdc768-4f2e-4722-a6e9-91fcae0fd47b"/>
      <resource>
         <Procedure>
            <id value="efbdc768-4f2e-4722-a6e9-91fcae0fd47b"/>
            <meta>
               <profile value="http://hl7.org/fhir/uv/ips/StructureDefinition/Procedure-uv-ips"/>
            </meta>
            <text>
               <status value="generated"/>
               <div xmlns="http://www.w3.org/1999/xhtml">
                  <table class="hl7__ips">
                     <tr>
                        <td>Medication reconciliation</td>
                        <td>
                           <span class="nb">23-Dec-2016</span>
                        </td>
                        <td>-</td>
                     </tr>
                  </table>
               </div>
            </text>
            <status value="completed"/>
            <code>
               <coding>
                  <system value="http://snomed.info/sct"/>
                  <code value="430193006"/>
                  <display value="Medication Reconciliation (procedure)"/>
               </coding>
               <text value="Medication reconciliation"/>
            </code>
            <subject>
               <reference value="urn:uuid:"/>
               <display value="Gabrielius Gaičiūnas"/>
            </subject>
            <performedDateTime value="2016-12-23"/>
         </Procedure>
      </resource>
   </entry>
   <entry>
      <fullUrl value="urn:uuid:f478deca-5d60-40a1-98d5-747da3f42fe1"/>
      <resource>
         <Procedure>
            <id value="f478deca-5d60-40a1-98d5-747da3f42fe1"/>
            <meta>
               <profile value="http://hl7.org/fhir/uv/ips/StructureDefinition/Procedure-uv-ips"/>
            </meta>
            <text>
               <status value="generated"/>
               <div xmlns="http://www.w3.org/1999/xhtml">
                  <table class="hl7__ips">
                     <tr>
                        <td>Assessment of health and social care needs</td>
                        <td>
                           <span class="nb">16-Dec-2016</span>
                        </td>
                        <td>-</td>
                     </tr>
                  </table>
               </div>
            </text>
            <status value="completed"/>
            <code>
               <coding>
                  <system value="http://snomed.info/sct"/>
                  <code value="710824005"/>
                  <display value="Assessment of health and social care needs (procedure)"/>
               </coding>
               <text value="Assessment of health and social care needs"/>
            </code>
            <subject>
               <reference value="urn:uuid:"/>
               <display value="Gabrielius Gaičiūnas"/>
            </subject>
            <performedDateTime value="2016-12-16"/>
         </Procedure>
      </resource>
   </entry>
   <entry>
      <fullUrl value="urn:uuid:e3207685-307f-4805-94b0-3c1cdc291fb7"/>
      <resource>
         <Procedure>
            <id value="e3207685-307f-4805-94b0-3c1cdc291fb7"/>
            <meta>
               <profile value="http://hl7.org/fhir/uv/ips/StructureDefinition/Procedure-uv-ips"/>
            </meta>
            <text>
               <status value="generated"/>
               <div xmlns="http://www.w3.org/1999/xhtml">
                  <table class="hl7__ips">
                     <tr>
                        <td>Assessment using AUDIT-C (Alcohol Use Disorders Identification Test - Consumption)</td>
                        <td>
                           <span class="nb">16-Dec-2016</span>
                        </td>
                        <td>-</td>
                     </tr>
                  </table>
               </div>
            </text>
            <status value="completed"/>
            <code>
               <coding>
                  <system value="http://snomed.info/sct"/>
                  <code value="763302001"/>
                  <display value="Assessment using Alcohol Use Disorders Identification Test - Consumption (procedure)"/>
               </coding>
               <text value="Assessment using AUDIT-C (Alcohol Use Disorders Identification Test - Consumption)"/>
            </code>
            <subject>
               <reference value="urn:uuid:"/>
               <display value="Gabrielius Gaičiūnas"/>
            </subject>
            <performedDateTime value="2016-12-16"/>
         </Procedure>
      </resource>
   </entry>
   <entry>
      <fullUrl value="urn:uuid:8241ca0a-29c9-4009-bbe3-7a92e1940689"/>
      <resource>
         <Procedure>
            <id value="8241ca0a-29c9-4009-bbe3-7a92e1940689"/>
            <meta>
               <profile value="http://hl7.org/fhir/uv/ips/StructureDefinition/Procedure-uv-ips"/>
            </meta>
            <text>
               <status value="generated"/>
               <div xmlns="http://www.w3.org/1999/xhtml">
                  <table class="hl7__ips">
                     <tr>
                        <td>Screening for domestic abuse</td>
                        <td>
                           <span class="nb">16-Dec-2016</span>
                        </td>
                        <td>-</td>
                     </tr>
                  </table>
               </div>
            </text>
            <status value="completed"/>
            <code>
               <coding>
                  <system value="http://snomed.info/sct"/>
                  <code value="866148006"/>
                  <display value="Screening for domestic abuse (procedure)"/>
               </coding>
               <text value="Screening for domestic abuse"/>
            </code>
            <subject>
               <reference value="urn:uuid:"/>
               <display value="Gabrielius Gaičiūnas"/>
            </subject>
            <performedDateTime value="2016-12-16"/>
         </Procedure>
      </resource>
   </entry>
   <entry>
      <fullUrl value="urn:uuid:738eba8e-b36f-4646-b51b-165d96b01535"/>
      <resource>
         <Procedure>
            <id value="738eba8e-b36f-4646-b51b-165d96b01535"/>
            <meta>
               <profile value="http://hl7.org/fhir/uv/ips/StructureDefinition/Procedure-uv-ips"/>
            </meta>
            <text>
               <status value="generated"/>
               <div xmlns="http://www.w3.org/1999/xhtml">
                  <table class="hl7__ips">
                     <tr>
                        <td>Assessment of substance use</td>
                        <td>
                           <span class="nb">16-Dec-2016</span>
                        </td>
                        <td>-</td>
                     </tr>
                  </table>
               </div>
            </text>
            <status value="completed"/>
            <code>
               <coding>
                  <system value="http://snomed.info/sct"/>
                  <code value="428211000124100"/>
                  <display value="Assessment of substance use (procedure)"/>
               </coding>
               <text value="Assessment of substance use"/>
            </code>
            <subject>
               <reference value="urn:uuid:"/>
               <display value="Gabrielius Gaičiūnas"/>
            </subject>
            <performedDateTime value="2016-12-16"/>
         </Procedure>
      </resource>
   </entry>
   <entry>
      <fullUrl value="urn:uuid:0a855401-64e8-40d9-83a5-fa8aa7760a33"/>
      <resource>
         <AllergyIntolerance>
            <id value="0a855401-64e8-40d9-83a5-fa8aa7760a33"/>
            <meta>
               <profile value="http://hl7.eu/fhir/eps/StructureDefinition/allergyIntolerance-eu-eps"/>
            </meta>
            <text>
               <status value="generated"/>
               <div xmlns="http://www.w3.org/1999/xhtml">
                  <table class="hl7__ips">
                     <tr>
                        <th>Allergy/Intolerance</th>
                        <th>Onset Date</th>
                        <th>Status</th>
                        <th>Type</th>
                        <th>Reaction</th>
                     </tr>
                     <tr>
                        <td/>
                        <td>?</td>
                        <td>active</td>
                        <td>?</td>
                        <td/>
                     </tr>
                  </table>
               </div>
            </text>
            <clinicalStatus>
               <coding>
                  <system value="http://terminology.hl7.org/CodeSystem/allergyintolerance-clinical"/>
                  <code value="active"/>
               </coding>
            </clinicalStatus>
            <verificationStatus>
               <coding>
                  <system value="http://terminology.hl7.org/CodeSystem/allergyintolerance-verification"/>
                  <code value="confirmed"/>
               </coding>
            </verificationStatus>
            <code>
               <text/>
            </code>
            <patient>
               <reference value="urn:uuid:38a01245-e632-4521-b4da-3964d204fa3c"/>
               <display value="Gabrielius Gaičiūnas"/>
            </patient>
            <onsetDateTime>
               <extension url="http://hl7.org/fhir/StructureDefinition/data-absent-reason">
                  <valueCode value="unknown"/>
               </extension>
            </onsetDateTime>
         </AllergyIntolerance>
      </resource>
   </entry>
   <entry>
      <fullUrl value="urn:uuid:f78692f3-4b27-4ff7-81e0-b0f06da8f534"/>
      <resource>
         <CarePlan>
            <id value="f78692f3-4b27-4ff7-81e0-b0f06da8f534"/>
            <text>
               <status value="generated"/>
               <div xmlns="http://www.w3.org/1999/xhtml">
                  <table class="hl7__ips first25">
                     <tr>
                        <th>Active Planned Care / Goals</th>
                        <th>Start Date</th>
                        <th>Reason</th>
                     </tr>
                     <tr>
                        <td>Care plan</td>
                        <td>
                           <span class="nb">03-Dec-2013</span>
                        </td>
                        <td>-</td>
                     </tr>
                  </table>
               </div>
            </text>
            <status value="active"/>
            <intent value="plan"/>
            <category>
               <coding>
                  <system value="http://terminology.hl7.org/CodeSystem/care-plan-category"/>
                  <code value="assess-plan"/>
                  <display value="Assessment and Plan"/>
               </coding>
            </category>
            <subject>
               <reference value="urn:uuid:38a01245-e632-4521-b4da-3964d204fa3c"/>
               <display value="Gabrielius Gaičiūnas"/>
            </subject>
            <period>
               <start value="2013-12-03"/>
            </period>
            <activity>
               <detail>
                  <kind value="Appointment"/>
                  <code>
                     <coding>
                        <system value="http://snomed.info/sct"/>
                        <code value="734163000"/>
                        <display value="Care plan (record artifact)"/>
                     </coding>
                  </code>
                  <status value="unknown"/>
                  <description value="Care plan"/>
               </detail>
            </activity>
         </CarePlan>
      </resource>
   </entry>
   <entry>
      <fullUrl value="urn:uuid:3c4554c8-1e52-46cf-bdc9-1dd0d0c39a23"/>
      <resource>
         <CarePlan>
            <id value="3c4554c8-1e52-46cf-bdc9-1dd0d0c39a23"/>
            <text>
               <status value="generated"/>
               <div xmlns="http://www.w3.org/1999/xhtml">
                  <table class="hl7__ips first25">
                     <tr>
                        <th>Active Planned Care / Goals</th>
                        <th>Start Date</th>
                        <th>Reason</th>
                     </tr>
                     <tr>
                        <td>Dialysis care plan</td>
                        <td>
                           <span class="nb">08-Sep-2008</span>
                        </td>
                        <td>-</td>
                     </tr>
                  </table>
               </div>
            </text>
            <status value="active"/>
            <intent value="plan"/>
            <category>
               <coding>
                  <system value="http://terminology.hl7.org/CodeSystem/care-plan-category"/>
                  <code value="assess-plan"/>
                  <display value="Assessment and Plan"/>
               </coding>
            </category>
            <subject>
               <reference value="urn:uuid:38a01245-e632-4521-b4da-3964d204fa3c"/>
               <display value="Gabrielius Gaičiūnas"/>
            </subject>
            <period>
               <start value="2008-09-08"/>
            </period>
            <activity>
               <detail>
                  <kind value="Appointment"/>
                  <code>
                     <coding>
                        <system value="http://snomed.info/sct"/>
                        <code value="736690008"/>
                        <display value="Dialysis care plan (record artifact)"/>
                     </coding>
                  </code>
                  <status value="unknown"/>
                  <description value="Dialysis care plan"/>
               </detail>
            </activity>
         </CarePlan>
      </resource>
   </entry>
   <entry>
      <fullUrl value="urn:uuid:a617915c-e514-4874-8ba1-28a1391d66af"/>
      <resource>
         <CarePlan>
            <id value="a617915c-e514-4874-8ba1-28a1391d66af"/>
            <text>
               <status value="generated"/>
               <div xmlns="http://www.w3.org/1999/xhtml">
                  <table class="hl7__ips first25">
                     <tr>
                        <th>Active Planned Care / Goals</th>
                        <th>Start Date</th>
                        <th>Reason</th>
                     </tr>
                     <tr>
                        <td>Discharge care plan</td>
                        <td>
                           <span class="nb">13-Jan-2002</span>
                        </td>
                        <td>-</td>
                     </tr>
                  </table>
               </div>
            </text>
            <status value="active"/>
            <intent value="plan"/>
            <category>
               <coding>
                  <system value="http://terminology.hl7.org/CodeSystem/care-plan-category"/>
                  <code value="assess-plan"/>
                  <display value="Assessment and Plan"/>
               </coding>
            </category>
            <subject>
               <reference value="urn:uuid:38a01245-e632-4521-b4da-3964d204fa3c"/>
               <display value="Gabrielius Gaičiūnas"/>
            </subject>
            <period>
               <start value="2002-01-13"/>
            </period>
            <activity>
               <detail>
                  <kind value="Appointment"/>
                  <code>
                     <coding>
                        <system value="http://snomed.info/sct"/>
                        <code value="736372004"/>
                        <display value="Discharge care plan (record artifact)"/>
                     </coding>
                  </code>
                  <status value="unknown"/>
                  <description value="Discharge care plan"/>
               </detail>
            </activity>
         </CarePlan>
      </resource>
   </entry>
   <entry>
      <fullUrl value="urn:uuid:f5f61bee-b92c-4335-a248-4ca964aeaf7c"/>
      <resource>
         <CarePlan>
            <id value="f5f61bee-b92c-4335-a248-4ca964aeaf7c"/>
            <text>
               <status value="generated"/>
               <div xmlns="http://www.w3.org/1999/xhtml">
                  <table class="hl7__ips first25">
                     <tr>
                        <th>Active Planned Care / Goals</th>
                        <th>Start Date</th>
                        <th>Reason</th>
                     </tr>
                     <tr>
                        <td>Musculoskeletal care</td>
                        <td>
                           <span class="nb">17-Sep-1993</span>
                        </td>
                        <td>Localized primary osteoarthritis of the hand</td>
                     </tr>
                     <tr>
                        <td>
                           <ul>
                              <li>Reduce severity of hand pain associated with osteoarthritis</li>
                              <li>Improve ability to perform daily activities using hands</li>
                              <li>Increase grip strength in affected hand</li>
                           </ul>
                        </td>
                        <td/>
                        <td/>
                     </tr>
                  </table>
               </div>
            </text>
            <status value="active"/>
            <intent value="plan"/>
            <category>
               <coding>
                  <system value="http://terminology.hl7.org/CodeSystem/care-plan-category"/>
                  <code value="assess-plan"/>
                  <display value="Assessment and Plan"/>
               </coding>
            </category>
            <subject>
               <reference value="urn:uuid:38a01245-e632-4521-b4da-3964d204fa3c"/>
               <display value="Gabrielius Gaičiūnas"/>
            </subject>
            <period>
               <start value="1993-09-17"/>
            </period>
            <goal>
               <reference value="urn:uuid:f4fc43be-876e-432d-8224-5eda90b307b7"/>
            </goal>
            <goal>
               <reference value="urn:uuid:74865e98-16dd-49d9-8754-434ca32958f7"/>
            </goal>
            <goal>
               <reference value="urn:uuid:138323a1-5b61-48ce-830f-6a8ce2a46a80"/>
            </goal>
            <activity>
               <detail>
                  <kind value="Appointment"/>
                  <code>
                     <coding>
                        <system value="http://snomed.info/sct"/>
                        <code value="408869004"/>
                        <display value="Musculoskeletal care (regime/therapy)"/>
                     </coding>
                  </code>
                  <reasonCode>
                     <coding>
                        <system value="http://snomed.info/sct"/>
                        <code value="201834006"/>
                        <display value="Localized  primary osteoarthritis of the hand"/>
                     </coding>
                  </reasonCode>
                  <status value="unknown"/>
                  <description value="Musculoskeletal care"/>
               </detail>
            </activity>
         </CarePlan>
      </resource>
   </entry>
   <entry>
      <fullUrl value="urn:uuid:91e59aa2-d924-47df-9ebd-118df49b087c"/>
      <resource>
         <CarePlan>
            <id value="91e59aa2-d924-47df-9ebd-118df49b087c"/>
            <text>
               <status value="generated"/>
               <div xmlns="http://www.w3.org/1999/xhtml">
                  <table class="hl7__ips first25">
                     <tr>
                        <th>Active Planned Care / Goals</th>
                        <th>Start Date</th>
                        <th>Reason</th>
                     </tr>
                     <tr>
                        <td>Lifestyle education regarding hypertension</td>
                        <td>
                           <span class="nb">03-Feb-1978</span>
                        </td>
                        <td>Essential hypertension (disorder)</td>
                     </tr>
                     <tr>
                        <td>
                           <ul>
                              <li>Maintain blood pressure below 130/80 mmHg through lifestyle modification and education.</li>
                              <li>Patient will demonstrate adherence to recommended lifestyle modifications for hypertension, including dietary changes, increased physical activity, and reduced sodium intake.</li>
                           </ul>
                        </td>
                        <td/>
                        <td/>
                     </tr>
                  </table>
               </div>
            </text>
            <status value="active"/>
            <intent value="plan"/>
            <category>
               <coding>
                  <system value="http://terminology.hl7.org/CodeSystem/care-plan-category"/>
                  <code value="assess-plan"/>
                  <display value="Assessment and Plan"/>
               </coding>
            </category>
            <subject>
               <reference value="urn:uuid:38a01245-e632-4521-b4da-3964d204fa3c"/>
               <display value="Gabrielius Gaičiūnas"/>
            </subject>
            <period>
               <start value="1978-02-03"/>
            </period>
            <goal>
               <reference value="urn:uuid:1017c5db-a985-43c2-83b3-fd2f2d25a254"/>
            </goal>
            <goal>
               <reference value="urn:uuid:8584bb82-ffe4-4504-9dfb-fc5342cb4fea"/>
            </goal>
            <activity>
               <detail>
                  <kind value="Appointment"/>
                  <code>
                     <coding>
                        <system value="http://snomed.info/sct"/>
                        <code value="443402002"/>
                        <display value="Lifestyle education regarding hypertension (procedure)"/>
                     </coding>
                  </code>
                  <reasonCode>
                     <coding>
                        <system value="http://snomed.info/sct"/>
                        <code value="59621000"/>
                        <display value="Essential hypertension (disorder)"/>
                     </coding>
                  </reasonCode>
                  <status value="unknown"/>
                  <description value="Lifestyle education regarding hypertension"/>
               </detail>
            </activity>
         </CarePlan>
      </resource>
   </entry>
   <entry>
      <fullUrl value="urn:uuid:d85220db-9559-4da2-8b3f-183f99bdde99"/>
      <resource>
         <CarePlan>
            <id value="d85220db-9559-4da2-8b3f-183f99bdde99"/>
            <text>
               <status value="generated"/>
               <div xmlns="http://www.w3.org/1999/xhtml">
                  <table class="hl7__ips first25">
                     <tr>
                        <th>Active Planned Care / Goals</th>
                        <th>Start Date</th>
                        <th>Reason</th>
                     </tr>
                     <tr>
                        <td>Diabetes self management plan</td>
                        <td>
                           <span class="nb">28-Jan-1972</span>
                        </td>
                        <td>Prediabetes</td>
                     </tr>
                     <tr>
                        <td>
                           <ul>
                              <li>Patient will demonstrate understanding of diabetes self-management strategies including diet, exercise, and medication adherence.</li>
                              <li>Maintain hemoglobin A1c below 7% to reduce risk of diabetes complications.</li>
                              <li>Maintain fasting blood glucose below 100 mg/dL.</li>
                              <li>Maintain blood pressure below 130/80 mmHg as part of diabetes self-management.</li>
                              <li>Achieve at least 5% reduction in body weight to improve glycemic control.</li>
                           </ul>
                        </td>
                        <td/>
                        <td/>
                     </tr>
                  </table>
               </div>
            </text>
            <status value="active"/>
            <intent value="plan"/>
            <category>
               <coding>
                  <system value="http://terminology.hl7.org/CodeSystem/care-plan-category"/>
                  <code value="assess-plan"/>
                  <display value="Assessment and Plan"/>
               </coding>
            </category>
            <subject>
               <reference value="urn:uuid:38a01245-e632-4521-b4da-3964d204fa3c"/>
               <display value="Gabrielius Gaičiūnas"/>
            </subject>
            <period>
               <start value="1972-01-28"/>
            </period>
            <goal>
               <reference value="urn:uuid:28a71d92-0e52-42ab-945c-709a5538868c"/>
            </goal>
            <goal>
               <reference value="urn:uuid:431d5ac7-b997-4fcc-993a-c8f9dc9b0794"/>
            </goal>
            <goal>
               <reference value="urn:uuid:56171de5-2cc8-43d0-9a5c-f2b6eaea1a8a"/>
            </goal>
            <goal>
               <reference value="urn:uuid:574585a7-2624-454b-87e7-b3bf3b84e6da"/>
            </goal>
            <goal>
               <reference value="urn:uuid:981a84ce-07d3-4b29-9ec8-93d597db7b5e"/>
            </goal>
            <activity>
               <detail>
                  <kind value="Appointment"/>
                  <code>
                     <coding>
                        <system value="http://snomed.info/sct"/>
                        <code value="698360004"/>
                        <display value="Diabetes self management plan (qualifier value)"/>
                     </coding>
                  </code>
                  <reasonCode>
                     <coding>
                        <system value="http://snomed.info/sct"/>
                        <code value="15777000"/>
                        <display value="Prediabetes"/>
                     </coding>
                  </reasonCode>
                  <status value="unknown"/>
                  <description value="Diabetes self management plan"/>
               </detail>
            </activity>
         </CarePlan>
      </resource>
   </entry>
   <entry>
      <fullUrl value="urn:uuid:8d946614-3a40-436a-94f5-14c4cab3fcfd"/>
      <resource>
         <ImmunizationRecommendation>
            <id value="8d946614-3a40-436a-94f5-14c4cab3fcfd"/>
            <text>
               <status value="generated"/>
               <div xmlns="http://www.w3.org/1999/xhtml">
                  <table class="hl7__ips">
                     <tr>
                        <td>Vaccine product containing only Influenza virus antigen (medicinal product)</td>
                        <td>
                           <span class="nb">01-Oct-2025</span>
                        </td>
                        <td>Annual seasonal influenza vaccination</td>
                     </tr>
                  </table>
               </div>
            </text>
            <patient>
               <reference value="urn:uuid:38a01245-e632-4521-b4da-3964d204fa3c"/>
               <display value="Gabrielius Gaičiūnas"/>
            </patient>
            <date value="2025-10-22"/>
            <recommendation>
               <vaccineCode>
                  <coding>
                     <system value="http://snomed.info/sct"/>
                     <code value="1181000221105"/>
                     <display value="Vaccine product containing only Influenza virus antigen (medicinal product)"/>
                  </coding>
               </vaccineCode>
               <targetDisease>
                  <coding>
                     <system value="http://snomed.info/sct"/>
                     <code value="6142004"/>
                     <display value="Influenza (disorder)"/>
                  </coding>
               </targetDisease>
               <forecastStatus>
                  <coding>
                     <system value="http://terminology.hl7.org/CodeSystem/immunization-recommendation-status"/>
                     <code value="due"/>
                     <display value="Due"/>
                  </coding>
               </forecastStatus>
               <dateCriterion>
                  <code>
                     <coding>
                        <system value="http://loinc.org"/>
                        <code value="30980-7"/>
                        <display value="Date vaccine due"/>
                     </coding>
                  </code>
                  <value value="2025-10-01"/>
               </dateCriterion>
               <series value="Annual seasonal influenza vaccination"/>
            </recommendation>
         </ImmunizationRecommendation>
      </resource>
   </entry>
   <entry>
      <fullUrl value="urn:uuid:7e6b60ab-cb20-4e11-8464-fc8e49f5b093"/>
      <resource>
         <Observation>
            <id value="7e6b60ab-cb20-4e11-8464-fc8e49f5b093"/>
            <meta>
               <profile value="http://hl7.org/fhir/StructureDefinition/vitalsigns"/>
            </meta>
            <text>
               <status value="generated"/>
               <div xmlns="http://www.w3.org/1999/xhtml">
                  <table class="hl7__ips">
                     <tr>
                        <th>Vital Sign</th>
                        <th>Date</th>
                        <th>Measurement</th>
                     </tr>
                     <tr>
                        <td>Body Height</td>
                        <td>01-Nov-2024</td>
                        <td>183.6 cm</td>
                     </tr>
                  </table>
               </div>
            </text>
            <status value="final"/>
            <category>
               <coding>
                  <system value="http://terminology.hl7.org/CodeSystem/observation-category"/>
                  <code value="vital-signs"/>
                  <display value="Vital Signs"/>
               </coding>
            </category>
            <code>
               <coding>
                  <system value="http://loinc.org"/>
                  <code value="$8302-2"/>
                  <display value="Body Height"/>
               </coding>
            </code>
            <subject>
               <reference value="urn:uuid:38a01245-e632-4521-b4da-3964d204fa3c"/>
               <display value="Gabrielius Gaičiūnas"/>
            </subject>
            <effectiveDateTime value="2024-11-01"/>
            <valueQuantity>
               <value value="183.6"/>
               <unit value="cm"/>
               <code value="cm"/>
            </valueQuantity>
         </Observation>
      </resource>
   </entry>
   <entry>
      <fullUrl value="urn:uuid:6686bd11-dfcb-47ea-9320-558474d96f0d"/>
      <resource>
         <Observation>
            <id value="6686bd11-dfcb-47ea-9320-558474d96f0d"/>
            <meta>
               <profile value="http://hl7.org/fhir/StructureDefinition/vitalsigns"/>
            </meta>
            <text>
               <status value="generated"/>
               <div xmlns="http://www.w3.org/1999/xhtml">
                  <table class="hl7__ips">
                     <tr>
                        <th>Vital Sign</th>
                        <th>Date</th>
                        <th>Measurement</th>
                     </tr>
                     <tr>
                        <td>Pain severity - 0-10 verbal numeric rating [Score] - Reported</td>
                        <td>01-Nov-2024</td>
                        <td>2 {score}</td>
                     </tr>
                  </table>
               </div>
            </text>
            <status value="final"/>
            <category>
               <coding>
                  <system value="http://terminology.hl7.org/CodeSystem/observation-category"/>
                  <code value="vital-signs"/>
                  <display value="Vital Signs"/>
               </coding>
            </category>
            <code>
               <coding>
                  <system value="http://loinc.org"/>
                  <code value="$72514-3"/>
                  <display value="Pain severity - 0-10 verbal numeric rating [Score] - Reported"/>
               </coding>
            </code>
            <subject>
               <reference value="urn:uuid:38a01245-e632-4521-b4da-3964d204fa3c"/>
               <display value="Gabrielius Gaičiūnas"/>
            </subject>
            <effectiveDateTime value="2024-11-01"/>
            <valueQuantity>
               <value value="2"/>
               <unit value="{score}"/>
               <code value="{score}"/>
            </valueQuantity>
         </Observation>
      </resource>
   </entry>
   <entry>
      <fullUrl value="urn:uuid:85a28ed4-a157-40d6-8e0e-134f668917cc"/>
      <resource>
         <Observation>
            <id value="85a28ed4-a157-40d6-8e0e-134f668917cc"/>
            <meta>
               <profile value="http://hl7.org/fhir/StructureDefinition/vitalsigns"/>
            </meta>
            <text>
               <status value="generated"/>
               <div xmlns="http://www.w3.org/1999/xhtml">
                  <table class="hl7__ips">
                     <tr>
                        <th>Vital Sign</th>
                        <th>Date</th>
                        <th>Measurement</th>
                     </tr>
                     <tr>
                        <td>Body Weight</td>
                        <td>01-Nov-2024</td>
                        <td>93.8 kg</td>
                     </tr>
                  </table>
               </div>
            </text>
            <status value="final"/>
            <category>
               <coding>
                  <system value="http://terminology.hl7.org/CodeSystem/observation-category"/>
                  <code value="vital-signs"/>
                  <display value="Vital Signs"/>
               </coding>
            </category>
            <code>
               <coding>
                  <system value="http://loinc.org"/>
                  <code value="$29463-7"/>
                  <display value="Body Weight"/>
               </coding>
            </code>
            <subject>
               <reference value="urn:uuid:38a01245-e632-4521-b4da-3964d204fa3c"/>
               <display value="Gabrielius Gaičiūnas"/>
            </subject>
            <effectiveDateTime value="2024-11-01"/>
            <valueQuantity>
               <value value="93.8"/>
               <unit value="kg"/>
               <code value="kg"/>
            </valueQuantity>
         </Observation>
      </resource>
   </entry>
   <entry>
      <fullUrl value="urn:uuid:7a060631-0bc4-4bb3-8d1c-5a1bc8c73057"/>
      <resource>
         <Observation>
            <id value="7a060631-0bc4-4bb3-8d1c-5a1bc8c73057"/>
            <meta>
               <profile value="http://hl7.org/fhir/StructureDefinition/vitalsigns"/>
            </meta>
            <text>
               <status value="generated"/>
               <div xmlns="http://www.w3.org/1999/xhtml">
                  <table class="hl7__ips">
                     <tr>
                        <th>Vital Sign</th>
                        <th>Date</th>
                        <th>Measurement</th>
                     </tr>
                     <tr>
                        <td>Body mass index (BMI) [Ratio]</td>
                        <td>01-Nov-2024</td>
                        <td>27.8 kg/m2</td>
                     </tr>
                  </table>
               </div>
            </text>
            <status value="final"/>
            <category>
               <coding>
                  <system value="http://terminology.hl7.org/CodeSystem/observation-category"/>
                  <code value="vital-signs"/>
                  <display value="Vital Signs"/>
               </coding>
            </category>
            <code>
               <coding>
                  <system value="http://loinc.org"/>
                  <code value="$39156-5"/>
                  <display value="Body mass index (BMI) [Ratio]"/>
               </coding>
            </code>
            <subject>
               <reference value="urn:uuid:38a01245-e632-4521-b4da-3964d204fa3c"/>
               <display value="Gabrielius Gaičiūnas"/>
            </subject>
            <effectiveDateTime value="2024-11-01"/>
            <valueQuantity>
               <value value="27.8"/>
               <unit value="kg/m2"/>
               <code value="kg/m2"/>
            </valueQuantity>
         </Observation>
      </resource>
   </entry>
   <entry>
      <fullUrl value="urn:uuid:7f6a7baa-d67e-4fe7-b133-3683032542c0"/>
      <resource>
         <Observation>
            <id value="7f6a7baa-d67e-4fe7-b133-3683032542c0"/>
            <meta>
               <profile value="http://hl7.org/fhir/StructureDefinition/vitalsigns"/>
            </meta>
            <text>
               <status value="generated"/>
               <div xmlns="http://www.w3.org/1999/xhtml">
                  <table class="hl7__ips">
                     <tr>
                        <th>Vital Sign</th>
                        <th>Date</th>
                        <th>Measurement</th>
                     </tr>
                     <tr>
                        <td>Diastolic Blood Pressure</td>
                        <td>01-Nov-2024</td>
                        <td>81 mm[Hg]</td>
                     </tr>
                  </table>
               </div>
            </text>
            <status value="final"/>
            <category>
               <coding>
                  <system value="http://terminology.hl7.org/CodeSystem/observation-category"/>
                  <code value="vital-signs"/>
                  <display value="Vital Signs"/>
               </coding>
            </category>
            <code>
               <coding>
                  <system value="http://loinc.org"/>
                  <code value="$8462-4"/>
                  <display value="Diastolic Blood Pressure"/>
               </coding>
            </code>
            <subject>
               <reference value="urn:uuid:38a01245-e632-4521-b4da-3964d204fa3c"/>
               <display value="Gabrielius Gaičiūnas"/>
            </subject>
            <effectiveDateTime value="2024-11-01"/>
            <valueQuantity>
               <value value="81"/>
               <unit value="mm[Hg]"/>
               <code value="mm[Hg]"/>
            </valueQuantity>
         </Observation>
      </resource>
   </entry>
   <entry>
      <fullUrl value="urn:uuid:1fc698dd-f331-405e-ab3f-da50e704aa53"/>
      <resource>
         <Observation>
            <id value="1fc698dd-f331-405e-ab3f-da50e704aa53"/>
            <meta>
               <profile value="http://hl7.org/fhir/StructureDefinition/vitalsigns"/>
            </meta>
            <text>
               <status value="generated"/>
               <div xmlns="http://www.w3.org/1999/xhtml">
                  <table class="hl7__ips">
                     <tr>
                        <th>Vital Sign</th>
                        <th>Date</th>
                        <th>Measurement</th>
                     </tr>
                     <tr>
                        <td>Systolic Blood Pressure</td>
                        <td>01-Nov-2024</td>
                        <td>88 mm[Hg]</td>
                     </tr>
                  </table>
               </div>
            </text>
            <status value="final"/>
            <category>
               <coding>
                  <system value="http://terminology.hl7.org/CodeSystem/observation-category"/>
                  <code value="vital-signs"/>
                  <display value="Vital Signs"/>
               </coding>
            </category>
            <code>
               <coding>
                  <system value="http://loinc.org"/>
                  <code value="$8480-6"/>
                  <display value="Systolic Blood Pressure"/>
               </coding>
            </code>
            <subject>
               <reference value="urn:uuid:38a01245-e632-4521-b4da-3964d204fa3c"/>
               <display value="Gabrielius Gaičiūnas"/>
            </subject>
            <effectiveDateTime value="2024-11-01"/>
            <valueQuantity>
               <value value="88"/>
               <unit value="mm[Hg]"/>
               <code value="mm[Hg]"/>
            </valueQuantity>
         </Observation>
      </resource>
   </entry>
   <entry>
      <fullUrl value="urn:uuid:1ec80928-3f18-43c5-852c-65198f7d0696"/>
      <resource>
         <Observation>
            <id value="1ec80928-3f18-43c5-852c-65198f7d0696"/>
            <meta>
               <profile value="http://hl7.org/fhir/StructureDefinition/vitalsigns"/>
            </meta>
            <text>
               <status value="generated"/>
               <div xmlns="http://www.w3.org/1999/xhtml">
                  <table class="hl7__ips">
                     <tr>
                        <th>Vital Sign</th>
                        <th>Date</th>
                        <th>Measurement</th>
                     </tr>
                     <tr>
                        <td>Heart rate</td>
                        <td>01-Nov-2024</td>
                        <td>75 /min</td>
                     </tr>
                  </table>
               </div>
            </text>
            <status value="final"/>
            <category>
               <coding>
                  <system value="http://terminology.hl7.org/CodeSystem/observation-category"/>
                  <code value="vital-signs"/>
                  <display value="Vital Signs"/>
               </coding>
            </category>
            <code>
               <coding>
                  <system value="http://loinc.org"/>
                  <code value="$8867-4"/>
                  <display value="Heart rate"/>
               </coding>
            </code>
            <subject>
               <reference value="urn:uuid:38a01245-e632-4521-b4da-3964d204fa3c"/>
               <display value="Gabrielius Gaičiūnas"/>
            </subject>
            <effectiveDateTime value="2024-11-01"/>
            <valueQuantity>
               <value value="75"/>
               <unit value="/min"/>
               <code value="/min"/>
            </valueQuantity>
         </Observation>
      </resource>
   </entry>
   <entry>
      <fullUrl value="urn:uuid:20cbad28-cf33-49f6-9f35-ba383bdc603a"/>
      <resource>
         <Observation>
            <id value="20cbad28-cf33-49f6-9f35-ba383bdc603a"/>
            <meta>
               <profile value="http://hl7.org/fhir/StructureDefinition/vitalsigns"/>
            </meta>
            <text>
               <status value="generated"/>
               <div xmlns="http://www.w3.org/1999/xhtml">
                  <table class="hl7__ips">
                     <tr>
                        <th>Vital Sign</th>
                        <th>Date</th>
                        <th>Measurement</th>
                     </tr>
                     <tr>
                        <td>Respiratory rate</td>
                        <td>01-Nov-2024</td>
                        <td>16 /min</td>
                     </tr>
                  </table>
               </div>
            </text>
            <status value="final"/>
            <category>
               <coding>
                  <system value="http://terminology.hl7.org/CodeSystem/observation-category"/>
                  <code value="vital-signs"/>
                  <display value="Vital Signs"/>
               </coding>
            </category>
            <code>
               <coding>
                  <system value="http://loinc.org"/>
                  <code value="$9279-1"/>
                  <display value="Respiratory rate"/>
               </coding>
            </code>
            <subject>
               <reference value="urn:uuid:38a01245-e632-4521-b4da-3964d204fa3c"/>
               <display value="Gabrielius Gaičiūnas"/>
            </subject>
            <effectiveDateTime value="2024-11-01"/>
            <valueQuantity>
               <value value="16"/>
               <unit value="/min"/>
               <code value="/min"/>
            </valueQuantity>
         </Observation>
      </resource>
   </entry>
   <entry>
      <fullUrl value="urn:uuid:e43e5fa4-a918-47a8-9fdf-5509a51ba02d"/>
      <resource>
         <Observation>
            <id value="e43e5fa4-a918-47a8-9fdf-5509a51ba02d"/>
            <meta>
               <profile value="http://hl7.org/fhir/StructureDefinition/vitalsigns"/>
            </meta>
            <text>
               <status value="generated"/>
               <div xmlns="http://www.w3.org/1999/xhtml">
                  <table class="hl7__ips">
                     <tr>
                        <th>Vital Sign</th>
                        <th>Date</th>
                        <th>Measurement</th>
                     </tr>
                     <tr>
                        <td>Body Height</td>
                        <td>27-Oct-2023</td>
                        <td>183.6 cm</td>
                     </tr>
                  </table>
               </div>
            </text>
            <status value="final"/>
            <category>
               <coding>
                  <system value="http://terminology.hl7.org/CodeSystem/observation-category"/>
                  <code value="vital-signs"/>
                  <display value="Vital Signs"/>
               </coding>
            </category>
            <code>
               <coding>
                  <system value="http://loinc.org"/>
                  <code value="$8302-2"/>
                  <display value="Body Height"/>
               </coding>
            </code>
            <subject>
               <reference value="urn:uuid:38a01245-e632-4521-b4da-3964d204fa3c"/>
               <display value="Gabrielius Gaičiūnas"/>
            </subject>
            <effectiveDateTime value="2023-10-27"/>
            <valueQuantity>
               <value value="183.6"/>
               <unit value="cm"/>
               <code value="cm"/>
            </valueQuantity>
         </Observation>
      </resource>
   </entry>
   <entry>
      <fullUrl value="urn:uuid:f9e4ccf1-fd69-4dbc-b333-c5b00e369d19"/>
      <resource>
         <Observation>
            <id value="f9e4ccf1-fd69-4dbc-b333-c5b00e369d19"/>
            <meta>
               <profile value="http://hl7.org/fhir/StructureDefinition/vitalsigns"/>
            </meta>
            <text>
               <status value="generated"/>
               <div xmlns="http://www.w3.org/1999/xhtml">
                  <table class="hl7__ips">
                     <tr>
                        <th>Vital Sign</th>
                        <th>Date</th>
                        <th>Measurement</th>
                     </tr>
                     <tr>
                        <td>Pain severity - 0-10 verbal numeric rating [Score] - Reported</td>
                        <td>27-Oct-2023</td>
                        <td>2 {score}</td>
                     </tr>
                  </table>
               </div>
            </text>
            <status value="final"/>
            <category>
               <coding>
                  <system value="http://terminology.hl7.org/CodeSystem/observation-category"/>
                  <code value="vital-signs"/>
                  <display value="Vital Signs"/>
               </coding>
            </category>
            <code>
               <coding>
                  <system value="http://loinc.org"/>
                  <code value="$72514-3"/>
                  <display value="Pain severity - 0-10 verbal numeric rating [Score] - Reported"/>
               </coding>
            </code>
            <subject>
               <reference value="urn:uuid:38a01245-e632-4521-b4da-3964d204fa3c"/>
               <display value="Gabrielius Gaičiūnas"/>
            </subject>
            <effectiveDateTime value="2023-10-27"/>
            <valueQuantity>
               <value value="2"/>
               <unit value="{score}"/>
               <code value="{score}"/>
            </valueQuantity>
         </Observation>
      </resource>
   </entry>
   <entry>
      <fullUrl value="urn:uuid:a760ff2e-c985-4650-a52b-ff4e1668e94a"/>
      <resource>
         <Observation>
            <id value="a760ff2e-c985-4650-a52b-ff4e1668e94a"/>
            <meta>
               <profile value="http://hl7.org/fhir/StructureDefinition/vitalsigns"/>
            </meta>
            <text>
               <status value="generated"/>
               <div xmlns="http://www.w3.org/1999/xhtml">
                  <table class="hl7__ips">
                     <tr>
                        <th>Vital Sign</th>
                        <th>Date</th>
                        <th>Measurement</th>
                     </tr>
                     <tr>
                        <td>Body Weight</td>
                        <td>27-Oct-2023</td>
                        <td>93.8 kg</td>
                     </tr>
                  </table>
               </div>
            </text>
            <status value="final"/>
            <category>
               <coding>
                  <system value="http://terminology.hl7.org/CodeSystem/observation-category"/>
                  <code value="vital-signs"/>
                  <display value="Vital Signs"/>
               </coding>
            </category>
            <code>
               <coding>
                  <system value="http://loinc.org"/>
                  <code value="$29463-7"/>
                  <display value="Body Weight"/>
               </coding>
            </code>
            <subject>
               <reference value="urn:uuid:38a01245-e632-4521-b4da-3964d204fa3c"/>
               <display value="Gabrielius Gaičiūnas"/>
            </subject>
            <effectiveDateTime value="2023-10-27"/>
            <valueQuantity>
               <value value="93.8"/>
               <unit value="kg"/>
               <code value="kg"/>
            </valueQuantity>
         </Observation>
      </resource>
   </entry>
   <entry>
      <fullUrl value="urn:uuid:7dd32711-0e5f-46dd-b73b-6df6c2a72274"/>
      <resource>
         <Observation>
            <id value="7dd32711-0e5f-46dd-b73b-6df6c2a72274"/>
            <meta>
               <profile value="http://hl7.org/fhir/StructureDefinition/vitalsigns"/>
            </meta>
            <text>
               <status value="generated"/>
               <div xmlns="http://www.w3.org/1999/xhtml">
                  <table class="hl7__ips">
                     <tr>
                        <th>Vital Sign</th>
                        <th>Date</th>
                        <th>Measurement</th>
                     </tr>
                     <tr>
                        <td>Body mass index (BMI) [Ratio]</td>
                        <td>27-Oct-2023</td>
                        <td>27.8 kg/m2</td>
                     </tr>
                  </table>
               </div>
            </text>
            <status value="final"/>
            <category>
               <coding>
                  <system value="http://terminology.hl7.org/CodeSystem/observation-category"/>
                  <code value="vital-signs"/>
                  <display value="Vital Signs"/>
               </coding>
            </category>
            <code>
               <coding>
                  <system value="http://loinc.org"/>
                  <code value="$39156-5"/>
                  <display value="Body mass index (BMI) [Ratio]"/>
               </coding>
            </code>
            <subject>
               <reference value="urn:uuid:38a01245-e632-4521-b4da-3964d204fa3c"/>
               <display value="Gabrielius Gaičiūnas"/>
            </subject>
            <effectiveDateTime value="2023-10-27"/>
            <valueQuantity>
               <value value="27.8"/>
               <unit value="kg/m2"/>
               <code value="kg/m2"/>
            </valueQuantity>
         </Observation>
      </resource>
   </entry>
   <entry>
      <fullUrl value="urn:uuid:ff28d0a1-6a71-42e1-8af3-67c0e42e7344"/>
      <resource>
         <Observation>
            <id value="ff28d0a1-6a71-42e1-8af3-67c0e42e7344"/>
            <meta>
               <profile value="http://hl7.org/fhir/StructureDefinition/vitalsigns"/>
            </meta>
            <text>
               <status value="generated"/>
               <div xmlns="http://www.w3.org/1999/xhtml">
                  <table class="hl7__ips">
                     <tr>
                        <th>Vital Sign</th>
                        <th>Date</th>
                        <th>Measurement</th>
                     </tr>
                     <tr>
                        <td>Diastolic Blood Pressure</td>
                        <td>27-Oct-2023</td>
                        <td>78 mm[Hg]</td>
                     </tr>
                  </table>
               </div>
            </text>
            <status value="final"/>
            <category>
               <coding>
                  <system value="http://terminology.hl7.org/CodeSystem/observation-category"/>
                  <code value="vital-signs"/>
                  <display value="Vital Signs"/>
               </coding>
            </category>
            <code>
               <coding>
                  <system value="http://loinc.org"/>
                  <code value="$8462-4"/>
                  <display value="Diastolic Blood Pressure"/>
               </coding>
            </code>
            <subject>
               <reference value="urn:uuid:38a01245-e632-4521-b4da-3964d204fa3c"/>
               <display value="Gabrielius Gaičiūnas"/>
            </subject>
            <effectiveDateTime value="2023-10-27"/>
            <valueQuantity>
               <value value="78"/>
               <unit value="mm[Hg]"/>
               <code value="mm[Hg]"/>
            </valueQuantity>
         </Observation>
      </resource>
   </entry>
   <entry>
      <fullUrl value="urn:uuid:f63f02f7-0c32-4e3f-abbc-9c281a9d70b3"/>
      <resource>
         <Observation>
            <id value="f63f02f7-0c32-4e3f-abbc-9c281a9d70b3"/>
            <meta>
               <profile value="http://hl7.org/fhir/StructureDefinition/vitalsigns"/>
            </meta>
            <text>
               <status value="generated"/>
               <div xmlns="http://www.w3.org/1999/xhtml">
                  <table class="hl7__ips">
                     <tr>
                        <th>Vital Sign</th>
                        <th>Date</th>
                        <th>Measurement</th>
                     </tr>
                     <tr>
                        <td>Systolic Blood Pressure</td>
                        <td>27-Oct-2023</td>
                        <td>96 mm[Hg]</td>
                     </tr>
                  </table>
               </div>
            </text>
            <status value="final"/>
            <category>
               <coding>
                  <system value="http://terminology.hl7.org/CodeSystem/observation-category"/>
                  <code value="vital-signs"/>
                  <display value="Vital Signs"/>
               </coding>
            </category>
            <code>
               <coding>
                  <system value="http://loinc.org"/>
                  <code value="$8480-6"/>
                  <display value="Systolic Blood Pressure"/>
               </coding>
            </code>
            <subject>
               <reference value="urn:uuid:38a01245-e632-4521-b4da-3964d204fa3c"/>
               <display value="Gabrielius Gaičiūnas"/>
            </subject>
            <effectiveDateTime value="2023-10-27"/>
            <valueQuantity>
               <value value="96"/>
               <unit value="mm[Hg]"/>
               <code value="mm[Hg]"/>
            </valueQuantity>
         </Observation>
      </resource>
   </entry>
   <entry>
      <fullUrl value="urn:uuid:6d8849f9-7894-40f3-936e-c3ffdcf1d40c"/>
      <resource>
         <Observation>
            <id value="6d8849f9-7894-40f3-936e-c3ffdcf1d40c"/>
            <meta>
               <profile value="http://hl7.org/fhir/StructureDefinition/vitalsigns"/>
            </meta>
            <text>
               <status value="generated"/>
               <div xmlns="http://www.w3.org/1999/xhtml">
                  <table class="hl7__ips">
                     <tr>
                        <th>Vital Sign</th>
                        <th>Date</th>
                        <th>Measurement</th>
                     </tr>
                     <tr>
                        <td>Heart rate</td>
                        <td>27-Oct-2023</td>
                        <td>68 /min</td>
                     </tr>
                  </table>
               </div>
            </text>
            <status value="final"/>
            <category>
               <coding>
                  <system value="http://terminology.hl7.org/CodeSystem/observation-category"/>
                  <code value="vital-signs"/>
                  <display value="Vital Signs"/>
               </coding>
            </category>
            <code>
               <coding>
                  <system value="http://loinc.org"/>
                  <code value="$8867-4"/>
                  <display value="Heart rate"/>
               </coding>
            </code>
            <subject>
               <reference value="urn:uuid:38a01245-e632-4521-b4da-3964d204fa3c"/>
               <display value="Gabrielius Gaičiūnas"/>
            </subject>
            <effectiveDateTime value="2023-10-27"/>
            <valueQuantity>
               <value value="68"/>
               <unit value="/min"/>
               <code value="/min"/>
            </valueQuantity>
         </Observation>
      </resource>
   </entry>
   <entry>
      <fullUrl value="urn:uuid:55620360-3ea2-4ea9-beac-ae5bd65fb9e4"/>
      <resource>
         <Observation>
            <id value="55620360-3ea2-4ea9-beac-ae5bd65fb9e4"/>
            <meta>
               <profile value="http://hl7.org/fhir/StructureDefinition/vitalsigns"/>
            </meta>
            <text>
               <status value="generated"/>
               <div xmlns="http://www.w3.org/1999/xhtml">
                  <table class="hl7__ips">
                     <tr>
                        <th>Vital Sign</th>
                        <th>Date</th>
                        <th>Measurement</th>
                     </tr>
                     <tr>
                        <td>Respiratory rate</td>
                        <td>27-Oct-2023</td>
                        <td>15 /min</td>
                     </tr>
                  </table>
               </div>
            </text>
            <status value="final"/>
            <category>
               <coding>
                  <system value="http://terminology.hl7.org/CodeSystem/observation-category"/>
                  <code value="vital-signs"/>
                  <display value="Vital Signs"/>
               </coding>
            </category>
            <code>
               <coding>
                  <system value="http://loinc.org"/>
                  <code value="$9279-1"/>
                  <display value="Respiratory rate"/>
               </coding>
            </code>
            <subject>
               <reference value="urn:uuid:38a01245-e632-4521-b4da-3964d204fa3c"/>
               <display value="Gabrielius Gaičiūnas"/>
            </subject>
            <effectiveDateTime value="2023-10-27"/>
            <valueQuantity>
               <value value="15"/>
               <unit value="/min"/>
               <code value="/min"/>
            </valueQuantity>
         </Observation>
      </resource>
   </entry>
   <entry>
      <fullUrl value="urn:uuid:b74b7c86-dada-400a-8ff0-2f9fb964f6d8"/>
      <resource>
         <Observation>
            <id value="b74b7c86-dada-400a-8ff0-2f9fb964f6d8"/>
            <meta>
               <profile value="http://hl7.eu/fhir/laboratory/StructureDefinition/Observation-resultslab-eu-lab"/>
            </meta>
            <text>
               <status value="generated"/>
               <div xmlns="http://www.w3.org/1999/xhtml">
                  <table class="hl7__eu__lab__report">
                     <tr>
                        <th>Test</th>
                        <th>01-Nov-2024</th>
                        <th>Reference Range</th>
                        <th>Unit</th>
                     </tr>
                     <tr>
                        <td>Hemoglobin A1c/Hemoglobin.total in Blood</td>
                        <td>4.0</td>
                        <td>4.6 - 6.4</td>
                        <td>L</td>
                        <td>%</td>
                     </tr>
                  </table>
               </div>
            </text>
            <status value="final"/>
            <category>
               <coding>
                  <system value="http://terminology.hl7.org/CodeSystem/observation-category"/>
                  <code value="laboratory"/>
               </coding>
            </category>
            <code>
               <coding>
                  <system value="http://loinc.org"/>
                  <code value="4548-4"/>
                  <display value="Hemoglobin A1c/Hemoglobin.total in Blood"/>
               </coding>
               <text value="Hemoglobin A1c/Hemoglobin.total in Blood"/>
            </code>
            <subject>
               <reference value="urn:uuid:38a01245-e632-4521-b4da-3964d204fa3c"/>
               <display value="Gabrielius Gaičiūnas"/>
            </subject>
            <effectiveDateTime value="2024-11-01T16:05:46Z"/>
            <performer>
               <display value="The Central European Lab"/>
            </performer>
            <valueQuantity>
               <value value="4"/>
               <unit value="%"/>
               <system value="http://unitsofmeasure.org"/>
               <code value="%"/>
            </valueQuantity>
            <interpretation>
               <coding>
                  <system value="http://terminology.hl7.org/CodeSystem/v3-ObservationInterpretation"/>
                  <code value="L"/>
                  <display value="Low"/>
               </coding>
            </interpretation>
            <referenceRange>
               <low>
                  <value value="4.6"/>
                  <system value="http://unitsofmeasure.org"/>
                  <code value="%"/>
               </low>
            </referenceRange>
            <referenceRange>
               <high>
                  <value value="6.4"/>
                  <system value="http://unitsofmeasure.org"/>
                  <code value="%"/>
               </high>
            </referenceRange>
         </Observation>
      </resource>
   </entry>
   <entry>
      <fullUrl value="urn:uuid:8dcc664f-f023-46ef-9423-591ba3374298"/>
      <resource>
         <Observation>
            <id value="8dcc664f-f023-46ef-9423-591ba3374298"/>
            <meta>
               <profile value="http://hl7.eu/fhir/laboratory/StructureDefinition/Observation-resultslab-eu-lab"/>
            </meta>
            <text>
               <status value="generated"/>
               <div xmlns="http://www.w3.org/1999/xhtml">
                  <table class="hl7__eu__lab__report">
                     <tr>
                        <th>Test</th>
                        <th>01-Nov-2024</th>
                        <th>Reference Range</th>
                        <th>Unit</th>
                     </tr>
                     <tr>
                        <td>Glucose [Mass/volume] in Blood</td>
                        <td>90.0</td>
                        <td>70 - 110</td>
                        <td/>
                        <td>mg/dL</td>
                     </tr>
                  </table>
               </div>
            </text>
            <status value="final"/>
            <category>
               <coding>
                  <system value="http://terminology.hl7.org/CodeSystem/observation-category"/>
                  <code value="laboratory"/>
               </coding>
            </category>
            <code>
               <coding>
                  <system value="http://loinc.org"/>
                  <code value="2339-0"/>
                  <display value="Glucose [Mass/volume] in Blood"/>
               </coding>
               <text value="Glucose [Mass/volume] in Blood"/>
            </code>
            <subject>
               <reference value="urn:uuid:38a01245-e632-4521-b4da-3964d204fa3c"/>
               <display value="Gabrielius Gaičiūnas"/>
            </subject>
            <effectiveDateTime value="2024-11-01T16:05:46Z"/>
            <performer>
               <display value="The Central European Lab"/>
            </performer>
            <valueQuantity>
               <value value="90"/>
               <unit value="mg/dL"/>
               <system value="http://unitsofmeasure.org"/>
               <code value="mg/dL"/>
            </valueQuantity>
            <referenceRange>
               <low>
                  <value value="70"/>
                  <system value="http://unitsofmeasure.org"/>
                  <code value="mg/dL"/>
               </low>
            </referenceRange>
            <referenceRange>
               <high>
                  <value value="110"/>
                  <system value="http://unitsofmeasure.org"/>
                  <code value="mg/dL"/>
               </high>
            </referenceRange>
         </Observation>
      </resource>
   </entry>
   <entry>
      <fullUrl value="urn:uuid:fd31a024-b59b-492e-b693-85693b5dd48e"/>
      <resource>
         <Observation>
            <id value="fd31a024-b59b-492e-b693-85693b5dd48e"/>
            <meta>
               <profile value="http://hl7.eu/fhir/laboratory/StructureDefinition/Observation-resultslab-eu-lab"/>
            </meta>
            <text>
               <status value="generated"/>
               <div xmlns="http://www.w3.org/1999/xhtml">
                  <table class="hl7__eu__lab__report">
                     <tr>
                        <th>Test</th>
                        <th>01-Nov-2024</th>
                        <th>Reference Range</th>
                        <th>Unit</th>
                     </tr>
                     <tr>
                        <td>Urea nitrogen [Mass/volume] in Blood</td>
                        <td>12.7</td>
                        <td>7 - 43</td>
                        <td/>
                        <td>mg/dL</td>
                     </tr>
                  </table>
               </div>
            </text>
            <status value="final"/>
            <category>
               <coding>
                  <system value="http://terminology.hl7.org/CodeSystem/observation-category"/>
                  <code value="laboratory"/>
               </coding>
            </category>
            <code>
               <coding>
                  <system value="http://loinc.org"/>
                  <code value="6299-2"/>
                  <display value="Urea nitrogen [Mass/volume] in Blood"/>
               </coding>
               <text value="Urea nitrogen [Mass/volume] in Blood"/>
            </code>
            <subject>
               <reference value="urn:uuid:38a01245-e632-4521-b4da-3964d204fa3c"/>
               <display value="Gabrielius Gaičiūnas"/>
            </subject>
            <effectiveDateTime value="2024-11-01T16:05:46Z"/>
            <performer>
               <display value="The Central European Lab"/>
            </performer>
            <valueQuantity>
               <value value="12.7"/>
               <unit value="mg/dL"/>
               <system value="http://unitsofmeasure.org"/>
               <code value="mg/dL"/>
            </valueQuantity>
            <referenceRange>
               <low>
                  <value value="7"/>
                  <system value="http://unitsofmeasure.org"/>
                  <code value="mg/dL"/>
               </low>
            </referenceRange>
            <referenceRange>
               <high>
                  <value value="43"/>
                  <system value="http://unitsofmeasure.org"/>
                  <code value="mg/dL"/>
               </high>
            </referenceRange>
         </Observation>
      </resource>
   </entry>
   <entry>
      <fullUrl value="urn:uuid:63edc1d8-82ad-4afb-9f0e-2c80cdcdd10c"/>
      <resource>
         <Observation>
            <id value="63edc1d8-82ad-4afb-9f0e-2c80cdcdd10c"/>
            <meta>
               <profile value="http://hl7.eu/fhir/laboratory/StructureDefinition/Observation-resultslab-eu-lab"/>
            </meta>
            <text>
               <status value="generated"/>
               <div xmlns="http://www.w3.org/1999/xhtml">
                  <table class="hl7__eu__lab__report">
                     <tr>
                        <th>Test</th>
                        <th>01-Nov-2024</th>
                        <th>Reference Range</th>
                        <th>Unit</th>
                     </tr>
                     <tr>
                        <td>Creatinine [Mass/volume] in Blood</td>
                        <td>0.8</td>
                        <td>0.9 - 1.3</td>
                        <td>L</td>
                        <td>mg/dL</td>
                     </tr>
                  </table>
               </div>
            </text>
            <status value="final"/>
            <category>
               <coding>
                  <system value="http://terminology.hl7.org/CodeSystem/observation-category"/>
                  <code value="laboratory"/>
               </coding>
            </category>
            <code>
               <coding>
                  <system value="http://loinc.org"/>
                  <code value="38483-4"/>
                  <display value="Creatinine [Mass/volume] in Blood"/>
               </coding>
               <text value="Creatinine [Mass/volume] in Blood"/>
            </code>
            <subject>
               <reference value="urn:uuid:38a01245-e632-4521-b4da-3964d204fa3c"/>
               <display value="Gabrielius Gaičiūnas"/>
            </subject>
            <effectiveDateTime value="2024-11-01T16:05:46Z"/>
            <performer>
               <display value="The Central European Lab"/>
            </performer>
            <valueQuantity>
               <value value="0.8"/>
               <unit value="mg/dL"/>
               <system value="http://unitsofmeasure.org"/>
               <code value="mg/dL"/>
            </valueQuantity>
            <interpretation>
               <coding>
                  <system value="http://terminology.hl7.org/CodeSystem/v3-ObservationInterpretation"/>
                  <code value="L"/>
                  <display value="Low"/>
               </coding>
            </interpretation>
            <referenceRange>
               <low>
                  <value value="0.9"/>
                  <system value="http://unitsofmeasure.org"/>
                  <code value="mg/dL"/>
               </low>
            </referenceRange>
            <referenceRange>
               <high>
                  <value value="1.3"/>
                  <system value="http://unitsofmeasure.org"/>
                  <code value="mg/dL"/>
               </high>
            </referenceRange>
         </Observation>
      </resource>
   </entry>
   <entry>
      <fullUrl value="urn:uuid:1b6594f8-5ef1-40ea-aa37-ac0a3d88aad7"/>
      <resource>
         <Observation>
            <id value="1b6594f8-5ef1-40ea-aa37-ac0a3d88aad7"/>
            <meta>
               <profile value="http://hl7.eu/fhir/laboratory/StructureDefinition/Observation-resultslab-eu-lab"/>
            </meta>
            <text>
               <status value="generated"/>
               <div xmlns="http://www.w3.org/1999/xhtml">
                  <table class="hl7__eu__lab__report">
                     <tr>
                        <th>Test</th>
                        <th>01-Nov-2024</th>
                        <th>Reference Range</th>
                        <th>Unit</th>
                     </tr>
                     <tr>
                        <td>Calcium [Mass/volume] in Blood</td>
                        <td>8.6</td>
                        <td>8.5 - 10.5</td>
                        <td/>
                        <td>mg/dL</td>
                     </tr>
                  </table>
               </div>
            </text>
            <status value="final"/>
            <category>
               <coding>
                  <system value="http://terminology.hl7.org/CodeSystem/observation-category"/>
                  <code value="laboratory"/>
               </coding>
            </category>
            <code>
               <coding>
                  <system value="http://loinc.org"/>
                  <code value="49765-1"/>
                  <display value="Calcium [Mass/volume] in Blood"/>
               </coding>
               <text value="Calcium [Mass/volume] in Blood"/>
            </code>
            <subject>
               <reference value="urn:uuid:38a01245-e632-4521-b4da-3964d204fa3c"/>
               <display value="Gabrielius Gaičiūnas"/>
            </subject>
            <effectiveDateTime value="2024-11-01T16:05:46Z"/>
            <performer>
               <display value="The Central European Lab"/>
            </performer>
            <valueQuantity>
               <value value="8.6"/>
               <unit value="mg/dL"/>
               <system value="http://unitsofmeasure.org"/>
               <code value="mg/dL"/>
            </valueQuantity>
            <referenceRange>
               <low>
                  <value value="8.5"/>
                  <system value="http://unitsofmeasure.org"/>
                  <code value="mg/dL"/>
               </low>
            </referenceRange>
            <referenceRange>
               <high>
                  <value value="10.5"/>
                  <system value="http://unitsofmeasure.org"/>
                  <code value="mg/dL"/>
               </high>
            </referenceRange>
         </Observation>
      </resource>
   </entry>
   <entry>
      <fullUrl value="urn:uuid:70a79c97-084a-4f01-ae72-dd586af39663"/>
      <resource>
         <Observation>
            <id value="70a79c97-084a-4f01-ae72-dd586af39663"/>
            <meta>
               <profile value="http://hl7.eu/fhir/laboratory/StructureDefinition/Observation-resultslab-eu-lab"/>
            </meta>
            <text>
               <status value="generated"/>
               <div xmlns="http://www.w3.org/1999/xhtml">
                  <table class="hl7__eu__lab__report">
                     <tr>
                        <th>Test</th>
                        <th>01-Nov-2024</th>
                        <th>Reference Range</th>
                        <th>Unit</th>
                     </tr>
                     <tr>
                        <td>Sodium [Moles/volume] in Blood</td>
                        <td>141.1</td>
                        <td>135 - 145</td>
                        <td/>
                        <td>mmol/L</td>
                     </tr>
                  </table>
               </div>
            </text>
            <status value="final"/>
            <category>
               <coding>
                  <system value="http://terminology.hl7.org/CodeSystem/observation-category"/>
                  <code value="laboratory"/>
               </coding>
            </category>
            <code>
               <coding>
                  <system value="http://loinc.org"/>
                  <code value="2947-0"/>
                  <display value="Sodium [Moles/volume] in Blood"/>
               </coding>
               <text value="Sodium [Moles/volume] in Blood"/>
            </code>
            <subject>
               <reference value="urn:uuid:38a01245-e632-4521-b4da-3964d204fa3c"/>
               <display value="Gabrielius Gaičiūnas"/>
            </subject>
            <effectiveDateTime value="2024-11-01T16:05:46Z"/>
            <performer>
               <display value="The Central European Lab"/>
            </performer>
            <valueQuantity>
               <value value="141.1"/>
               <unit value="mmol/L"/>
               <system value="http://unitsofmeasure.org"/>
               <code value="mmol/L"/>
            </valueQuantity>
            <referenceRange>
               <low>
                  <value value="135"/>
                  <system value="http://unitsofmeasure.org"/>
                  <code value="mmol/L"/>
               </low>
            </referenceRange>
            <referenceRange>
               <high>
                  <value value="145"/>
                  <system value="http://unitsofmeasure.org"/>
                  <code value="mmol/L"/>
               </high>
            </referenceRange>
         </Observation>
      </resource>
   </entry>
   <entry>
      <fullUrl value="urn:uuid:06094e8b-887b-402c-825a-7920b4c0e1a0"/>
      <resource>
         <Observation>
            <id value="06094e8b-887b-402c-825a-7920b4c0e1a0"/>
            <meta>
               <profile value="http://hl7.eu/fhir/laboratory/StructureDefinition/Observation-resultslab-eu-lab"/>
            </meta>
            <text>
               <status value="generated"/>
               <div xmlns="http://www.w3.org/1999/xhtml">
                  <table class="hl7__eu__lab__report">
                     <tr>
                        <th>Test</th>
                        <th>01-Nov-2024</th>
                        <th>Reference Range</th>
                        <th>Unit</th>
                     </tr>
                     <tr>
                        <td>Potassium [Moles/volume] in Blood</td>
                        <td>4.7</td>
                        <td>3.5 - 5.3</td>
                        <td/>
                        <td>mmol/L</td>
                     </tr>
                  </table>
               </div>
            </text>
            <status value="final"/>
            <category>
               <coding>
                  <system value="http://terminology.hl7.org/CodeSystem/observation-category"/>
                  <code value="laboratory"/>
               </coding>
            </category>
            <code>
               <coding>
                  <system value="http://loinc.org"/>
                  <code value="6298-4"/>
                  <display value="Potassium [Moles/volume] in Blood"/>
               </coding>
               <text value="Potassium [Moles/volume] in Blood"/>
            </code>
            <subject>
               <reference value="urn:uuid:38a01245-e632-4521-b4da-3964d204fa3c"/>
               <display value="Gabrielius Gaičiūnas"/>
            </subject>
            <effectiveDateTime value="2024-11-01T16:05:46Z"/>
            <performer>
               <display value="The Central European Lab"/>
            </performer>
            <valueQuantity>
               <value value="4.7"/>
               <unit value="mmol/L"/>
               <system value="http://unitsofmeasure.org"/>
               <code value="mmol/L"/>
            </valueQuantity>
            <referenceRange>
               <low>
                  <value value="3.5"/>
                  <system value="http://unitsofmeasure.org"/>
                  <code value="mmol/L"/>
               </low>
            </referenceRange>
            <referenceRange>
               <high>
                  <value value="5.3"/>
                  <system value="http://unitsofmeasure.org"/>
                  <code value="mmol/L"/>
               </high>
            </referenceRange>
         </Observation>
      </resource>
   </entry>
   <entry>
      <fullUrl value="urn:uuid:253f8d25-d925-4ba4-8c05-aac57a9fa22c"/>
      <resource>
         <Observation>
            <id value="253f8d25-d925-4ba4-8c05-aac57a9fa22c"/>
            <meta>
               <profile value="http://hl7.eu/fhir/laboratory/StructureDefinition/Observation-resultslab-eu-lab"/>
            </meta>
            <text>
               <status value="generated"/>
               <div xmlns="http://www.w3.org/1999/xhtml">
                  <table class="hl7__eu__lab__report">
                     <tr>
                        <th>Test</th>
                        <th>01-Nov-2024</th>
                        <th>Reference Range</th>
                        <th>Unit</th>
                     </tr>
                     <tr>
                        <td>Chloride [Moles/volume] in Blood</td>
                        <td>101.5</td>
                        <td>98 - 108</td>
                        <td/>
                        <td>mmol/L</td>
                     </tr>
                  </table>
               </div>
            </text>
            <status value="final"/>
            <category>
               <coding>
                  <system value="http://terminology.hl7.org/CodeSystem/observation-category"/>
                  <code value="laboratory"/>
               </coding>
            </category>
            <code>
               <coding>
                  <system value="http://loinc.org"/>
                  <code value="2069-3"/>
                  <display value="Chloride [Moles/volume] in Blood"/>
               </coding>
               <text value="Chloride [Moles/volume] in Blood"/>
            </code>
            <subject>
               <reference value="urn:uuid:38a01245-e632-4521-b4da-3964d204fa3c"/>
               <display value="Gabrielius Gaičiūnas"/>
            </subject>
            <effectiveDateTime value="2024-11-01T16:05:46Z"/>
            <performer>
               <display value="The Central European Lab"/>
            </performer>
            <valueQuantity>
               <value value="101.5"/>
               <unit value="mmol/L"/>
               <system value="http://unitsofmeasure.org"/>
               <code value="mmol/L"/>
            </valueQuantity>
            <referenceRange>
               <low>
                  <value value="98"/>
                  <system value="http://unitsofmeasure.org"/>
                  <code value="mmol/L"/>
               </low>
            </referenceRange>
            <referenceRange>
               <high>
                  <value value="108"/>
                  <system value="http://unitsofmeasure.org"/>
                  <code value="mmol/L"/>
               </high>
            </referenceRange>
         </Observation>
      </resource>
   </entry>
   <entry>
      <fullUrl value="urn:uuid:3095593a-1c86-4109-870c-f03b6e2148f5"/>
      <resource>
         <Observation>
            <id value="3095593a-1c86-4109-870c-f03b6e2148f5"/>
            <meta>
               <profile value="http://hl7.eu/fhir/laboratory/StructureDefinition/Observation-resultslab-eu-lab"/>
            </meta>
            <text>
               <status value="generated"/>
               <div xmlns="http://www.w3.org/1999/xhtml">
                  <table class="hl7__eu__lab__report">
                     <tr>
                        <th>Test</th>
                        <th>01-Nov-2024</th>
                        <th>Reference Range</th>
                        <th>Unit</th>
                     </tr>
                     <tr>
                        <td>Carbon dioxide, total [Moles/volume] in Blood</td>
                        <td>23.8</td>
                        <td>22 - 29</td>
                        <td/>
                        <td>mmol/L</td>
                     </tr>
                  </table>
               </div>
            </text>
            <status value="final"/>
            <category>
               <coding>
                  <system value="http://terminology.hl7.org/CodeSystem/observation-category"/>
                  <code value="laboratory"/>
               </coding>
            </category>
            <code>
               <coding>
                  <system value="http://loinc.org"/>
                  <code value="20565-8"/>
                  <display value="Carbon dioxide, total [Moles/volume] in Blood"/>
               </coding>
               <text value="Carbon dioxide, total [Moles/volume] in Blood"/>
            </code>
            <subject>
               <reference value="urn:uuid:38a01245-e632-4521-b4da-3964d204fa3c"/>
               <display value="Gabrielius Gaičiūnas"/>
            </subject>
            <effectiveDateTime value="2024-11-01T16:05:46Z"/>
            <performer>
               <display value="The Central European Lab"/>
            </performer>
            <valueQuantity>
               <value value="23.8"/>
               <unit value="mmol/L"/>
               <system value="http://unitsofmeasure.org"/>
               <code value="mmol/L"/>
            </valueQuantity>
            <referenceRange>
               <low>
                  <value value="22"/>
                  <system value="http://unitsofmeasure.org"/>
                  <code value="mmol/L"/>
               </low>
            </referenceRange>
            <referenceRange>
               <high>
                  <value value="29"/>
                  <system value="http://unitsofmeasure.org"/>
                  <code value="mmol/L"/>
               </high>
            </referenceRange>
         </Observation>
      </resource>
   </entry>
   <entry>
      <fullUrl value="urn:uuid:8c8e4af9-ed30-46aa-a7b7-ce5d7795542d"/>
      <resource>
         <DeviceUseStatement>
            <id value="8c8e4af9-ed30-46aa-a7b7-ce5d7795542d"/>
            <meta>
               <profile value="http://hl7.eu/fhir/eps/StructureDefinition/deviceUseStatement-eu-eps"/>
            </meta>
            <text>
               <status value="generated"/>
               <div xmlns="http://www.w3.org/1999/xhtml">
                  <table class="hl7__ips">
                     <tr>
                        <td>Home nebulizer (physical object)</td>
                        <td>
                           <span class="nb">23-Jun-1989</span>
                        </td>
                     </tr>
                  </table>
               </div>
            </text>
            <status value="active"/>
            <subject>
               <reference value="urn:uuid:38a01245-e632-4521-b4da-3964d204fa3c"/>
               <display value="Gabrielius Gaičiūnas"/>
            </subject>
            <timingPeriod>
               <start value="1989-06-23"/>
            </timingPeriod>
            <device>
               <reference value="urn:uuid:e3fbc9ec-5c31-458c-b0d5-69596e440b01"/>
               <display value="Home nebulizer (physical object)"/>
            </device>
         </DeviceUseStatement>
      </resource>
   </entry>
   <entry>
      <fullUrl value="urn:uuid:e3fbc9ec-5c31-458c-b0d5-69596e440b01"/>
      <resource>
         <Device>
            <id value="e3fbc9ec-5c31-458c-b0d5-69596e440b01"/>
            <meta>
               <profile value="http://hl7.eu/fhir/eps/StructureDefinition/device-eu-eps"/>
            </meta>
            <udiCarrier id="(01)46483900795704(11)890602(17)140617(10)36080240344876718(21)6897859932871537"/>
            <status value="active"/>
            <type>
               <coding>
                  <system value="http://snomed.info/sct"/>
                  <code value="170615005"/>
                  <display value="Home nebulizer (physical object)"/>
               </coding>
            </type>
            <patient>
               <reference value="urn:uuid:38a01245-e632-4521-b4da-3964d204fa3c"/>
               <display value="Gabrielius Gaičiūnas"/>
            </patient>
         </Device>
      </resource>
   </entry>
   <entry>
      <fullUrl value="urn:uuid:2136224d-2ac4-4385-bcf3-edfb0b3881fb"/>
      <resource>
         <DeviceUseStatement>
            <id value="2136224d-2ac4-4385-bcf3-edfb0b3881fb"/>
            <meta>
               <profile value="http://hl7.eu/fhir/eps/StructureDefinition/deviceUseStatement-eu-eps"/>
            </meta>
            <text>
               <status value="generated"/>
               <div xmlns="http://www.w3.org/1999/xhtml">
                  <table class="hl7__ips">
                     <tr>
                        <td>Blood glucose meter (physical object)</td>
                        <td>
                           <span class="nb">28-Jan-1972</span>
                        </td>
                     </tr>
                  </table>
               </div>
            </text>
            <status value="active"/>
            <subject>
               <reference value="urn:uuid:38a01245-e632-4521-b4da-3964d204fa3c"/>
               <display value="Gabrielius Gaičiūnas"/>
            </subject>
            <timingPeriod>
               <start value="1972-01-28"/>
            </timingPeriod>
            <device>
               <reference value="urn:uuid:cd269b75-3865-452d-9778-0907d22eb243"/>
               <display value="Blood glucose meter (physical object)"/>
            </device>
         </DeviceUseStatement>
      </resource>
   </entry>
   <entry>
      <fullUrl value="urn:uuid:cd269b75-3865-452d-9778-0907d22eb243"/>
      <resource>
         <Device>
            <id value="cd269b75-3865-452d-9778-0907d22eb243"/>
            <meta>
               <profile value="http://hl7.eu/fhir/eps/StructureDefinition/device-eu-eps"/>
            </meta>
            <udiCarrier id="(01)92124840805951(11)720107(17)970121(10)7686436365610260918(21)470665388"/>
            <status value="active"/>
            <type>
               <coding>
                  <system value="http://snomed.info/sct"/>
                  <code value="337414009"/>
                  <display value="Blood glucose meter (physical object)"/>
               </coding>
            </type>
            <patient>
               <reference value="urn:uuid:38a01245-e632-4521-b4da-3964d204fa3c"/>
               <display value="Gabrielius Gaičiūnas"/>
            </patient>
         </Device>
      </resource>
   </entry>
   <entry>
      <fullUrl value="urn:uuid:6a450e78-3b03-44ea-8f66-a0e8da4c44cd"/>
      <resource>
         <Device>
            <id value="6a450e78-3b03-44ea-8f66-a0e8da4c44cd"/>
            <text>
               <status value="generated"/>
               <div xmlns="http://www.w3.org/1999/xhtml">SYNDERAI Synthetic Generator v5.0</div>
            </text>
            <status value="active&#34;"/>
            <distinctIdentifier value="synderai-generator-50"/>
            <manufacturer value="SYNDERAI Project"/>
            <deviceName>
               <name value="SYNDERAI Synthetic Generator"/>
               <type value="manufacturer-name"/>
            </deviceName>
            <version>
               <value value="5.0"/>
            </version>
         </Device>
      </resource>
   </entry>
   <entry>
      <fullUrl value="urn:uuid:b535327e-0fee-4693-b505-94d8a70b91ca"/>
      <resource>
         <Provenance>
            <id value="b535327e-0fee-4693-b505-94d8a70b91ca"/>
            <text>
               <status value="generated"/>
               <div xmlns="http://www.w3.org/1999/xhtml">Provenance for SYNDERAI Synthetic Example Data Resource</div>
            </text>
            <target>
               <reference value="Patient/38a01245-e632-4521-b4da-3964d204fa3c"/>
            </target>
            <target>
               <reference value="Bundle/6fbab12e-22e6-4037-90d0-f0cdbae11295"/>
            </target>
            <target>
               <reference value="Composition/9da5acbe-528a-44cc-9c54-2c2f75d67d5c"/>
            </target>
            <target>
               <reference value="PractitionerRole/071915e1-0c9d-4d5e-9447-5625c8b4cda7"/>
            </target>
            <target>
               <reference value="Organization/bd8387a5-d6b4-4070-9dc4-6b466bd25c87"/>
            </target>
            <target>
               <reference value="Practitioner/9beaeda5-b86b-4dcc-8a80-e24879698e73"/>
            </target>
            <recorded value="2024-11-01T16:05:46Z"/>
            <policy value="https://synderai.net/synderai-synthetic-data-policy"/>
            <reason>
               <text value="Interoperability Testing and Training (non-clinical use)"/>
            </reason>
            <activity>
               <text value="Synthetic Example Data Generation"/>
            </activity>
            <agent>
               <type>
                  <text value="author"/>
               </type>
               <who>
                  <reference value="Device/6a450e78-3b03-44ea-8f66-a0e8da4c44cd"/>
               </who>
            </agent>
         </Provenance>
      </resource>
   </entry>
</Bundle>