{
  "resourceType": "Bundle",
  "id": "53c5821c-387a-4133-bbe0-a23a0d3b09ea",
  "meta": {
    "profile": [
      "http://hl7.eu/fhir/eps/StructureDefinition/bundle-eu-eps"
    ]
  },
  "identifier": {
    "assigner": {
      "display": "HL7 Europe"
    },
    "system": "urn:oid:2.16.840.1.113883.2.51.999",
    "value": "75f46540-77a7-4b8d-9538-178788001ecb"
  },
  "entry": [
    {
      "fullUrl": "urn:uuid:ab10b12a-88ea-4c81-a890-ddcc8a75f437",
      "resource": {
        "resourceType": "Composition",
        "id": "ab10b12a-88ea-4c81-a890-ddcc8a75f437",
        "meta": {
          "security": [
            {
              "system": "http://terminology.hl7.org/CodeSystem/v3-ActReason",
              "code": "HTEST"
            },
            {
              "system": "http://terminology.hl7.org/CodeSystem/v3-ActReason",
              "code": "TRAIN"
            }
          ],
          "tag": [
            {
              "system": "https://synderai.net/fhir/CodeSystem/tags",
              "code": "synthetic",
              "display": "SYNDERAI Synthetic data"
            }
          ],
          "profile": [
            "http://hl7.eu/fhir/eps/StructureDefinition/composition-eu-eps"
          ]
        },
        "identifier": {
          "assigner": {
            "display": "HL7 Europe"
          },
          "system": "urn:oid:2.16.840.1.113883.2.51.999",
          "value": "eb20d7bb-59b2-498e-baa6-da48504322a5"
        },
        "type": {
          "coding": [
            {
              "system": "http://loinc.org",
              "code": "60591-5",
              "display": "Patient summary Document"
            }
          ],
          "text": "Patient summary Document"
        },
        "author": [
          {
            "reference": "urn:uuid:3330614f-d755-4c80-b05b-249f2010b550"
          }
        ],
        "section": [
          {
            "text": {
              "status": "generated",
              "div": "<div xmlns=\"http://www.w3.org/1999/xhtml\"><table class=\"hl7__ips\"><tr><th>Condition</th><th>Onset Date</th><th>Status</th></tr><tr><td>Hyperlipidemia</td><td><span class=\"nb\">12-Aug-2016</span></td><td>active</td></tr><tr><td>Ischemic heart disease</td><td><span class=\"nb\">09-Jul-2010</span></td><td>active</td></tr><tr><td>Essential hypertension</td><td><span class=\"nb\">16-Jun-2006</span></td><td>active</td></tr><tr><td>Osteoarthritis of knee</td><td><span class=\"nb\">09-Sep-2003</span></td><td>active</td></tr><tr><td>Anemia</td><td><span class=\"nb\">12-Jul-1974</span></td><td>active</td></tr><tr><td>Prediabetes</td><td><span class=\"nb\">09-Jul-1971</span></td><td>active</td></tr></table></div>"
            },
            "entry": [
              {
                "reference": "urn:uuid:ac8e285d-54cd-4a0f-83c5-0fd4562ec34b"
              },
              {
                "reference": "urn:uuid:edfdc209-1d9f-46e0-b189-8782d5e1386e"
              },
              {
                "reference": "urn:uuid:a89c1072-a4f3-4dc3-bb73-84a10ccc6d47"
              },
              {
                "reference": "urn:uuid:fe657ac0-e87c-46ef-a4e0-c208cad4fbaf"
              },
              {
                "reference": "urn:uuid:53a50a8b-eaf8-407d-a251-7c67d481d9df"
              },
              {
                "reference": "urn:uuid:49390d57-e591-49fe-8b0c-59d1405e7eed"
              }
            ],
            "code": {
              "coding": [
                {
                  "system": "http://loinc.org",
                  "code": "11450-4",
                  "display": "Problem list - Reported"
                }
              ]
            },
            "title": "Problem list"
          },
          {
            "text": {
              "status": "generated",
              "div": "<div xmlns=\"http://www.w3.org/1999/xhtml\"><table class=\"hl7__ips\"><tr><th>Medication</th><th>Since</th><th>Form</th><th>Dosage</th><th>Reason</th></tr><tr><td>Simvastatin 10 mg oral tablet</td><td><span class=\"nb\">2024-10-04</span></td><td>-</td><td>1 tablet (10 mg) by mouth once daily</td><td>Hyperlipidemia</td></tr><tr><td>Amlodipine (as amlodipine besylate) 2.5 mg oral tablet</td><td><span class=\"nb\">2024-09-27</span></td><td>-</td><td>1 tablet (2.5 mg) by mouth once daily</td><td>Essential hypertension (disorder)</td></tr><tr><td>Hydrochlorothiazide 25 mg oral tablet</td><td><span class=\"nb\">2024-09-27</span></td><td>-</td><td>1 tablet (25 mg) by mouth once daily</td><td>Essential hypertension (disorder)</td></tr><tr><td>Lisinopril 10 mg oral tablet</td><td><span class=\"nb\">2024-09-27</span></td><td>-</td><td>1 tablet (10 mg) by mouth once daily</td><td>Essential hypertension (disorder)</td></tr><tr><td>Clopidogrel (as clopidogrel bisulfate) 75 mg oral tablet</td><td><span class=\"nb\">2010-07-16</span></td><td>-</td><td>1 tablet (75 mg) once daily</td><td>-</td></tr><tr><td>Simvastatin 20 mg oral tablet</td><td><span class=\"nb\">2010-07-16</span></td><td>-</td><td>1 tablet (20 mg) by mouth once daily</td><td>-</td></tr><tr><td>Nitroglycerin 400 microgram/actuation sublingual spray</td><td><span class=\"nb\">2010-07-16</span></td><td>-</td><td>400 micrograms per spray, 1 spray under the tongue as needed for chest pain, may repeat every 5 minutes as needed, up to 3 sprays in 15 minutes</td><td>-</td></tr><tr><td>Metoprolol tartrate (as metoprolol succinate) 100 mg prolonged-release oral tablet</td><td><span class=\"nb\">2010-07-16</span></td><td>-</td><td>1 tablet (100 mg) once daily</td><td>-</td></tr><tr><td>Naproxen sodium 220 mg oral capsule</td><td><span class=\"nb\">2003-09-09</span></td><td>-</td><td>1 tablet (220 mg) by mouth every 12 hours as needed</td><td>Osteoarthritis of knee</td></tr></table></div>"
            },
            "entry": [
              {
                "reference": "urn:uuid:7480e998-7528-4150-9b06-62587466fae9"
              },
              {
                "reference": "urn:uuid:34f7545e-a953-4bc8-bc8d-035009706e33"
              },
              {
                "reference": "urn:uuid:66afff6a-ee0c-4eed-9bb7-a58e5bcd4c96"
              },
              {
                "reference": "urn:uuid:4c9a0213-33ad-4a6e-90e3-f031f2283ad6"
              },
              {
                "reference": "urn:uuid:669f54e9-ec4b-403e-bc0d-132aa4db273d"
              },
              {
                "reference": "urn:uuid:1c0830c1-80e8-4c1d-a763-eef0a9612b85"
              },
              {
                "reference": "urn:uuid:c2b44426-266e-45ea-bf65-a34c75832887"
              },
              {
                "reference": "urn:uuid:51443a37-dadc-4e91-8b47-8f16afb7d58e"
              },
              {
                "reference": "urn:uuid:826751f2-7aa5-46d5-b5ba-1d7e96dcd944"
              }
            ],
            "code": {
              "coding": [
                {
                  "system": "http://loinc.org",
                  "code": "10160-0",
                  "display": "History of Medication use Narrative"
                }
              ]
            },
            "title": "Medication list"
          },
          {
            "text": {
              "status": "generated",
              "div": "<div xmlns=\"http://www.w3.org/1999/xhtml\"><table class=\"hl7__ips\"><tr><th>Vaccine</th><th>Date</th></tr><tr><td>Influenza virus antigen only vaccine product</td><td><span class=\"nb\">01-Dec-2023</span></td></tr><tr><td>SARS-CoV-2 mRNA vaccine</td><td><span class=\"nb\">30-Apr-2021</span></td></tr><tr><td>Clostridium tetani toxoid antigen adsorbed only vaccine product</td><td><span class=\"nb\">04-Sep-2020</span></td></tr><tr><td>Streptococcus pneumoniae Danish serotype 1</td><td><span class=\"nb\">07-Aug-2015</span></td></tr></table></div>"
            },
            "entry": [
              {
                "reference": "urn:uuid:a8ba8738-2145-41f0-8044-e0687a4099d5"
              },
              {
                "reference": "urn:uuid:e902ef52-ada1-4b97-be52-d6c8fed36257"
              },
              {
                "reference": "urn:uuid:add472ec-2d26-4482-9d3c-65a2fa696c08"
              },
              {
                "reference": "urn:uuid:a1d789c6-0566-49b0-95e5-987616cbf72b"
              }
            ],
            "code": {
              "coding": [
                {
                  "system": "http://loinc.org",
                  "code": "11369-6",
                  "display": "History of Immunization note"
                }
              ]
            },
            "title": "Immunizations list"
          },
          {
            "text": {
              "status": "generated",
              "div": "<div xmlns=\"http://www.w3.org/1999/xhtml\"><table class=\"hl7__ips\"><tr><th>Procedure</th><th>Date</th><th>Reason</th></tr><tr><td>Patient evaluation and management</td><td><span class=\"nb\">19-Nov-2024</span></td><td>-</td></tr><tr><td>Urine specimen collection</td><td><span class=\"nb\">19-Nov-2024</span></td><td>-</td></tr><tr><td>Patient discharge</td><td><span class=\"nb\">19-Nov-2024</span></td><td>-</td></tr><tr><td>Taking patient vital signs</td><td><span class=\"nb\">19-Nov-2024</span></td><td>-</td></tr><tr><td>Antibiotic therapy</td><td><span class=\"nb\">19-Nov-2024</span></td><td>-</td></tr><tr><td>Triage: emergency center</td><td><span class=\"nb\">19-Nov-2024</span></td><td>-</td></tr><tr><td>Urinalysis with reflex to microscopy and culture</td><td><span class=\"nb\">19-Nov-2024</span></td><td>-</td></tr><tr><td>Depression screening</td><td><span class=\"nb\">01-Dec-2023</span></td><td>-</td></tr><tr><td>Assessment of health and social care needs</td><td><span class=\"nb\">01-Dec-2023</span></td><td>-</td></tr><tr><td>Assessment using Morse Fall Scale</td><td><span class=\"nb\">01-Dec-2023</span></td><td>-</td></tr><tr><td>Assessment using AUDIT-C (Alcohol Use Disorders Identification Test - Consumption)</td><td><span class=\"nb\">01-Dec-2023</span></td><td>-</td></tr><tr><td>Assessment of substance use</td><td><span class=\"nb\">01-Dec-2023</span></td><td>-</td></tr><tr><td>Depression screening using Patient Health Questionnaire Two-Item score (procedure)</td><td><span class=\"nb\">01-Dec-2023</span></td><td>-</td></tr></table></div>"
            },
            "entry": [
              {
                "reference": "urn:uuid:13aad801-add2-4266-92dd-a05ed36bfae3"
              },
              {
                "reference": "urn:uuid:d47b7f46-d416-44d8-80e8-26399bf9ecbb"
              },
              {
                "reference": "urn:uuid:94fef692-fe25-4fee-b77c-97fb7338b0db"
              },
              {
                "reference": "urn:uuid:8fb53004-3520-415a-865b-2ce517f60e64"
              },
              {
                "reference": "urn:uuid:890789da-a69b-465d-9628-cd724243827f"
              },
              {
                "reference": "urn:uuid:a10f4b6b-c71e-42b4-b6d9-22930c93c7cb"
              },
              {
                "reference": "urn:uuid:09302a19-667a-4ece-a1d5-9a37a9739944"
              },
              {
                "reference": "urn:uuid:7534e463-548d-4fc1-ba55-a8ce30248721"
              },
              {
                "reference": "urn:uuid:1f03a6b5-23ce-4bf6-8dfc-73a1c711b67c"
              },
              {
                "reference": "urn:uuid:7d6db49f-942b-488c-9f1a-d60580d15ee2"
              },
              {
                "reference": "urn:uuid:8836b6b3-6d07-4a07-b583-c00835aebc70"
              },
              {
                "reference": "urn:uuid:7132c7ee-0a1c-4049-8aad-4e8e726b09e4"
              },
              {
                "reference": "urn:uuid:ea7264fd-94a5-4c8a-90ab-10b343236882"
              }
            ],
            "code": {
              "coding": [
                {
                  "system": "http://loinc.org",
                  "code": "47519-4",
                  "display": "History of Procedures Document"
                }
              ]
            },
            "title": "Procedure History list"
          },
          {
            "text": {
              "status": "generated",
              "div": "<div xmlns=\"http://www.w3.org/1999/xhtml\"><table class=\"hl7__ips\"><tr><th>Allergy/Intolerance</th><th>Onset Date</th><th>Status</th><th>Type</th><th>Reaction</th></tr><tr><td></td><td>?</td><td>active</td><td>?</td><td></td></tr></table></div>"
            },
            "entry": [
              {
                "reference": "urn:uuid:1c0c2e77-28da-45f2-91df-c1b76f35b776"
              }
            ],
            "code": {
              "coding": [
                {
                  "system": "http://loinc.org",
                  "code": "48765-2",
                  "display": "Allergies and adverse reactions Document"
                }
              ]
            },
            "title": "Allergies and Intolerances"
          },
          {
            "text": {
              "status": "generated",
              "div": "<div xmlns=\"http://www.w3.org/1999/xhtml\"><table class=\"hl7__ips\"><tr><th>Active Planned Care / Goals</th><th>Start Date</th><th>Reason</th></tr><tr><td>Hyperlipidemia clinical management plan</td><td><span class=\"nb\">02-Sep-2016</span></td><td>Hyperlipidemia</td></tr><tr><td><ul><li>Achieve LDL cholesterol below 70 mg/dL to reduce cardiovascular risk.</li><li>Maintain total cholesterol below 200 mg/dL.</li><li>Maintain HDL cholesterol above 40 mg/dL.</li><li>Maintain triglycerides below 150 mg/dL.</li></ul></td><td></td><td></td></tr><tr><td>Lifestyle education regarding hypertension</td><td><span class=\"nb\">16-Jun-2006</span></td><td>Essential hypertension (disorder)</td></tr><tr><td><ul><li>Maintain blood pressure below 130/80 mm[Hg] through lifestyle modifications.</li><li>Limit daily sodium intake to less than 2.3 g to support blood pressure control.</li><li>Engage in at least 150 minutes of moderate-intensity aerobic physical activity per week.</li><li>Achieve a 5% reduction in body weight from baseline.</li><li>Limit alcohol consumption to no more than 2 standard drinks per day.</li></ul></td><td></td><td></td></tr><tr><td>Musculoskeletal care</td><td><span class=\"nb\">09-Sep-2003</span></td><td>Osteoarthritis of knee</td></tr><tr><td><ul><li>Reduce knee pain severity to a tolerable level to improve mobility and quality of life.</li><li>Increase ability to walk and perform daily activities without significant limitation from knee osteoarthritis.</li><li>Patient will perform prescribed knee strengthening and flexibility exercises at least 5 days per week.</li></ul></td><td></td><td></td></tr><tr><td>Diabetes self management plan</td><td><span class=\"nb\">09-Jul-1971</span></td><td>Prediabetes</td></tr><tr><td><ul><li>Achieve and maintain Hemoglobin A1c below prediabetes threshold through lifestyle modification.</li><li>Achieve and maintain a healthy body weight to reduce risk of progression to diabetes.</li><li>Maintain blood pressure below 130/80 mmHg as part of diabetes risk reduction.</li><li>Maintain LDL cholesterol below 100 mg/dL to reduce cardiovascular risk.</li></ul></td><td></td><td></td></tr><tr><th>Immunization Recommendation</th><th>Due Date</th><th>Reason</th></tr><tr><td>Vaccine product containing only Influenza virus antigen (medicinal product)</td><td><span class=\"nb\">01-Oct-2025</span></td><td>Annual seasonal influenza vaccination</td></tr></table></div>"
            },
            "entry": [
              {
                "reference": "urn:uuid:e1617cf5-5c58-4894-8953-aa999b44846a"
              },
              {
                "reference": "urn:uuid:e8f5ae01-d9c8-4f33-8cc4-f4bed873ac3d"
              },
              {
                "reference": "urn:uuid:20249a00-5c67-48bb-9ebd-25b6b48031cb"
              },
              {
                "reference": "urn:uuid:472ab2ac-31be-404c-a59a-cfc76e115b93"
              },
              {
                "reference": "urn:uuid:76fe4cdd-2735-4943-9850-e236024f5b66"
              }
            ],
            "code": {
              "coding": [
                {
                  "system": "http://loinc.org",
                  "code": "18776-5",
                  "display": "Plan of care note"
                }
              ]
            },
            "title": "Care Plan"
          },
          {
            "text": {
              "status": "generated",
              "div": "<div xmlns=\"http://www.w3.org/1999/xhtml\"><table class=\"hl7__ips\"><tr><th>Vital Signs</th><th>2024-11-19</th><th>2024-09-27</th></tr><tr><td>Diastolic Blood Pressure</td><td>78.6 mm[Hg]</td><td>53 mm[Hg]</td></tr><tr><td>Systolic Blood Pressure</td><td>126.9 mm[Hg]</td><td>103 mm[Hg]</td></tr><tr><td>Heart rate</td><td>95 /min</td><td>72 /min</td></tr><tr><td>Respiratory rate</td><td>14 /min</td><td>14 /min</td></tr><tr><td>Oxygen saturation in Arterial blood</td><td>99.5 %</td><td>-</td></tr><tr><td>Body temperature</td><td>36.8 Cel</td><td>-</td></tr><tr><td>Body Height</td><td>-</td><td>185.6 cm</td></tr><tr><td>Pain severity - 0-10 verbal numeric rating [Score] - Reported</td><td>-</td><td>3 {score}</td></tr><tr><td>Body Weight</td><td>-</td><td>94.3 kg</td></tr><tr><td>Body mass index (BMI) [Ratio]</td><td>-</td><td>27.4 kg/m2</td></tr></table></div>"
            },
            "entry": [
              {
                "reference": "urn:uuid:3c28adcd-ca7a-4efa-8318-d86d62b65a5a"
              },
              {
                "reference": "urn:uuid:9ebfc781-4fa0-49d3-823c-350b25d30251"
              },
              {
                "reference": "urn:uuid:6cdbec4e-94b8-4bb8-9e08-e275c6cf1a8c"
              },
              {
                "reference": "urn:uuid:350ffb5c-6096-4d9a-8efe-d6c5ebd6e4be"
              },
              {
                "reference": "urn:uuid:57276e8c-868a-45eb-9eb6-1f0ad6c1522d"
              },
              {
                "reference": "urn:uuid:602691a1-857a-43cb-bcc3-96dcf62ee6ee"
              },
              {
                "reference": "urn:uuid:e321f85e-23b0-4960-8dee-b4575703ebdd"
              },
              {
                "reference": "urn:uuid:d97ba2ee-4008-4c0d-b394-a7059777a756"
              },
              {
                "reference": "urn:uuid:43afa58d-41d0-4f38-b218-696aefa476e6"
              },
              {
                "reference": "urn:uuid:f56063a3-b3c0-4d92-8ec1-5c9741d4233a"
              },
              {
                "reference": "urn:uuid:028be2d7-90eb-497e-9e7c-757bc0f1e014"
              },
              {
                "reference": "urn:uuid:fc62312d-8b82-4e44-b0b7-a45556b7435d"
              },
              {
                "reference": "urn:uuid:ebdf8e83-c351-41d3-ad5b-9a7ac4144fc6"
              },
              {
                "reference": "urn:uuid:20cb859c-9c0a-4011-bdcf-54c49a270aa4"
              }
            ],
            "code": {
              "coding": [
                {
                  "system": "http://loinc.org",
                  "code": "8716-3",
                  "display": "Vital signs note"
                }
              ]
            },
            "title": "Vital Signs"
          },
          {
            "text": {
              "status": "generated",
              "div": "<div xmlns=\"http://www.w3.org/1999/xhtml\"><table class=\"hl7__ips\"><table class=\"hl7__ips\"><thead><tr><th>Recent Lab Observations</th><th>19-NOV-2024</th><th>Reference&#xA0;Range</th><th>Unit</th></tr></thead><tbody><tr><td>Glucose [Mass/volume] in Urine by Test strip</td><td><strong>2.9 H</strong></td><td>0 - 0.8</td><td>mg/dL</td></tr><tr><td>Ketones [Presence] in Urine by Test strip</td><td>Urine ketone test negative</td><td></td><td></td></tr><tr><td>Specific gravity of Urine by Test strip</td><td><strong>1.0 L</strong></td><td>1.005 - 1.03</td><td>{nominal}</td></tr><tr><td>pH of Urine by Test strip</td><td>6.6</td><td>4.5 - 7.5</td><td>pH</td></tr><tr><td>Protein [Mass/volume] in Urine by Test strip</td><td><strong>10.5 L</strong></td><td>14 - 20</td><td>mg/dL</td></tr><tr><td>Nitrite [Presence] in Urine by Test strip</td><td>Urine nitrite positive</td><td></td><td></td></tr><tr><td>Hemoglobin [Presence] in Urine by Test strip</td><td>Urine blood test = +</td><td></td><td></td></tr><tr><td>Leukocyte esterase [Presence] in Urine by Test strip</td><td>Urine leukocyte test</td><td></td><td></td></tr><tr><td>Leukocytes [#/area] in Urine sediment by Microscopy high power field</td><td><strong>44.4 H</strong></td><td>0 - 5</td><td>/[HPF]</td></tr><tr><td>Erythrocytes [#/area] in Urine sediment by Microscopy high power field</td><td>2.0</td><td>0 - 5</td><td>/[HPF]</td></tr><tr><td>Epithelial cells [#/area] in Urine sediment by Microscopy high power field</td><td>0.5</td><td>0 - 5</td><td>/[HPF]</td></tr><tr><td>Casts [Presence] in Urine sediment by Light microscopy</td><td>Urine microscopy: no casts</td><td></td><td></td></tr><tr><td>Mucus [Presence] in Urine sediment by Light microscopy</td><td>Mucus in urine</td><td></td><td></td></tr><tr><td>Bacteria [#/area] in Urine sediment by Microscopy high power field</td><td>Finding of presence of bacteria</td><td></td><td></td></tr><tr><td>Bacteria identified in Urine by Culture</td><td></td><td></td><td></td></tr></tbody></table></table></div>"
            },
            "entry": [
              {
                "reference": "urn:uuid:0a5404ef-e33e-4cb8-a846-151b78f221e2"
              },
              {
                "reference": "urn:uuid:650c5623-e799-46c3-98c1-35ad27f209f9"
              },
              {
                "reference": "urn:uuid:940070ab-ae24-43df-b663-5eaa09fe1519"
              },
              {
                "reference": "urn:uuid:9dfb20f8-b66a-49dc-9148-b3772cd082c1"
              },
              {
                "reference": "urn:uuid:bd9109d7-6656-4da3-a7e8-4bc0b8039d86"
              },
              {
                "reference": "urn:uuid:8339f02d-4970-4fe0-864d-cde4a551c0c9"
              },
              {
                "reference": "urn:uuid:3164ae53-4ac1-473a-bc75-62812bd1a8d0"
              },
              {
                "reference": "urn:uuid:20ab5ff9-d37f-45b9-9bfa-6c572e7deb43"
              },
              {
                "reference": "urn:uuid:344ae55f-bea0-4054-82f7-7903284ca31c"
              },
              {
                "reference": "urn:uuid:79d1311a-f0c2-4b8b-bcf6-92b2382a6fc9"
              },
              {
                "reference": "urn:uuid:34bf9223-5e1e-4cea-b94e-eb6bd6d0b868"
              },
              {
                "reference": "urn:uuid:71bb226c-e0fd-4f46-91a9-3f923869e8d4"
              },
              {
                "reference": "urn:uuid:331116c2-68ea-43c8-af9b-1c566465bdff"
              },
              {
                "reference": "urn:uuid:054151ca-6389-4b99-99ca-41b83c5de034"
              },
              {
                "reference": "urn:uuid:8d11d272-3caa-4089-8dc3-d90001301be5"
              }
            ],
            "code": {
              "coding": [
                {
                  "system": "http://loinc.org",
                  "code": "30954-2",
                  "display": "Relevant diagnostic tests/laboratory data note"
                }
              ]
            },
            "title": "Relevant diagnostic tests/laboratory data"
          },
          {
            "text": {
              "status": "generated",
              "div": "<div xmlns=\"http://www.w3.org/1999/xhtml\"><table class=\"hl7__ips\"><tr><th>Device</th><th>Date (since)</th></tr><tr><td>Manual wheelchair (physical object)</td><td><span class=\"nb\">09-Sep-2003</span></td></tr><tr><td>Wheelchair accessory (physical object)</td><td><span class=\"nb\">09-Sep-2003</span></td></tr><tr><td>Blood glucose meter (physical object)</td><td><span class=\"nb\">09-Jul-1971</span></td></tr></table></div>"
            },
            "entry": [
              {
                "reference": "urn:uuid:7d324f1b-8600-4eea-84ca-3747d22c709c"
              },
              {
                "reference": "urn:uuid:c6a81dcd-930c-43f0-aab7-0bcee72edab1"
              },
              {
                "reference": "urn:uuid:140c1490-c279-4f0a-8e25-f0cde69bd4d2"
              }
            ],
            "code": {
              "coding": [
                {
                  "system": "http://loinc.org",
                  "code": "46264-8",
                  "display": "History of medical device use"
                }
              ]
            },
            "title": "Device Use"
          }
        ],
        "title": "European Patient Summary",
        "status": "final",
        "subject": {
          "reference": "urn:uuid:2b9dc153-018a-4001-926f-09408efa362d",
          "display": "Leonhard Köhler"
        },
        "custodian": {
          "reference": "urn:uuid:23ab459a-81c1-4695-844b-fee01e4867f5"
        },
        "date": "2024-11-19",
        "confidentiality": "N"
      }
    },
    {
      "fullUrl": "urn:uuid:2b9dc153-018a-4001-926f-09408efa362d",
      "resource": {
        "resourceType": "Patient",
        "id": "2b9dc153-018a-4001-926f-09408efa362d",
        "meta": {
          "security": [
            {
              "system": "http://terminology.hl7.org/CodeSystem/v3-ActReason",
              "code": "HTEST"
            },
            {
              "system": "http://terminology.hl7.org/CodeSystem/v3-ActReason",
              "code": "TRAIN"
            }
          ],
          "tag": [
            {
              "system": "https://synderai.net/fhir/CodeSystem/tags",
              "code": "synthetic",
              "display": "SYNDERAI Synthetic data"
            }
          ],
          "profile": [
            "http://hl7.eu/fhir/eps/StructureDefinition/patient-eu-eps"
          ]
        },
        "identifier": [
          {
            "type": {
              "coding": [
                {
                  "code": "PT",
                  "system": "http://terminology.hl7.org/CodeSystem/v2-0203"
                }
              ]
            },
            "system": "http://ec.europa.eu/identifier/eci",
            "value": "5321-442678-4"
          },
          {
            "type": {
              "coding": [
                {
                  "code": "MR",
                  "system": "http://terminology.hl7.org/CodeSystem/v2-0203"
                }
              ]
            },
            "system": "http://local.setting.eu/identifier",
            "value": "ffa9f0d8-c016-d46c-e666-000f53715b47"
          }
        ],
        "name": [
          {
            "family": "Köhler"
          },
          {
            "given": [
              "Leonhard"
            ]
          },
          {
            "text": "Leonhard Köhler"
          }
        ],
        "address": [
          {
            "line": [
              "Henckweg 97/34"
            ],
            "use": "home",
            "type": "physical",
            "postalCode": "87629",
            "city": "Füssen",
            "country": "Germany"
          }
        ],
        "telecom": [
          {
            "system": "phone",
            "value": "00028839855"
          }
        ],
        "extension": [
          {
            "url": "http://hl7.org/fhir/StructureDefinition/patient-nationality",
            "valueCodeableConcept": {
              "coding": [
                {
                  "code": "DE",
                  "system": "http://hl7.org/fhir/ValueSet/country"
                }
              ]
            }
          }
        ],
        "text": {
          "status": "generated",
          "div": "<div xmlns=\"http://www.w3.org/1999/xhtml\"><table class=\"hl7__ips\"><tr><td>Leonhard Köhler</td><td>male</td><td>19-Dec-1949</td></tr></table></div>"
        },
        "gender": "male",
        "birthDate": "1949-12-19"
      }
    },
    {
      "fullUrl": "urn:uuid:3330614f-d755-4c80-b05b-249f2010b550",
      "resource": {
        "resourceType": "PractitionerRole",
        "id": "3330614f-d755-4c80-b05b-249f2010b550",
        "meta": {
          "profile": [
            "http://hl7.eu/fhir/base/StructureDefinition/practitionerRole-eu"
          ]
        },
        "text": {
          "status": "generated",
          "div": "<div xmlns=\"http://www.w3.org/1999/xhtml\"><table class=\"hl7__ips\">Provider Role Id 3330614f-d755-4c80-b05b-249f2010b550</table></div>"
        },
        "practitioner": {
          "reference": "urn:uuid:59201f32-3685-4641-a0fa-77f3cff51135"
        },
        "organization": {
          "reference": "urn:uuid:23ab459a-81c1-4695-844b-fee01e4867f5"
        }
      }
    },
    {
      "fullUrl": "urn:uuid:59201f32-3685-4641-a0fa-77f3cff51135",
      "resource": {
        "resourceType": "Practitioner",
        "id": "59201f32-3685-4641-a0fa-77f3cff51135",
        "meta": {
          "profile": [
            "http://hl7.eu/fhir/base/StructureDefinition/practitioner-eu"
          ]
        },
        "name": [
          {
            "prefix": [
              "Dr."
            ],
            "given": [
              "Hel"
            ],
            "family": "Ping"
          }
        ],
        "text": {
          "status": "generated",
          "div": "<div xmlns=\"http://www.w3.org/1999/xhtml\"><table class=\"hl7__ips\">Dr. Hel Ping</table></div>"
        }
      }
    },
    {
      "fullUrl": "urn:uuid:23ab459a-81c1-4695-844b-fee01e4867f5",
      "resource": {
        "resourceType": "Organization",
        "id": "23ab459a-81c1-4695-844b-fee01e4867f5",
        "meta": {
          "profile": [
            "http://hl7.eu/fhir/base/StructureDefinition/organization-eu"
          ]
        },
        "identifier": [
          {
            "assigner": {
              "display": "HL7 Europe"
            },
            "system": "urn:oid:2.16.840.1.113883.2.51.999",
            "value": "425107f4-11f5-47e2-a7df-87c39e4bcfc3"
          }
        ],
        "address": [
          {
            "line": [
              "Feistlestraße 2"
            ],
            "city": "Füssen",
            "postalCode": "87629",
            "country": "Germany"
          }
        ],
        "text": {
          "status": "generated",
          "div": "<div xmlns=\"http://www.w3.org/1999/xhtml\"><table class=\"hl7__ips\">hier ist kein Ärztehaus</table></div>"
        },
        "name": "hier ist kein Ärztehaus"
      }
    },
    {
      "fullUrl": "urn:uuid:ac8e285d-54cd-4a0f-83c5-0fd4562ec34b",
      "resource": {
        "resourceType": "Condition",
        "id": "ac8e285d-54cd-4a0f-83c5-0fd4562ec34b",
        "meta": {
          "profile": [
            "http://hl7.org/fhir/uv/ips/StructureDefinition/Condition-uv-ips"
          ]
        },
        "category": [
          {
            "coding": [
              {
                "code": "problem-list-item",
                "system": "http://terminology.hl7.org/CodeSystem/condition-category",
                "display": "Problem List Item"
              }
            ]
          }
        ],
        "code": {
          "coding": [
            {
              "code": "55822004",
              "system": "http://snomed.info/sct",
              "display": "Hyperlipidemia (disorder)"
            }
          ],
          "text": "Hyperlipidemia"
        },
        "text": {
          "status": "generated",
          "div": "<div xmlns=\"http://www.w3.org/1999/xhtml\"><table class=\"hl7__ips\"><tr><td>Hyperlipidemia</td><td><span class=\"nb\">12-Aug-2016</span></td><td>active</td></tr></table></div>"
        },
        "onsetDateTime": "2016-08-12",
        "subject": {
          "reference": "urn:uuid:",
          "display": "Leonhard Köhler"
        },
        "asserter": {
          "reference": "urn:uuid:",
          "display": "hier ist kein Ärztehaus"
        }
      }
    },
    {
      "fullUrl": "urn:uuid:edfdc209-1d9f-46e0-b189-8782d5e1386e",
      "resource": {
        "resourceType": "Condition",
        "id": "edfdc209-1d9f-46e0-b189-8782d5e1386e",
        "meta": {
          "profile": [
            "http://hl7.org/fhir/uv/ips/StructureDefinition/Condition-uv-ips"
          ]
        },
        "category": [
          {
            "coding": [
              {
                "code": "problem-list-item",
                "system": "http://terminology.hl7.org/CodeSystem/condition-category",
                "display": "Problem List Item"
              }
            ]
          }
        ],
        "code": {
          "coding": [
            {
              "code": "414545008",
              "system": "http://snomed.info/sct",
              "display": "Ischemic heart disease (disorder)"
            }
          ],
          "text": "Ischemic heart disease"
        },
        "text": {
          "status": "generated",
          "div": "<div xmlns=\"http://www.w3.org/1999/xhtml\"><table class=\"hl7__ips\"><tr><td>Ischemic heart disease</td><td><span class=\"nb\">09-Jul-2010</span></td><td>active</td></tr></table></div>"
        },
        "onsetDateTime": "2010-07-09",
        "subject": {
          "reference": "urn:uuid:",
          "display": "Leonhard Köhler"
        },
        "asserter": {
          "reference": "urn:uuid:",
          "display": "hier ist kein Ärztehaus"
        }
      }
    },
    {
      "fullUrl": "urn:uuid:a89c1072-a4f3-4dc3-bb73-84a10ccc6d47",
      "resource": {
        "resourceType": "Condition",
        "id": "a89c1072-a4f3-4dc3-bb73-84a10ccc6d47",
        "meta": {
          "profile": [
            "http://hl7.org/fhir/uv/ips/StructureDefinition/Condition-uv-ips"
          ]
        },
        "category": [
          {
            "coding": [
              {
                "code": "problem-list-item",
                "system": "http://terminology.hl7.org/CodeSystem/condition-category",
                "display": "Problem List Item"
              }
            ]
          }
        ],
        "code": {
          "coding": [
            {
              "code": "59621000",
              "system": "http://snomed.info/sct",
              "display": "Essential hypertension (disorder)"
            }
          ],
          "text": "Essential hypertension"
        },
        "text": {
          "status": "generated",
          "div": "<div xmlns=\"http://www.w3.org/1999/xhtml\"><table class=\"hl7__ips\"><tr><td>Essential hypertension</td><td><span class=\"nb\">16-Jun-2006</span></td><td>active</td></tr></table></div>"
        },
        "onsetDateTime": "2006-06-16",
        "subject": {
          "reference": "urn:uuid:",
          "display": "Leonhard Köhler"
        },
        "asserter": {
          "reference": "urn:uuid:",
          "display": "hier ist kein Ärztehaus"
        }
      }
    },
    {
      "fullUrl": "urn:uuid:fe657ac0-e87c-46ef-a4e0-c208cad4fbaf",
      "resource": {
        "resourceType": "Condition",
        "id": "fe657ac0-e87c-46ef-a4e0-c208cad4fbaf",
        "meta": {
          "profile": [
            "http://hl7.org/fhir/uv/ips/StructureDefinition/Condition-uv-ips"
          ]
        },
        "category": [
          {
            "coding": [
              {
                "code": "problem-list-item",
                "system": "http://terminology.hl7.org/CodeSystem/condition-category",
                "display": "Problem List Item"
              }
            ]
          }
        ],
        "code": {
          "coding": [
            {
              "code": "239873007",
              "system": "http://snomed.info/sct",
              "display": "Osteoarthritis of knee (disorder)"
            }
          ],
          "text": "Osteoarthritis of knee"
        },
        "text": {
          "status": "generated",
          "div": "<div xmlns=\"http://www.w3.org/1999/xhtml\"><table class=\"hl7__ips\"><tr><td>Osteoarthritis of knee</td><td><span class=\"nb\">09-Sep-2003</span></td><td>active</td></tr></table></div>"
        },
        "onsetDateTime": "2003-09-09",
        "subject": {
          "reference": "urn:uuid:",
          "display": "Leonhard Köhler"
        },
        "asserter": {
          "reference": "urn:uuid:",
          "display": "hier ist kein Ärztehaus"
        }
      }
    },
    {
      "fullUrl": "urn:uuid:53a50a8b-eaf8-407d-a251-7c67d481d9df",
      "resource": {
        "resourceType": "Condition",
        "id": "53a50a8b-eaf8-407d-a251-7c67d481d9df",
        "meta": {
          "profile": [
            "http://hl7.org/fhir/uv/ips/StructureDefinition/Condition-uv-ips"
          ]
        },
        "category": [
          {
            "coding": [
              {
                "code": "problem-list-item",
                "system": "http://terminology.hl7.org/CodeSystem/condition-category",
                "display": "Problem List Item"
              }
            ]
          }
        ],
        "code": {
          "coding": [
            {
              "code": "271737000",
              "system": "http://snomed.info/sct",
              "display": "Anemia (disorder)"
            }
          ],
          "text": "Anemia"
        },
        "text": {
          "status": "generated",
          "div": "<div xmlns=\"http://www.w3.org/1999/xhtml\"><table class=\"hl7__ips\"><tr><td>Anemia</td><td><span class=\"nb\">12-Jul-1974</span></td><td>active</td></tr></table></div>"
        },
        "onsetDateTime": "1974-07-12",
        "subject": {
          "reference": "urn:uuid:",
          "display": "Leonhard Köhler"
        },
        "asserter": {
          "reference": "urn:uuid:",
          "display": "hier ist kein Ärztehaus"
        }
      }
    },
    {
      "fullUrl": "urn:uuid:49390d57-e591-49fe-8b0c-59d1405e7eed",
      "resource": {
        "resourceType": "Condition",
        "id": "49390d57-e591-49fe-8b0c-59d1405e7eed",
        "meta": {
          "profile": [
            "http://hl7.org/fhir/uv/ips/StructureDefinition/Condition-uv-ips"
          ]
        },
        "category": [
          {
            "coding": [
              {
                "code": "problem-list-item",
                "system": "http://terminology.hl7.org/CodeSystem/condition-category",
                "display": "Problem List Item"
              }
            ]
          }
        ],
        "code": {
          "coding": [
            {
              "code": "15777000",
              "system": "http://snomed.info/sct",
              "display": "Prediabetes (disorder)"
            }
          ],
          "text": "Prediabetes"
        },
        "text": {
          "status": "generated",
          "div": "<div xmlns=\"http://www.w3.org/1999/xhtml\"><table class=\"hl7__ips\"><tr><td>Prediabetes</td><td><span class=\"nb\">09-Jul-1971</span></td><td>active</td></tr></table></div>"
        },
        "onsetDateTime": "1971-07-09",
        "subject": {
          "reference": "urn:uuid:",
          "display": "Leonhard Köhler"
        },
        "asserter": {
          "reference": "urn:uuid:",
          "display": "hier ist kein Ärztehaus"
        }
      }
    },
    {
      "fullUrl": "urn:uuid:37f4a4b3-f8cb-4d1a-9833-a62096956795",
      "resource": {
        "resourceType": "Condition",
        "id": "37f4a4b3-f8cb-4d1a-9833-a62096956795",
        "meta": {
          "profile": [
            "http://hl7.org/fhir/uv/ips/StructureDefinition/Condition-uv-ips"
          ]
        },
        "category": [
          {
            "coding": [
              {
                "code": "problem-list-item",
                "system": "http://terminology.hl7.org/CodeSystem/condition-category",
                "display": "Problem List Item"
              }
            ]
          }
        ],
        "code": {
          "coding": [
            {
              "code": "307426000",
              "system": "http://snomed.info/sct",
              "display": "Acute infective cystitis (disorder)"
            }
          ],
          "text": "Acute infective cystitis"
        },
        "text": {
          "status": "generated",
          "div": "<div xmlns=\"http://www.w3.org/1999/xhtml\"><table class=\"hl7__ips\"><tr><td><span class=\"grayedout\">Acute infective cystitis</span></td><td><span class=\"nb\">19-Nov-2024 - 20-Nov-2024</span></td><td><span class=\"grayedout\">inactive</span></td></tr></table></div>"
        },
        "onsetDateTime": "2024-11-19",
        "abatementDateTime": "2024-11-20",
        "subject": {
          "reference": "urn:uuid:",
          "display": "Leonhard Köhler"
        },
        "asserter": {
          "reference": "urn:uuid:",
          "display": "hier ist kein Ärztehaus"
        }
      }
    },
    {
      "fullUrl": "urn:uuid:060886ba-f3b6-44c0-9418-1b17ea25aac4",
      "resource": {
        "resourceType": "Condition",
        "id": "060886ba-f3b6-44c0-9418-1b17ea25aac4",
        "meta": {
          "profile": [
            "http://hl7.org/fhir/uv/ips/StructureDefinition/Condition-uv-ips"
          ]
        },
        "category": [
          {
            "coding": [
              {
                "code": "problem-list-item",
                "system": "http://terminology.hl7.org/CodeSystem/condition-category",
                "display": "Problem List Item"
              }
            ]
          }
        ],
        "code": {
          "coding": [
            {
              "code": "43878008",
              "system": "http://snomed.info/sct",
              "display": "Streptococcal sore throat (disorder)"
            }
          ],
          "text": "Streptococcal sore throat"
        },
        "text": {
          "status": "generated",
          "div": "<div xmlns=\"http://www.w3.org/1999/xhtml\"><table class=\"hl7__ips\"><tr><td><span class=\"grayedout\">Streptococcal sore throat</span></td><td><span class=\"nb\">08-Dec-2023 - 21-Dec-2023</span></td><td><span class=\"grayedout\">inactive</span></td></tr></table></div>"
        },
        "onsetDateTime": "2023-12-08",
        "abatementDateTime": "2023-12-21",
        "subject": {
          "reference": "urn:uuid:",
          "display": "Leonhard Köhler"
        },
        "asserter": {
          "reference": "urn:uuid:",
          "display": "hier ist kein Ärztehaus"
        }
      }
    },
    {
      "fullUrl": "urn:uuid:62e799d4-dc77-4322-aeb1-203ba4677267",
      "resource": {
        "resourceType": "Condition",
        "id": "62e799d4-dc77-4322-aeb1-203ba4677267",
        "meta": {
          "profile": [
            "http://hl7.org/fhir/uv/ips/StructureDefinition/Condition-uv-ips"
          ]
        },
        "category": [
          {
            "coding": [
              {
                "code": "problem-list-item",
                "system": "http://terminology.hl7.org/CodeSystem/condition-category",
                "display": "Problem List Item"
              }
            ]
          }
        ],
        "code": {
          "coding": [
            {
              "code": "444814009",
              "system": "http://snomed.info/sct",
              "display": "Viral sinusitis (disorder)"
            }
          ],
          "text": "Viral sinusitis"
        },
        "text": {
          "status": "generated",
          "div": "<div xmlns=\"http://www.w3.org/1999/xhtml\"><table class=\"hl7__ips\"><tr><td><span class=\"grayedout\">Viral sinusitis</span></td><td><span class=\"nb\">25-Feb-2021 - 16-Mar-2021</span></td><td><span class=\"grayedout\">inactive</span></td></tr></table></div>"
        },
        "onsetDateTime": "2021-02-25",
        "abatementDateTime": "2021-03-16",
        "subject": {
          "reference": "urn:uuid:",
          "display": "Leonhard Köhler"
        },
        "asserter": {
          "reference": "urn:uuid:",
          "display": "hier ist kein Ärztehaus"
        }
      }
    },
    {
      "fullUrl": "urn:uuid:9076bfa6-695f-41a4-9809-f0ee0fecf4de",
      "resource": {
        "resourceType": "Condition",
        "id": "9076bfa6-695f-41a4-9809-f0ee0fecf4de",
        "meta": {
          "profile": [
            "http://hl7.org/fhir/uv/ips/StructureDefinition/Condition-uv-ips"
          ]
        },
        "category": [
          {
            "coding": [
              {
                "code": "problem-list-item",
                "system": "http://terminology.hl7.org/CodeSystem/condition-category",
                "display": "Problem List Item"
              }
            ]
          }
        ],
        "code": {
          "coding": [
            {
              "code": "195662009",
              "system": "http://snomed.info/sct",
              "display": "Acute viral pharyngitis (disorder)"
            }
          ],
          "text": "Acute viral pharyngitis"
        },
        "text": {
          "status": "generated",
          "div": "<div xmlns=\"http://www.w3.org/1999/xhtml\"><table class=\"hl7__ips\"><tr><td><span class=\"grayedout\">Acute viral pharyngitis</span></td><td><span class=\"nb\">05-Aug-2019 - 15-Aug-2019</span></td><td><span class=\"grayedout\">inactive</span></td></tr></table></div>"
        },
        "onsetDateTime": "2019-08-05",
        "abatementDateTime": "2019-08-15",
        "subject": {
          "reference": "urn:uuid:",
          "display": "Leonhard Köhler"
        },
        "asserter": {
          "reference": "urn:uuid:",
          "display": "hier ist kein Ärztehaus"
        }
      }
    },
    {
      "fullUrl": "urn:uuid:c57bbc02-e671-4d5e-ba0a-7f45b1c7ea51",
      "resource": {
        "resourceType": "Condition",
        "id": "c57bbc02-e671-4d5e-ba0a-7f45b1c7ea51",
        "meta": {
          "profile": [
            "http://hl7.org/fhir/uv/ips/StructureDefinition/Condition-uv-ips"
          ]
        },
        "category": [
          {
            "coding": [
              {
                "code": "problem-list-item",
                "system": "http://terminology.hl7.org/CodeSystem/condition-category",
                "display": "Problem List Item"
              }
            ]
          }
        ],
        "code": {
          "coding": [
            {
              "code": "10509002",
              "system": "http://snomed.info/sct",
              "display": "Acute bronchitis (disorder)"
            }
          ],
          "text": "Acute bronchitis"
        },
        "text": {
          "status": "generated",
          "div": "<div xmlns=\"http://www.w3.org/1999/xhtml\"><table class=\"hl7__ips\"><tr><td><span class=\"grayedout\">Acute bronchitis</span></td><td><span class=\"nb\">31-Oct-2016 - 14-Nov-2016</span></td><td><span class=\"grayedout\">inactive</span></td></tr></table></div>"
        },
        "onsetDateTime": "2016-10-31",
        "abatementDateTime": "2016-11-14",
        "subject": {
          "reference": "urn:uuid:",
          "display": "Leonhard Köhler"
        },
        "asserter": {
          "reference": "urn:uuid:",
          "display": "hier ist kein Ärztehaus"
        }
      }
    },
    {
      "fullUrl": "urn:uuid:a468f47e-e82d-4302-ad53-652353479b53",
      "resource": {
        "resourceType": "Medication",
        "id": "a468f47e-e82d-4302-ad53-652353479b53",
        "meta": {
          "profile": [
            "http://hl7.eu/fhir/eps/StructureDefinition/Medication-eu-eps"
          ]
        },
        "code": {
          "coding": [
            {
              "code": "319996000",
              "system": "http://snomed.info/sct",
              "display": "Simvastatin 10 mg oral tablet"
            }
          ],
          "text": "Simvastatin 10 mg oral tablet"
        },
        "text": {
          "status": "generated",
          "div": "<div xmlns=\"http://www.w3.org/1999/xhtml\">Simvastatin 10 mg oral tablet</div>"
        }
      }
    },
    {
      "fullUrl": "urn:uuid:7480e998-7528-4150-9b06-62587466fae9",
      "resource": {
        "resourceType": "MedicationStatement",
        "id": "7480e998-7528-4150-9b06-62587466fae9",
        "meta": {
          "profile": [
            "http://hl7.eu/fhir/eps/StructureDefinition/MedicationStatement-eu-eps"
          ]
        },
        "effectivePeriod": {
          "start": "2024-10-04"
        },
        "dosage": [
          {
            "doseAndRate": [
              {
                "doseQuantity": {
                  "value": 1,
                  "unit": "{tbl}",
                  "code": "{tbl}"
                }
              }
            ],
            "timing": {
              "repeat": {
                "frequency": 1,
                "period": 1,
                "periodUnit": "d"
              }
            },
            "text": "1 tablet (10 mg) by mouth once daily",
            "asNeededBoolean": false
          }
        ],
        "reasonCode": [
          {
            "coding": [
              {
                "code": "55822004",
                "system": "http://snomed.info/sct",
                "display": "Hyperlipidemia"
              }
            ]
          }
        ],
        "text": {
          "status": "generated",
          "div": "<div xmlns=\"http://www.w3.org/1999/xhtml\"><table class=\"hl7__ips first25\"><tr><th>Medication</th><th>Since</th><th>Form</th><th>Dosage</th><th>Reason</th></tr><tr><td>Simvastatin 10 mg oral tablet</td><td><span class=\"nb\">2024-10-04</span></td><td>-</td><td>1 tablet (10 mg) by mouth once daily</td><td>Hyperlipidemia</td></tr></table></div>"
        },
        "status": "active",
        "medicationReference": {
          "reference": "urn:uuid:a468f47e-e82d-4302-ad53-652353479b53",
          "display": "Simvastatin 10 mg oral tablet"
        },
        "subject": {
          "reference": "urn:uuid:2b9dc153-018a-4001-926f-09408efa362d",
          "display": "Leonhard Köhler"
        }
      }
    },
    {
      "fullUrl": "urn:uuid:bf0a8014-8e45-483e-b4b6-0098e04ebd74",
      "resource": {
        "resourceType": "Medication",
        "id": "bf0a8014-8e45-483e-b4b6-0098e04ebd74",
        "meta": {
          "profile": [
            "http://hl7.eu/fhir/eps/StructureDefinition/Medication-eu-eps"
          ]
        },
        "code": {
          "coding": [
            {
              "code": "1153431000",
              "system": "http://snomed.info/sct",
              "display": "Amlodipine (as amlodipine besylate) 2.5 mg oral tablet"
            }
          ],
          "text": "Amlodipine (as amlodipine besylate) 2.5 mg oral tablet"
        },
        "text": {
          "status": "generated",
          "div": "<div xmlns=\"http://www.w3.org/1999/xhtml\">Amlodipine (as amlodipine besylate) 2.5 mg oral tablet</div>"
        }
      }
    },
    {
      "fullUrl": "urn:uuid:34f7545e-a953-4bc8-bc8d-035009706e33",
      "resource": {
        "resourceType": "MedicationStatement",
        "id": "34f7545e-a953-4bc8-bc8d-035009706e33",
        "meta": {
          "profile": [
            "http://hl7.eu/fhir/eps/StructureDefinition/MedicationStatement-eu-eps"
          ]
        },
        "effectivePeriod": {
          "start": "2024-09-27"
        },
        "dosage": [
          {
            "doseAndRate": [
              {
                "doseQuantity": {
                  "value": 1,
                  "unit": "{tbl}",
                  "code": "{tbl}"
                }
              }
            ],
            "timing": {
              "repeat": {
                "frequency": 1,
                "period": 1,
                "periodUnit": "d"
              }
            },
            "text": "1 tablet (2.5 mg) by mouth once daily",
            "asNeededBoolean": false
          }
        ],
        "reasonCode": [
          {
            "coding": [
              {
                "code": "59621000",
                "system": "http://snomed.info/sct",
                "display": "Essential hypertension (disorder)"
              }
            ]
          }
        ],
        "text": {
          "status": "generated",
          "div": "<div xmlns=\"http://www.w3.org/1999/xhtml\"><table class=\"hl7__ips first25\"><tr><th>Medication</th><th>Since</th><th>Form</th><th>Dosage</th><th>Reason</th></tr><tr><td>Amlodipine (as amlodipine besylate) 2.5 mg oral tablet</td><td><span class=\"nb\">2024-09-27</span></td><td>-</td><td>1 tablet (2.5 mg) by mouth once daily</td><td>Essential hypertension (disorder)</td></tr></table></div>"
        },
        "status": "active",
        "medicationReference": {
          "reference": "urn:uuid:bf0a8014-8e45-483e-b4b6-0098e04ebd74",
          "display": "Amlodipine (as amlodipine besylate) 2.5 mg oral tablet"
        },
        "subject": {
          "reference": "urn:uuid:2b9dc153-018a-4001-926f-09408efa362d",
          "display": "Leonhard Köhler"
        }
      }
    },
    {
      "fullUrl": "urn:uuid:d5cc6a3c-5ae4-4599-8d72-dfa4df6095a2",
      "resource": {
        "resourceType": "Medication",
        "id": "d5cc6a3c-5ae4-4599-8d72-dfa4df6095a2",
        "meta": {
          "profile": [
            "http://hl7.eu/fhir/eps/StructureDefinition/Medication-eu-eps"
          ]
        },
        "code": {
          "coding": [
            {
              "code": "376209006",
              "system": "http://snomed.info/sct",
              "display": "Hydrochlorothiazide 25 mg oral tablet"
            }
          ],
          "text": "Hydrochlorothiazide 25 mg oral tablet"
        },
        "text": {
          "status": "generated",
          "div": "<div xmlns=\"http://www.w3.org/1999/xhtml\">Hydrochlorothiazide 25 mg oral tablet</div>"
        }
      }
    },
    {
      "fullUrl": "urn:uuid:66afff6a-ee0c-4eed-9bb7-a58e5bcd4c96",
      "resource": {
        "resourceType": "MedicationStatement",
        "id": "66afff6a-ee0c-4eed-9bb7-a58e5bcd4c96",
        "meta": {
          "profile": [
            "http://hl7.eu/fhir/eps/StructureDefinition/MedicationStatement-eu-eps"
          ]
        },
        "effectivePeriod": {
          "start": "2024-09-27"
        },
        "dosage": [
          {
            "doseAndRate": [
              {
                "doseQuantity": {
                  "value": 1,
                  "unit": "{tbl}",
                  "code": "{tbl}"
                }
              }
            ],
            "timing": {
              "repeat": {
                "frequency": 1,
                "period": 1,
                "periodUnit": "d"
              }
            },
            "text": "1 tablet (25 mg) by mouth once daily",
            "asNeededBoolean": false
          }
        ],
        "reasonCode": [
          {
            "coding": [
              {
                "code": "59621000",
                "system": "http://snomed.info/sct",
                "display": "Essential hypertension (disorder)"
              }
            ]
          }
        ],
        "text": {
          "status": "generated",
          "div": "<div xmlns=\"http://www.w3.org/1999/xhtml\"><table class=\"hl7__ips first25\"><tr><th>Medication</th><th>Since</th><th>Form</th><th>Dosage</th><th>Reason</th></tr><tr><td>Hydrochlorothiazide 25 mg oral tablet</td><td><span class=\"nb\">2024-09-27</span></td><td>-</td><td>1 tablet (25 mg) by mouth once daily</td><td>Essential hypertension (disorder)</td></tr></table></div>"
        },
        "status": "active",
        "medicationReference": {
          "reference": "urn:uuid:d5cc6a3c-5ae4-4599-8d72-dfa4df6095a2",
          "display": "Hydrochlorothiazide 25 mg oral tablet"
        },
        "subject": {
          "reference": "urn:uuid:2b9dc153-018a-4001-926f-09408efa362d",
          "display": "Leonhard Köhler"
        }
      }
    },
    {
      "fullUrl": "urn:uuid:339fc8af-c5aa-4f62-8edc-55e4e3426377",
      "resource": {
        "resourceType": "Medication",
        "id": "339fc8af-c5aa-4f62-8edc-55e4e3426377",
        "meta": {
          "profile": [
            "http://hl7.eu/fhir/eps/StructureDefinition/Medication-eu-eps"
          ]
        },
        "code": {
          "coding": [
            {
              "code": "318859000",
              "system": "http://snomed.info/sct",
              "display": "Lisinopril 10 mg oral tablet"
            }
          ],
          "text": "Lisinopril 10 mg oral tablet"
        },
        "text": {
          "status": "generated",
          "div": "<div xmlns=\"http://www.w3.org/1999/xhtml\">Lisinopril 10 mg oral tablet</div>"
        }
      }
    },
    {
      "fullUrl": "urn:uuid:4c9a0213-33ad-4a6e-90e3-f031f2283ad6",
      "resource": {
        "resourceType": "MedicationStatement",
        "id": "4c9a0213-33ad-4a6e-90e3-f031f2283ad6",
        "meta": {
          "profile": [
            "http://hl7.eu/fhir/eps/StructureDefinition/MedicationStatement-eu-eps"
          ]
        },
        "effectivePeriod": {
          "start": "2024-09-27"
        },
        "dosage": [
          {
            "doseAndRate": [
              {
                "doseQuantity": {
                  "value": 1,
                  "unit": "{tbl}",
                  "code": "{tbl}"
                }
              }
            ],
            "timing": {
              "repeat": {
                "frequency": 1,
                "period": 1,
                "periodUnit": "d"
              }
            },
            "text": "1 tablet (10 mg) by mouth once daily",
            "asNeededBoolean": false
          }
        ],
        "reasonCode": [
          {
            "coding": [
              {
                "code": "59621000",
                "system": "http://snomed.info/sct",
                "display": "Essential hypertension (disorder)"
              }
            ]
          }
        ],
        "text": {
          "status": "generated",
          "div": "<div xmlns=\"http://www.w3.org/1999/xhtml\"><table class=\"hl7__ips first25\"><tr><th>Medication</th><th>Since</th><th>Form</th><th>Dosage</th><th>Reason</th></tr><tr><td>Lisinopril 10 mg oral tablet</td><td><span class=\"nb\">2024-09-27</span></td><td>-</td><td>1 tablet (10 mg) by mouth once daily</td><td>Essential hypertension (disorder)</td></tr></table></div>"
        },
        "status": "active",
        "medicationReference": {
          "reference": "urn:uuid:339fc8af-c5aa-4f62-8edc-55e4e3426377",
          "display": "Lisinopril 10 mg oral tablet"
        },
        "subject": {
          "reference": "urn:uuid:2b9dc153-018a-4001-926f-09408efa362d",
          "display": "Leonhard Köhler"
        }
      }
    },
    {
      "fullUrl": "urn:uuid:7c980d7c-e669-4a90-bc30-cab62822f4d9",
      "resource": {
        "resourceType": "Medication",
        "id": "7c980d7c-e669-4a90-bc30-cab62822f4d9",
        "meta": {
          "profile": [
            "http://hl7.eu/fhir/eps/StructureDefinition/Medication-eu-eps"
          ]
        },
        "code": {
          "coding": [
            {
              "code": "783586007",
              "system": "http://snomed.info/sct",
              "display": "Clopidogrel (as clopidogrel bisulfate) 75 mg oral tablet"
            }
          ],
          "text": "Clopidogrel (as clopidogrel bisulfate) 75 mg oral tablet"
        },
        "text": {
          "status": "generated",
          "div": "<div xmlns=\"http://www.w3.org/1999/xhtml\">Clopidogrel (as clopidogrel bisulfate) 75 mg oral tablet</div>"
        }
      }
    },
    {
      "fullUrl": "urn:uuid:669f54e9-ec4b-403e-bc0d-132aa4db273d",
      "resource": {
        "resourceType": "MedicationStatement",
        "id": "669f54e9-ec4b-403e-bc0d-132aa4db273d",
        "meta": {
          "profile": [
            "http://hl7.eu/fhir/eps/StructureDefinition/MedicationStatement-eu-eps"
          ]
        },
        "effectivePeriod": {
          "start": "2010-07-16"
        },
        "dosage": [
          {
            "doseAndRate": [
              {
                "doseQuantity": {
                  "value": 1,
                  "unit": "{tbl}",
                  "code": "{tbl}"
                }
              }
            ],
            "timing": {
              "repeat": {
                "frequency": 1,
                "period": 1,
                "periodUnit": "d"
              }
            },
            "text": "1 tablet (75 mg) once daily",
            "asNeededBoolean": false
          }
        ],
        "text": {
          "status": "generated",
          "div": "<div xmlns=\"http://www.w3.org/1999/xhtml\"><table class=\"hl7__ips first25\"><tr><th>Medication</th><th>Since</th><th>Form</th><th>Dosage</th><th>Reason</th></tr><tr><td>Clopidogrel (as clopidogrel bisulfate) 75 mg oral tablet</td><td><span class=\"nb\">2010-07-16</span></td><td>-</td><td>1 tablet (75 mg) once daily</td><td>-</td></tr></table></div>"
        },
        "status": "active",
        "medicationReference": {
          "reference": "urn:uuid:7c980d7c-e669-4a90-bc30-cab62822f4d9",
          "display": "Clopidogrel (as clopidogrel bisulfate) 75 mg oral tablet"
        },
        "subject": {
          "reference": "urn:uuid:2b9dc153-018a-4001-926f-09408efa362d",
          "display": "Leonhard Köhler"
        }
      }
    },
    {
      "fullUrl": "urn:uuid:e91fcd52-f789-4d12-8674-4c7481f3ec9f",
      "resource": {
        "resourceType": "Medication",
        "id": "e91fcd52-f789-4d12-8674-4c7481f3ec9f",
        "meta": {
          "profile": [
            "http://hl7.eu/fhir/eps/StructureDefinition/Medication-eu-eps"
          ]
        },
        "code": {
          "coding": [
            {
              "code": "319997009",
              "system": "http://snomed.info/sct",
              "display": "Simvastatin 20 mg oral tablet"
            }
          ],
          "text": "Simvastatin 20 mg oral tablet"
        },
        "text": {
          "status": "generated",
          "div": "<div xmlns=\"http://www.w3.org/1999/xhtml\">Simvastatin 20 mg oral tablet</div>"
        }
      }
    },
    {
      "fullUrl": "urn:uuid:1c0830c1-80e8-4c1d-a763-eef0a9612b85",
      "resource": {
        "resourceType": "MedicationStatement",
        "id": "1c0830c1-80e8-4c1d-a763-eef0a9612b85",
        "meta": {
          "profile": [
            "http://hl7.eu/fhir/eps/StructureDefinition/MedicationStatement-eu-eps"
          ]
        },
        "effectivePeriod": {
          "start": "2010-07-16"
        },
        "dosage": [
          {
            "doseAndRate": [
              {
                "doseQuantity": {
                  "value": 1,
                  "unit": "{tbl}",
                  "code": "{tbl}"
                }
              }
            ],
            "timing": {
              "repeat": {
                "frequency": 1,
                "period": 1,
                "periodUnit": "d"
              }
            },
            "text": "1 tablet (20 mg) by mouth once daily",
            "asNeededBoolean": false
          }
        ],
        "text": {
          "status": "generated",
          "div": "<div xmlns=\"http://www.w3.org/1999/xhtml\"><table class=\"hl7__ips first25\"><tr><th>Medication</th><th>Since</th><th>Form</th><th>Dosage</th><th>Reason</th></tr><tr><td>Simvastatin 20 mg oral tablet</td><td><span class=\"nb\">2010-07-16</span></td><td>-</td><td>1 tablet (20 mg) by mouth once daily</td><td>-</td></tr></table></div>"
        },
        "status": "active",
        "medicationReference": {
          "reference": "urn:uuid:e91fcd52-f789-4d12-8674-4c7481f3ec9f",
          "display": "Simvastatin 20 mg oral tablet"
        },
        "subject": {
          "reference": "urn:uuid:2b9dc153-018a-4001-926f-09408efa362d",
          "display": "Leonhard Köhler"
        }
      }
    },
    {
      "fullUrl": "urn:uuid:bfed8cfd-3c12-4e4c-9a6c-64e6e2d47217",
      "resource": {
        "resourceType": "Medication",
        "id": "bfed8cfd-3c12-4e4c-9a6c-64e6e2d47217",
        "meta": {
          "profile": [
            "http://hl7.eu/fhir/eps/StructureDefinition/Medication-eu-eps"
          ]
        },
        "code": {
          "coding": [
            {
              "code": "425176000",
              "system": "http://snomed.info/sct",
              "display": "Nitroglycerin 400 microgram/actuation sublingual spray"
            }
          ],
          "text": "Nitroglycerin 400 microgram/actuation sublingual spray"
        },
        "text": {
          "status": "generated",
          "div": "<div xmlns=\"http://www.w3.org/1999/xhtml\">Nitroglycerin 400 microgram/actuation sublingual spray</div>"
        }
      }
    },
    {
      "fullUrl": "urn:uuid:c2b44426-266e-45ea-bf65-a34c75832887",
      "resource": {
        "resourceType": "MedicationStatement",
        "id": "c2b44426-266e-45ea-bf65-a34c75832887",
        "meta": {
          "profile": [
            "http://hl7.eu/fhir/eps/StructureDefinition/MedicationStatement-eu-eps"
          ]
        },
        "effectivePeriod": {
          "start": "2010-07-16"
        },
        "dosage": [
          {
            "doseAndRate": [
              {
                "doseQuantity": {
                  "value": 400,
                  "unit": "microgram",
                  "code": "ug"
                }
              }
            ],
            "timing": {
              "repeat": {
                "frequency": 1,
                "period": 5,
                "periodUnit": "min"
              }
            },
            "text": "400 micrograms per spray, 1 spray under the tongue as needed for chest pain, may repeat every 5 minutes as needed, up to 3 sprays in 15 minutes",
            "asNeededBoolean": true
          }
        ],
        "text": {
          "status": "generated",
          "div": "<div xmlns=\"http://www.w3.org/1999/xhtml\"><table class=\"hl7__ips first25\"><tr><th>Medication</th><th>Since</th><th>Form</th><th>Dosage</th><th>Reason</th></tr><tr><td>Nitroglycerin 400 microgram/actuation sublingual spray</td><td><span class=\"nb\">2010-07-16</span></td><td>-</td><td>400 micrograms per spray, 1 spray under the tongue as needed for chest pain, may repeat every 5 minutes as needed, up to 3 sprays in 15 minutes</td><td>-</td></tr></table></div>"
        },
        "status": "active",
        "medicationReference": {
          "reference": "urn:uuid:bfed8cfd-3c12-4e4c-9a6c-64e6e2d47217",
          "display": "Nitroglycerin 400 microgram/actuation sublingual spray"
        },
        "subject": {
          "reference": "urn:uuid:2b9dc153-018a-4001-926f-09408efa362d",
          "display": "Leonhard Köhler"
        }
      }
    },
    {
      "fullUrl": "urn:uuid:cde1b16c-c372-4d7d-a34e-d2f0008e4ca9",
      "resource": {
        "resourceType": "Medication",
        "id": "cde1b16c-c372-4d7d-a34e-d2f0008e4ca9",
        "meta": {
          "profile": [
            "http://hl7.eu/fhir/eps/StructureDefinition/Medication-eu-eps"
          ]
        },
        "code": {
          "coding": [
            {
              "code": "879980009",
              "system": "http://snomed.info/sct",
              "display": "Metoprolol tartrate (as metoprolol succinate) 100 mg prolonged-release oral tablet"
            }
          ],
          "text": "Metoprolol tartrate (as metoprolol succinate) 100 mg prolonged-release oral tablet"
        },
        "text": {
          "status": "generated",
          "div": "<div xmlns=\"http://www.w3.org/1999/xhtml\">Metoprolol tartrate (as metoprolol succinate) 100 mg prolonged-release oral tablet</div>"
        }
      }
    },
    {
      "fullUrl": "urn:uuid:51443a37-dadc-4e91-8b47-8f16afb7d58e",
      "resource": {
        "resourceType": "MedicationStatement",
        "id": "51443a37-dadc-4e91-8b47-8f16afb7d58e",
        "meta": {
          "profile": [
            "http://hl7.eu/fhir/eps/StructureDefinition/MedicationStatement-eu-eps"
          ]
        },
        "effectivePeriod": {
          "start": "2010-07-16"
        },
        "dosage": [
          {
            "doseAndRate": [
              {
                "doseQuantity": {
                  "value": 1,
                  "unit": "{tbl}",
                  "code": "{tbl}"
                }
              }
            ],
            "timing": {
              "repeat": {
                "frequency": 1,
                "period": 1,
                "periodUnit": "d"
              }
            },
            "text": "1 tablet (100 mg) once daily",
            "asNeededBoolean": false
          }
        ],
        "text": {
          "status": "generated",
          "div": "<div xmlns=\"http://www.w3.org/1999/xhtml\"><table class=\"hl7__ips first25\"><tr><th>Medication</th><th>Since</th><th>Form</th><th>Dosage</th><th>Reason</th></tr><tr><td>Metoprolol tartrate (as metoprolol succinate) 100 mg prolonged-release oral tablet</td><td><span class=\"nb\">2010-07-16</span></td><td>-</td><td>1 tablet (100 mg) once daily</td><td>-</td></tr></table></div>"
        },
        "status": "active",
        "medicationReference": {
          "reference": "urn:uuid:cde1b16c-c372-4d7d-a34e-d2f0008e4ca9",
          "display": "Metoprolol tartrate (as metoprolol succinate) 100 mg prolonged-release oral tablet"
        },
        "subject": {
          "reference": "urn:uuid:2b9dc153-018a-4001-926f-09408efa362d",
          "display": "Leonhard Köhler"
        }
      }
    },
    {
      "fullUrl": "urn:uuid:9ddca968-dd01-4b67-843b-8a9f218f08fa",
      "resource": {
        "resourceType": "Medication",
        "id": "9ddca968-dd01-4b67-843b-8a9f218f08fa",
        "meta": {
          "profile": [
            "http://hl7.eu/fhir/eps/StructureDefinition/Medication-eu-eps"
          ]
        },
        "code": {
          "coding": [
            {
              "code": "420276008",
              "system": "http://snomed.info/sct",
              "display": "Naproxen sodium 220 mg oral capsule"
            }
          ],
          "text": "Naproxen sodium 220 mg oral capsule"
        },
        "text": {
          "status": "generated",
          "div": "<div xmlns=\"http://www.w3.org/1999/xhtml\">Naproxen sodium 220 mg oral capsule</div>"
        }
      }
    },
    {
      "fullUrl": "urn:uuid:826751f2-7aa5-46d5-b5ba-1d7e96dcd944",
      "resource": {
        "resourceType": "MedicationStatement",
        "id": "826751f2-7aa5-46d5-b5ba-1d7e96dcd944",
        "meta": {
          "profile": [
            "http://hl7.eu/fhir/eps/StructureDefinition/MedicationStatement-eu-eps"
          ]
        },
        "effectivePeriod": {
          "start": "2003-09-09"
        },
        "dosage": [
          {
            "doseAndRate": [
              {
                "doseQuantity": {
                  "value": 1,
                  "unit": "{tbl}",
                  "system": "$ucum",
                  "code": "{tbl}"
                }
              }
            ],
            "timing": {
              "repeat": {
                "frequency": 2,
                "period": 1,
                "periodUnit": "d"
              }
            },
            "text": "1 tablet (220 mg) by mouth every 12 hours as needed",
            "asNeededBoolean": true
          }
        ],
        "reasonCode": [
          {
            "coding": [
              {
                "code": "239873007",
                "system": "http://snomed.info/sct",
                "display": "Osteoarthritis of knee"
              }
            ]
          }
        ],
        "text": {
          "status": "generated",
          "div": "<div xmlns=\"http://www.w3.org/1999/xhtml\"><table class=\"hl7__ips first25\"><tr><th>Medication</th><th>Since</th><th>Form</th><th>Dosage</th><th>Reason</th></tr><tr><td>Naproxen sodium 220 mg oral capsule</td><td><span class=\"nb\">2003-09-09</span></td><td>-</td><td>1 tablet (220 mg) by mouth every 12 hours as needed</td><td>Osteoarthritis of knee</td></tr></table></div>"
        },
        "status": "active",
        "medicationReference": {
          "reference": "urn:uuid:9ddca968-dd01-4b67-843b-8a9f218f08fa",
          "display": "Naproxen sodium 220 mg oral capsule"
        },
        "subject": {
          "reference": "urn:uuid:2b9dc153-018a-4001-926f-09408efa362d",
          "display": "Leonhard Köhler"
        }
      }
    },
    {
      "fullUrl": "urn:uuid:a8ba8738-2145-41f0-8044-e0687a4099d5",
      "resource": {
        "resourceType": "Immunization",
        "id": "a8ba8738-2145-41f0-8044-e0687a4099d5",
        "meta": {
          "profile": [
            "http://hl7.org/fhir/uv/ips/StructureDefinition/Immunization-uv-ips"
          ]
        },
        "vaccineCode": {
          "coding": [
            {
              "code": "1181000221105",
              "system": "http://snomed.info/sct",
              "display": "Vaccine product containing Influenza virus antigen"
            },
            {
              "code": "J07BB02",
              "system": "http://www.whocc.no/atc",
              "display": "Influenza, inactivated, split virus"
            }
          ],
          "text": "Influenza virus antigen only vaccine product"
        },
        "site": {
          "coding": [
            {
              "code": "244979005",
              "system": "http://snomed.info/sct",
              "display": "Entire muscle of upper arm"
            }
          ],
          "text": "Entire muscle of upper arm"
        },
        "route": {
          "coding": [
            {
              "code": "78421000",
              "system": "http://snomed.info/sct",
              "display": "Intramuscular route"
            }
          ],
          "text": "Intramuscular route"
        },
        "text": {
          "status": "generated",
          "div": "<div xmlns=\"http://www.w3.org/1999/xhtml\"><table class=\"hl7__ips\"><tr><td>Influenza virus antigen only vaccine product</td><td><span class=\"nb\">01-Dec-2023</span></td></tr></table></div>"
        },
        "status": "completed",
        "patient": {
          "reference": "urn:uuid:2b9dc153-018a-4001-926f-09408efa362d",
          "display": "Leonhard Köhler"
        },
        "occurrenceDateTime": "2023-12-01",
        "lotNumber": "PN-NzLB6",
        "expirationDate": "2024-01-20"
      }
    },
    {
      "fullUrl": "urn:uuid:e902ef52-ada1-4b97-be52-d6c8fed36257",
      "resource": {
        "resourceType": "Immunization",
        "id": "e902ef52-ada1-4b97-be52-d6c8fed36257",
        "meta": {
          "profile": [
            "http://hl7.org/fhir/uv/ips/StructureDefinition/Immunization-uv-ips"
          ]
        },
        "vaccineCode": {
          "coding": [
            {
              "code": "1119349007",
              "system": "http://snomed.info/sct",
              "display": "Vaccine product containing SARS-CoV-2 mRNA"
            },
            {
              "code": "J07BX03",
              "system": "http://www.whocc.no/atc",
              "display": "COVID-19 mRNA vaccines"
            }
          ],
          "text": "SARS-CoV-2 mRNA vaccine"
        },
        "site": {
          "coding": [
            {
              "code": "244979005",
              "system": "http://snomed.info/sct",
              "display": "Entire muscle of upper arm"
            }
          ],
          "text": "Entire muscle of upper arm"
        },
        "route": {
          "coding": [
            {
              "code": "78421000",
              "system": "http://snomed.info/sct",
              "display": "Intramuscular route"
            }
          ],
          "text": "Intramuscular route"
        },
        "text": {
          "status": "generated",
          "div": "<div xmlns=\"http://www.w3.org/1999/xhtml\"><table class=\"hl7__ips\"><tr><td>SARS-CoV-2 mRNA vaccine</td><td><span class=\"nb\">30-Apr-2021</span></td></tr></table></div>"
        },
        "status": "completed",
        "patient": {
          "reference": "urn:uuid:2b9dc153-018a-4001-926f-09408efa362d",
          "display": "Leonhard Köhler"
        },
        "occurrenceDateTime": "2021-04-30",
        "lotNumber": "BT-j7Mk93QC",
        "expirationDate": "2022-04-06"
      }
    },
    {
      "fullUrl": "urn:uuid:add472ec-2d26-4482-9d3c-65a2fa696c08",
      "resource": {
        "resourceType": "Immunization",
        "id": "add472ec-2d26-4482-9d3c-65a2fa696c08",
        "meta": {
          "profile": [
            "http://hl7.org/fhir/uv/ips/StructureDefinition/Immunization-uv-ips"
          ]
        },
        "vaccineCode": {
          "coding": [
            {
              "code": "777725002",
              "system": "http://snomed.info/sct",
              "display": "Vaccine product containing only Clostridium tetani toxoid antigen adsorbed"
            },
            {
              "code": "J07AM51",
              "system": "http://www.whocc.no/atc",
              "display": "Diphtheria-tetanus vaccines, adult type"
            }
          ],
          "text": "Clostridium tetani toxoid antigen adsorbed only vaccine product"
        },
        "site": {
          "coding": [
            {
              "code": "244979005",
              "system": "http://snomed.info/sct",
              "display": "Entire muscle of upper arm"
            }
          ],
          "text": "Entire muscle of upper arm"
        },
        "route": {
          "coding": [
            {
              "code": "78421000",
              "system": "http://snomed.info/sct",
              "display": "Intramuscular route"
            }
          ],
          "text": "Intramuscular route"
        },
        "text": {
          "status": "generated",
          "div": "<div xmlns=\"http://www.w3.org/1999/xhtml\"><table class=\"hl7__ips\"><tr><td>Clostridium tetani toxoid antigen adsorbed only vaccine product</td><td><span class=\"nb\">04-Sep-2020</span></td></tr></table></div>"
        },
        "status": "completed",
        "patient": {
          "reference": "urn:uuid:2b9dc153-018a-4001-926f-09408efa362d",
          "display": "Leonhard Köhler"
        },
        "occurrenceDateTime": "2020-09-04",
        "lotNumber": "YJ-trEsp3",
        "expirationDate": "2020-10-06"
      }
    },
    {
      "fullUrl": "urn:uuid:a1d789c6-0566-49b0-95e5-987616cbf72b",
      "resource": {
        "resourceType": "Immunization",
        "id": "a1d789c6-0566-49b0-95e5-987616cbf72b",
        "meta": {
          "profile": [
            "http://hl7.org/fhir/uv/ips/StructureDefinition/Immunization-uv-ips"
          ]
        },
        "vaccineCode": {
          "coding": [
            {
              "code": "1252709000",
              "system": "http://snomed.info/sct",
              "display": "Vaccine product containing Streptococcus pneumoniae capsular polysaccharide antigens conjugated"
            },
            {
              "code": "J07AL01",
              "system": "http://www.whocc.no/atc",
              "display": "Pneumococcal polysaccharide vaccines"
            }
          ],
          "text": "Streptococcus pneumoniae Danish serotype 1"
        },
        "site": {
          "coding": [
            {
              "code": "244979005",
              "system": "http://snomed.info/sct",
              "display": "Entire muscle of upper arm"
            }
          ],
          "text": "Entire muscle of upper arm"
        },
        "route": {
          "coding": [
            {
              "code": "78421000",
              "system": "http://snomed.info/sct",
              "display": "Intramuscular route"
            }
          ],
          "text": "Intramuscular route"
        },
        "text": {
          "status": "generated",
          "div": "<div xmlns=\"http://www.w3.org/1999/xhtml\"><table class=\"hl7__ips\"><tr><td>Streptococcus pneumoniae Danish serotype 1</td><td><span class=\"nb\">07-Aug-2015</span></td></tr></table></div>"
        },
        "status": "completed",
        "patient": {
          "reference": "urn:uuid:2b9dc153-018a-4001-926f-09408efa362d",
          "display": "Leonhard Köhler"
        },
        "occurrenceDateTime": "2015-08-07",
        "lotNumber": "XE-bTJSSZLa",
        "expirationDate": "2015-10-29"
      }
    },
    {
      "fullUrl": "urn:uuid:13aad801-add2-4266-92dd-a05ed36bfae3",
      "resource": {
        "resourceType": "Procedure",
        "id": "13aad801-add2-4266-92dd-a05ed36bfae3",
        "meta": {
          "profile": [
            "http://hl7.org/fhir/uv/ips/StructureDefinition/Procedure-uv-ips"
          ]
        },
        "code": {
          "coding": [
            {
              "code": "14736009",
              "system": "http://snomed.info/sct",
              "display": "History and physical examination with evaluation and management of patient (procedure)"
            }
          ],
          "text": "Patient evaluation and management"
        },
        "text": {
          "status": "generated",
          "div": "<div xmlns=\"http://www.w3.org/1999/xhtml\"><table class=\"hl7__ips\"><tr><td>Patient evaluation and management</td><td><span class=\"nb\">19-Nov-2024</span></td><td>-</td></tr></table></div>"
        },
        "status": "completed",
        "performedDateTime": "2024-11-19",
        "subject": {
          "reference": "urn:uuid:",
          "display": "Leonhard Köhler"
        }
      }
    },
    {
      "fullUrl": "urn:uuid:d47b7f46-d416-44d8-80e8-26399bf9ecbb",
      "resource": {
        "resourceType": "Procedure",
        "id": "d47b7f46-d416-44d8-80e8-26399bf9ecbb",
        "meta": {
          "profile": [
            "http://hl7.org/fhir/uv/ips/StructureDefinition/Procedure-uv-ips"
          ]
        },
        "code": {
          "coding": [
            {
              "code": "57617002",
              "system": "http://snomed.info/sct",
              "display": "Urine specimen collection (procedure)"
            }
          ],
          "text": "Urine specimen collection"
        },
        "text": {
          "status": "generated",
          "div": "<div xmlns=\"http://www.w3.org/1999/xhtml\"><table class=\"hl7__ips\"><tr><td>Urine specimen collection</td><td><span class=\"nb\">19-Nov-2024</span></td><td>-</td></tr></table></div>"
        },
        "status": "completed",
        "performedDateTime": "2024-11-19",
        "subject": {
          "reference": "urn:uuid:",
          "display": "Leonhard Köhler"
        }
      }
    },
    {
      "fullUrl": "urn:uuid:94fef692-fe25-4fee-b77c-97fb7338b0db",
      "resource": {
        "resourceType": "Procedure",
        "id": "94fef692-fe25-4fee-b77c-97fb7338b0db",
        "meta": {
          "profile": [
            "http://hl7.org/fhir/uv/ips/StructureDefinition/Procedure-uv-ips"
          ]
        },
        "code": {
          "coding": [
            {
              "code": "58000006",
              "system": "http://snomed.info/sct",
              "display": "Patient discharge (procedure)"
            }
          ],
          "text": "Patient discharge"
        },
        "text": {
          "status": "generated",
          "div": "<div xmlns=\"http://www.w3.org/1999/xhtml\"><table class=\"hl7__ips\"><tr><td>Patient discharge</td><td><span class=\"nb\">19-Nov-2024</span></td><td>-</td></tr></table></div>"
        },
        "status": "completed",
        "performedDateTime": "2024-11-19",
        "subject": {
          "reference": "urn:uuid:",
          "display": "Leonhard Köhler"
        }
      }
    },
    {
      "fullUrl": "urn:uuid:8fb53004-3520-415a-865b-2ce517f60e64",
      "resource": {
        "resourceType": "Procedure",
        "id": "8fb53004-3520-415a-865b-2ce517f60e64",
        "meta": {
          "profile": [
            "http://hl7.org/fhir/uv/ips/StructureDefinition/Procedure-uv-ips"
          ]
        },
        "code": {
          "coding": [
            {
              "code": "61746007",
              "system": "http://snomed.info/sct",
              "display": "Taking patient vital signs (procedure)"
            }
          ],
          "text": "Taking patient vital signs"
        },
        "text": {
          "status": "generated",
          "div": "<div xmlns=\"http://www.w3.org/1999/xhtml\"><table class=\"hl7__ips\"><tr><td>Taking patient vital signs</td><td><span class=\"nb\">19-Nov-2024</span></td><td>-</td></tr></table></div>"
        },
        "status": "completed",
        "performedDateTime": "2024-11-19",
        "subject": {
          "reference": "urn:uuid:",
          "display": "Leonhard Köhler"
        }
      }
    },
    {
      "fullUrl": "urn:uuid:890789da-a69b-465d-9628-cd724243827f",
      "resource": {
        "resourceType": "Procedure",
        "id": "890789da-a69b-465d-9628-cd724243827f",
        "meta": {
          "profile": [
            "http://hl7.org/fhir/uv/ips/StructureDefinition/Procedure-uv-ips"
          ]
        },
        "code": {
          "coding": [
            {
              "code": "281789004",
              "system": "http://snomed.info/sct",
              "display": "Antibiotic therapy (procedure)"
            }
          ],
          "text": "Antibiotic therapy"
        },
        "text": {
          "status": "generated",
          "div": "<div xmlns=\"http://www.w3.org/1999/xhtml\"><table class=\"hl7__ips\"><tr><td>Antibiotic therapy</td><td><span class=\"nb\">19-Nov-2024</span></td><td>-</td></tr></table></div>"
        },
        "status": "completed",
        "performedDateTime": "2024-11-19",
        "subject": {
          "reference": "urn:uuid:",
          "display": "Leonhard Köhler"
        }
      }
    },
    {
      "fullUrl": "urn:uuid:a10f4b6b-c71e-42b4-b6d9-22930c93c7cb",
      "resource": {
        "resourceType": "Procedure",
        "id": "a10f4b6b-c71e-42b4-b6d9-22930c93c7cb",
        "meta": {
          "profile": [
            "http://hl7.org/fhir/uv/ips/StructureDefinition/Procedure-uv-ips"
          ]
        },
        "code": {
          "coding": [
            {
              "code": "386478007",
              "system": "http://snomed.info/sct",
              "display": "Triage emergency center (procedure)"
            }
          ],
          "text": "Triage: emergency center"
        },
        "text": {
          "status": "generated",
          "div": "<div xmlns=\"http://www.w3.org/1999/xhtml\"><table class=\"hl7__ips\"><tr><td>Triage: emergency center</td><td><span class=\"nb\">19-Nov-2024</span></td><td>-</td></tr></table></div>"
        },
        "status": "completed",
        "performedDateTime": "2024-11-19",
        "subject": {
          "reference": "urn:uuid:",
          "display": "Leonhard Köhler"
        }
      }
    },
    {
      "fullUrl": "urn:uuid:09302a19-667a-4ece-a1d5-9a37a9739944",
      "resource": {
        "resourceType": "Procedure",
        "id": "09302a19-667a-4ece-a1d5-9a37a9739944",
        "meta": {
          "profile": [
            "http://hl7.org/fhir/uv/ips/StructureDefinition/Procedure-uv-ips"
          ]
        },
        "code": {
          "coding": [
            {
              "code": "441550005",
              "system": "http://snomed.info/sct",
              "display": "Urinalysis with reflex to microscopy and culture (procedure)"
            }
          ],
          "text": "Urinalysis with reflex to microscopy and culture"
        },
        "text": {
          "status": "generated",
          "div": "<div xmlns=\"http://www.w3.org/1999/xhtml\"><table class=\"hl7__ips\"><tr><td>Urinalysis with reflex to microscopy and culture</td><td><span class=\"nb\">19-Nov-2024</span></td><td>-</td></tr></table></div>"
        },
        "status": "completed",
        "performedDateTime": "2024-11-19",
        "subject": {
          "reference": "urn:uuid:",
          "display": "Leonhard Köhler"
        }
      }
    },
    {
      "fullUrl": "urn:uuid:7534e463-548d-4fc1-ba55-a8ce30248721",
      "resource": {
        "resourceType": "Procedure",
        "id": "7534e463-548d-4fc1-ba55-a8ce30248721",
        "meta": {
          "profile": [
            "http://hl7.org/fhir/uv/ips/StructureDefinition/Procedure-uv-ips"
          ]
        },
        "code": {
          "coding": [
            {
              "code": "171207006",
              "system": "http://snomed.info/sct",
              "display": "Depression screening (procedure)"
            }
          ],
          "text": "Depression screening"
        },
        "text": {
          "status": "generated",
          "div": "<div xmlns=\"http://www.w3.org/1999/xhtml\"><table class=\"hl7__ips\"><tr><td>Depression screening</td><td><span class=\"nb\">01-Dec-2023</span></td><td>-</td></tr></table></div>"
        },
        "status": "completed",
        "performedDateTime": "2023-12-01",
        "subject": {
          "reference": "urn:uuid:",
          "display": "Leonhard Köhler"
        }
      }
    },
    {
      "fullUrl": "urn:uuid:1f03a6b5-23ce-4bf6-8dfc-73a1c711b67c",
      "resource": {
        "resourceType": "Procedure",
        "id": "1f03a6b5-23ce-4bf6-8dfc-73a1c711b67c",
        "meta": {
          "profile": [
            "http://hl7.org/fhir/uv/ips/StructureDefinition/Procedure-uv-ips"
          ]
        },
        "code": {
          "coding": [
            {
              "code": "710824005",
              "system": "http://snomed.info/sct",
              "display": "Assessment of health and social care needs (procedure)"
            }
          ],
          "text": "Assessment of health and social care needs"
        },
        "text": {
          "status": "generated",
          "div": "<div xmlns=\"http://www.w3.org/1999/xhtml\"><table class=\"hl7__ips\"><tr><td>Assessment of health and social care needs</td><td><span class=\"nb\">01-Dec-2023</span></td><td>-</td></tr></table></div>"
        },
        "status": "completed",
        "performedDateTime": "2023-12-01",
        "subject": {
          "reference": "urn:uuid:",
          "display": "Leonhard Köhler"
        }
      }
    },
    {
      "fullUrl": "urn:uuid:7d6db49f-942b-488c-9f1a-d60580d15ee2",
      "resource": {
        "resourceType": "Procedure",
        "id": "7d6db49f-942b-488c-9f1a-d60580d15ee2",
        "meta": {
          "profile": [
            "http://hl7.org/fhir/uv/ips/StructureDefinition/Procedure-uv-ips"
          ]
        },
        "code": {
          "coding": [
            {
              "code": "762993000",
              "system": "http://snomed.info/sct",
              "display": "Assessment using Morse Fall Scale (procedure)"
            }
          ],
          "text": "Assessment using Morse Fall Scale"
        },
        "text": {
          "status": "generated",
          "div": "<div xmlns=\"http://www.w3.org/1999/xhtml\"><table class=\"hl7__ips\"><tr><td>Assessment using Morse Fall Scale</td><td><span class=\"nb\">01-Dec-2023</span></td><td>-</td></tr></table></div>"
        },
        "status": "completed",
        "performedDateTime": "2023-12-01",
        "subject": {
          "reference": "urn:uuid:",
          "display": "Leonhard Köhler"
        }
      }
    },
    {
      "fullUrl": "urn:uuid:8836b6b3-6d07-4a07-b583-c00835aebc70",
      "resource": {
        "resourceType": "Procedure",
        "id": "8836b6b3-6d07-4a07-b583-c00835aebc70",
        "meta": {
          "profile": [
            "http://hl7.org/fhir/uv/ips/StructureDefinition/Procedure-uv-ips"
          ]
        },
        "code": {
          "coding": [
            {
              "code": "763302001",
              "system": "http://snomed.info/sct",
              "display": "Assessment using Alcohol Use Disorders Identification Test - Consumption (procedure)"
            }
          ],
          "text": "Assessment using AUDIT-C (Alcohol Use Disorders Identification Test - Consumption)"
        },
        "text": {
          "status": "generated",
          "div": "<div xmlns=\"http://www.w3.org/1999/xhtml\"><table class=\"hl7__ips\"><tr><td>Assessment using AUDIT-C (Alcohol Use Disorders Identification Test - Consumption)</td><td><span class=\"nb\">01-Dec-2023</span></td><td>-</td></tr></table></div>"
        },
        "status": "completed",
        "performedDateTime": "2023-12-01",
        "subject": {
          "reference": "urn:uuid:",
          "display": "Leonhard Köhler"
        }
      }
    },
    {
      "fullUrl": "urn:uuid:7132c7ee-0a1c-4049-8aad-4e8e726b09e4",
      "resource": {
        "resourceType": "Procedure",
        "id": "7132c7ee-0a1c-4049-8aad-4e8e726b09e4",
        "meta": {
          "profile": [
            "http://hl7.org/fhir/uv/ips/StructureDefinition/Procedure-uv-ips"
          ]
        },
        "code": {
          "coding": [
            {
              "code": "428211000124100",
              "system": "http://snomed.info/sct",
              "display": "Assessment of substance use (procedure)"
            }
          ],
          "text": "Assessment of substance use"
        },
        "text": {
          "status": "generated",
          "div": "<div xmlns=\"http://www.w3.org/1999/xhtml\"><table class=\"hl7__ips\"><tr><td>Assessment of substance use</td><td><span class=\"nb\">01-Dec-2023</span></td><td>-</td></tr></table></div>"
        },
        "status": "completed",
        "performedDateTime": "2023-12-01",
        "subject": {
          "reference": "urn:uuid:",
          "display": "Leonhard Köhler"
        }
      }
    },
    {
      "fullUrl": "urn:uuid:ea7264fd-94a5-4c8a-90ab-10b343236882",
      "resource": {
        "resourceType": "Procedure",
        "id": "ea7264fd-94a5-4c8a-90ab-10b343236882",
        "meta": {
          "profile": [
            "http://hl7.org/fhir/uv/ips/StructureDefinition/Procedure-uv-ips"
          ]
        },
        "code": {
          "coding": [
            {
              "code": "454711000124102",
              "system": "http://snomed.info/sct",
              "display": "Depression screening using Patient Health Questionnaire Two-Item score (procedure)"
            }
          ]
        },
        "text": {
          "status": "generated",
          "div": "<div xmlns=\"http://www.w3.org/1999/xhtml\"><table class=\"hl7__ips\"><tr><td>Depression screening using Patient Health Questionnaire Two-Item score (procedure)</td><td><span class=\"nb\">01-Dec-2023</span></td><td>-</td></tr></table></div>"
        },
        "status": "completed",
        "performedDateTime": "2023-12-01",
        "subject": {
          "reference": "urn:uuid:",
          "display": "Leonhard Köhler"
        }
      }
    },
    {
      "fullUrl": "urn:uuid:1c0c2e77-28da-45f2-91df-c1b76f35b776",
      "resource": {
        "resourceType": "AllergyIntolerance",
        "id": "1c0c2e77-28da-45f2-91df-c1b76f35b776",
        "meta": {
          "profile": [
            "http://hl7.eu/fhir/eps/StructureDefinition/allergyIntolerance-eu-eps"
          ]
        },
        "code": {
          "text": ""
        },
        "clinicalStatus": {
          "coding": [
            {
              "code": "active",
              "system": "http://terminology.hl7.org/CodeSystem/allergyintolerance-clinical"
            }
          ]
        },
        "text": {
          "status": "generated",
          "div": "<div xmlns=\"http://www.w3.org/1999/xhtml\"><table class=\"hl7__ips\"><tr><th>Allergy/Intolerance</th><th>Onset Date</th><th>Status</th><th>Type</th><th>Reaction</th></tr><tr><td></td><td>?</td><td>active</td><td>?</td><td></td></tr></table></div>"
        },
        "verificationStatus": {
          "coding": [
            {
              "code": "confirmed",
              "system": "http://terminology.hl7.org/CodeSystem/allergyintolerance-verification"
            }
          ]
        },
        "patient": {
          "reference": "urn:uuid:2b9dc153-018a-4001-926f-09408efa362d",
          "display": "Leonhard Köhler"
        },
        "_onsetDateTime": {
          "extension": [
            {
              "url": "http://hl7.org/fhir/StructureDefinition/data-absent-reason",
              "valueCode": "unknown"
            }
          ]
        }
      }
    },
    {
      "fullUrl": "urn:uuid:e1617cf5-5c58-4894-8953-aa999b44846a",
      "resource": {
        "resourceType": "CarePlan",
        "id": "e1617cf5-5c58-4894-8953-aa999b44846a",
        "category": [
          {
            "coding": [
              {
                "code": "assess-plan",
                "system": "http://terminology.hl7.org/CodeSystem/care-plan-category",
                "display": "Assessment and Plan"
              }
            ]
          }
        ],
        "activity": [
          {
            "detail": {
              "code": {
                "coding": [
                  {
                    "code": "736285004",
                    "system": "http://snomed.info/sct",
                    "display": "Hyperlipidemia clinical management plan (record artifact)"
                  }
                ]
              },
              "reasonCode": [
                {
                  "coding": [
                    {
                      "code": "55822004",
                      "system": "http://snomed.info/sct",
                      "display": "Hyperlipidemia"
                    }
                  ]
                }
              ],
              "status": "unknown",
              "description": "Hyperlipidemia clinical management plan",
              "kind": "Appointment"
            }
          }
        ],
        "period": {
          "start": "2016-09-02"
        },
        "goal": [
          {
            "reference": "urn:uuid:baf8233b-62a0-4304-839f-0b951292bab0"
          },
          {
            "reference": "urn:uuid:2bbff8ab-2abc-45fc-8773-3dd6ed6a722f"
          },
          {
            "reference": "urn:uuid:6cc0add5-1baa-418a-8158-94ac9e71c47a"
          },
          {
            "reference": "urn:uuid:45d9a445-9cba-4f5a-a633-28588b1474d2"
          }
        ],
        "text": {
          "status": "generated",
          "div": "<div xmlns=\"http://www.w3.org/1999/xhtml\"><table class=\"hl7__ips first25\"><tr><th>Active Planned Care / Goals</th><th>Start Date</th><th>Reason</th></tr><tr><td>Hyperlipidemia clinical management plan</td><td><span class=\"nb\">02-Sep-2016</span></td><td>Hyperlipidemia</td></tr><tr><td><ul><li>Achieve LDL cholesterol below 70 mg/dL to reduce cardiovascular risk.</li><li>Maintain total cholesterol below 200 mg/dL.</li><li>Maintain HDL cholesterol above 40 mg/dL.</li><li>Maintain triglycerides below 150 mg/dL.</li></ul></td><td></td><td></td></tr></table></div>"
        },
        "status": "active",
        "intent": "plan",
        "subject": {
          "reference": "urn:uuid:2b9dc153-018a-4001-926f-09408efa362d",
          "display": "Leonhard Köhler"
        }
      }
    },
    {
      "fullUrl": "urn:uuid:e8f5ae01-d9c8-4f33-8cc4-f4bed873ac3d",
      "resource": {
        "resourceType": "CarePlan",
        "id": "e8f5ae01-d9c8-4f33-8cc4-f4bed873ac3d",
        "category": [
          {
            "coding": [
              {
                "code": "assess-plan",
                "system": "http://terminology.hl7.org/CodeSystem/care-plan-category",
                "display": "Assessment and Plan"
              }
            ]
          }
        ],
        "activity": [
          {
            "detail": {
              "code": {
                "coding": [
                  {
                    "code": "443402002",
                    "system": "http://snomed.info/sct",
                    "display": "Lifestyle education regarding hypertension (procedure)"
                  }
                ]
              },
              "reasonCode": [
                {
                  "coding": [
                    {
                      "code": "59621000",
                      "system": "http://snomed.info/sct",
                      "display": "Essential hypertension (disorder)"
                    }
                  ]
                }
              ],
              "status": "unknown",
              "description": "Lifestyle education regarding hypertension",
              "kind": "Appointment"
            }
          }
        ],
        "period": {
          "start": "2006-06-16"
        },
        "goal": [
          {
            "reference": "urn:uuid:9130f32f-b612-41dd-8ad1-4ffc1fe077a8"
          },
          {
            "reference": "urn:uuid:f87fa109-e8ba-4e7c-97af-e058bf27b893"
          },
          {
            "reference": "urn:uuid:9a0635f4-3f8c-4808-b38b-6f5155447e3a"
          },
          {
            "reference": "urn:uuid:871dfbd5-8902-4607-863e-266712627fc1"
          },
          {
            "reference": "urn:uuid:63d2a3cd-1025-43e4-96a8-17b479039065"
          }
        ],
        "text": {
          "status": "generated",
          "div": "<div xmlns=\"http://www.w3.org/1999/xhtml\"><table class=\"hl7__ips first25\"><tr><th>Active Planned Care / Goals</th><th>Start Date</th><th>Reason</th></tr><tr><td>Lifestyle education regarding hypertension</td><td><span class=\"nb\">16-Jun-2006</span></td><td>Essential hypertension (disorder)</td></tr><tr><td><ul><li>Maintain blood pressure below 130/80 mm[Hg] through lifestyle modifications.</li><li>Limit daily sodium intake to less than 2.3 g to support blood pressure control.</li><li>Engage in at least 150 minutes of moderate-intensity aerobic physical activity per week.</li><li>Achieve a 5% reduction in body weight from baseline.</li><li>Limit alcohol consumption to no more than 2 standard drinks per day.</li></ul></td><td></td><td></td></tr></table></div>"
        },
        "status": "active",
        "intent": "plan",
        "subject": {
          "reference": "urn:uuid:2b9dc153-018a-4001-926f-09408efa362d",
          "display": "Leonhard Köhler"
        }
      }
    },
    {
      "fullUrl": "urn:uuid:20249a00-5c67-48bb-9ebd-25b6b48031cb",
      "resource": {
        "resourceType": "CarePlan",
        "id": "20249a00-5c67-48bb-9ebd-25b6b48031cb",
        "category": [
          {
            "coding": [
              {
                "code": "assess-plan",
                "system": "http://terminology.hl7.org/CodeSystem/care-plan-category",
                "display": "Assessment and Plan"
              }
            ]
          }
        ],
        "activity": [
          {
            "detail": {
              "code": {
                "coding": [
                  {
                    "code": "408869004",
                    "system": "http://snomed.info/sct",
                    "display": "Musculoskeletal care (regime/therapy)"
                  }
                ]
              },
              "reasonCode": [
                {
                  "coding": [
                    {
                      "code": "239873007",
                      "system": "http://snomed.info/sct",
                      "display": "Osteoarthritis of knee"
                    }
                  ]
                }
              ],
              "status": "unknown",
              "description": "Musculoskeletal care",
              "kind": "Appointment"
            }
          }
        ],
        "period": {
          "start": "2003-09-09"
        },
        "goal": [
          {
            "reference": "urn:uuid:64cb17e5-4d4f-4697-879f-03662c0617e3"
          },
          {
            "reference": "urn:uuid:edb2e377-60d4-4385-ba84-b05f1943e979"
          },
          {
            "reference": "urn:uuid:3a9b6fac-2208-4a59-94e7-73298e1f300e"
          }
        ],
        "text": {
          "status": "generated",
          "div": "<div xmlns=\"http://www.w3.org/1999/xhtml\"><table class=\"hl7__ips first25\"><tr><th>Active Planned Care / Goals</th><th>Start Date</th><th>Reason</th></tr><tr><td>Musculoskeletal care</td><td><span class=\"nb\">09-Sep-2003</span></td><td>Osteoarthritis of knee</td></tr><tr><td><ul><li>Reduce knee pain severity to a tolerable level to improve mobility and quality of life.</li><li>Increase ability to walk and perform daily activities without significant limitation from knee osteoarthritis.</li><li>Patient will perform prescribed knee strengthening and flexibility exercises at least 5 days per week.</li></ul></td><td></td><td></td></tr></table></div>"
        },
        "status": "active",
        "intent": "plan",
        "subject": {
          "reference": "urn:uuid:2b9dc153-018a-4001-926f-09408efa362d",
          "display": "Leonhard Köhler"
        }
      }
    },
    {
      "fullUrl": "urn:uuid:472ab2ac-31be-404c-a59a-cfc76e115b93",
      "resource": {
        "resourceType": "CarePlan",
        "id": "472ab2ac-31be-404c-a59a-cfc76e115b93",
        "category": [
          {
            "coding": [
              {
                "code": "assess-plan",
                "system": "http://terminology.hl7.org/CodeSystem/care-plan-category",
                "display": "Assessment and Plan"
              }
            ]
          }
        ],
        "activity": [
          {
            "detail": {
              "code": {
                "coding": [
                  {
                    "code": "698360004",
                    "system": "http://snomed.info/sct",
                    "display": "Diabetes self management plan (qualifier value)"
                  }
                ]
              },
              "reasonCode": [
                {
                  "coding": [
                    {
                      "code": "15777000",
                      "system": "http://snomed.info/sct",
                      "display": "Prediabetes"
                    }
                  ]
                }
              ],
              "status": "unknown",
              "description": "Diabetes self management plan",
              "kind": "Appointment"
            }
          }
        ],
        "period": {
          "start": "1971-07-09"
        },
        "goal": [
          {
            "reference": "urn:uuid:95ade39a-5b17-40d9-a422-97b42167f59d"
          },
          {
            "reference": "urn:uuid:3a97a7b7-9180-4176-bbe5-0e0a04aabbee"
          },
          {
            "reference": "urn:uuid:c94c6371-0752-41c8-b180-dc4fb17cb02a"
          },
          {
            "reference": "urn:uuid:8b3d64c0-db5a-4e2c-b1fc-56b775c2dd1b"
          }
        ],
        "text": {
          "status": "generated",
          "div": "<div xmlns=\"http://www.w3.org/1999/xhtml\"><table class=\"hl7__ips first25\"><tr><th>Active Planned Care / Goals</th><th>Start Date</th><th>Reason</th></tr><tr><td>Diabetes self management plan</td><td><span class=\"nb\">09-Jul-1971</span></td><td>Prediabetes</td></tr><tr><td><ul><li>Achieve and maintain Hemoglobin A1c below prediabetes threshold through lifestyle modification.</li><li>Achieve and maintain a healthy body weight to reduce risk of progression to diabetes.</li><li>Maintain blood pressure below 130/80 mmHg as part of diabetes risk reduction.</li><li>Maintain LDL cholesterol below 100 mg/dL to reduce cardiovascular risk.</li></ul></td><td></td><td></td></tr></table></div>"
        },
        "status": "active",
        "intent": "plan",
        "subject": {
          "reference": "urn:uuid:2b9dc153-018a-4001-926f-09408efa362d",
          "display": "Leonhard Köhler"
        }
      }
    },
    {
      "fullUrl": "urn:uuid:76fe4cdd-2735-4943-9850-e236024f5b66",
      "resource": {
        "resourceType": "ImmunizationRecommendation",
        "id": "76fe4cdd-2735-4943-9850-e236024f5b66",
        "recommendation": [
          {
            "vaccineCode": [
              {
                "coding": [
                  {
                    "code": "1181000221105",
                    "system": "http://snomed.info/sct",
                    "display": "Vaccine product containing only Influenza virus antigen (medicinal product)"
                  }
                ]
              }
            ],
            "dateCriterion": [
              {
                "code": {
                  "coding": [
                    {
                      "code": "30980-7",
                      "system": "http://loinc.org",
                      "display": "Date vaccine due"
                    }
                  ]
                },
                "value": "2025-10-01"
              }
            ],
            "targetDisease": {
              "coding": [
                {
                  "code": "6142004",
                  "system": "http://snomed.info/sct",
                  "display": "Influenza (disorder)"
                }
              ]
            },
            "series": "Annual seasonal influenza vaccination",
            "forecastStatus": {
              "coding": [
                {
                  "code": "due",
                  "system": "http://terminology.hl7.org/CodeSystem/immunization-recommendation-status",
                  "display": "Due"
                }
              ]
            }
          }
        ],
        "text": {
          "status": "generated",
          "div": "<div xmlns=\"http://www.w3.org/1999/xhtml\"><table class=\"hl7__ips\"><tr><td>Vaccine product containing only Influenza virus antigen (medicinal product)</td><td><span class=\"nb\">01-Oct-2025</span></td><td>Annual seasonal influenza vaccination</td></tr></table></div>"
        },
        "date": "2025-10-22",
        "patient": {
          "reference": "urn:uuid:2b9dc153-018a-4001-926f-09408efa362d",
          "display": "Leonhard Köhler"
        }
      }
    },
    {
      "fullUrl": "urn:uuid:3c28adcd-ca7a-4efa-8318-d86d62b65a5a",
      "resource": {
        "resourceType": "Observation",
        "id": "3c28adcd-ca7a-4efa-8318-d86d62b65a5a",
        "meta": {
          "profile": [
            "http://hl7.org/fhir/StructureDefinition/vitalsigns"
          ]
        },
        "category": [
          {
            "coding": [
              {
                "system": "http://terminology.hl7.org/CodeSystem/observation-category",
                "code": "vital-signs",
                "display": "Vital Signs"
              }
            ]
          }
        ],
        "valueQuantity": {
          "value": 78.6,
          "code": "mm[Hg]",
          "unit": "mm[Hg]"
        },
        "text": {
          "status": "generated",
          "div": "<div xmlns=\"http://www.w3.org/1999/xhtml\"><table class=\"hl7__ips\"><tr><th>Vital Sign</th><th>Date</th><th>Measurement</th></tr><tr><td>Diastolic Blood Pressure</td><td>19-Nov-2024</td><td>78.6 mm[Hg]</td></tr></table></div>"
        },
        "status": "final",
        "code": {
          "coding": [
            {
              "code": "$8462-4",
              "system": "http://loinc.org",
              "display": "Diastolic Blood Pressure"
            }
          ]
        },
        "subject": {
          "reference": "urn:uuid:2b9dc153-018a-4001-926f-09408efa362d",
          "display": "Leonhard Köhler"
        },
        "effectiveDateTime": "2024-11-19"
      }
    },
    {
      "fullUrl": "urn:uuid:9ebfc781-4fa0-49d3-823c-350b25d30251",
      "resource": {
        "resourceType": "Observation",
        "id": "9ebfc781-4fa0-49d3-823c-350b25d30251",
        "meta": {
          "profile": [
            "http://hl7.org/fhir/StructureDefinition/vitalsigns"
          ]
        },
        "category": [
          {
            "coding": [
              {
                "system": "http://terminology.hl7.org/CodeSystem/observation-category",
                "code": "vital-signs",
                "display": "Vital Signs"
              }
            ]
          }
        ],
        "valueQuantity": {
          "value": 126.9,
          "code": "mm[Hg]",
          "unit": "mm[Hg]"
        },
        "text": {
          "status": "generated",
          "div": "<div xmlns=\"http://www.w3.org/1999/xhtml\"><table class=\"hl7__ips\"><tr><th>Vital Sign</th><th>Date</th><th>Measurement</th></tr><tr><td>Systolic Blood Pressure</td><td>19-Nov-2024</td><td>126.9 mm[Hg]</td></tr></table></div>"
        },
        "status": "final",
        "code": {
          "coding": [
            {
              "code": "$8480-6",
              "system": "http://loinc.org",
              "display": "Systolic Blood Pressure"
            }
          ]
        },
        "subject": {
          "reference": "urn:uuid:2b9dc153-018a-4001-926f-09408efa362d",
          "display": "Leonhard Köhler"
        },
        "effectiveDateTime": "2024-11-19"
      }
    },
    {
      "fullUrl": "urn:uuid:6cdbec4e-94b8-4bb8-9e08-e275c6cf1a8c",
      "resource": {
        "resourceType": "Observation",
        "id": "6cdbec4e-94b8-4bb8-9e08-e275c6cf1a8c",
        "meta": {
          "profile": [
            "http://hl7.org/fhir/StructureDefinition/vitalsigns"
          ]
        },
        "category": [
          {
            "coding": [
              {
                "system": "http://terminology.hl7.org/CodeSystem/observation-category",
                "code": "vital-signs",
                "display": "Vital Signs"
              }
            ]
          }
        ],
        "valueQuantity": {
          "value": 95,
          "code": "/min",
          "unit": "/min"
        },
        "text": {
          "status": "generated",
          "div": "<div xmlns=\"http://www.w3.org/1999/xhtml\"><table class=\"hl7__ips\"><tr><th>Vital Sign</th><th>Date</th><th>Measurement</th></tr><tr><td>Heart rate</td><td>19-Nov-2024</td><td>95 /min</td></tr></table></div>"
        },
        "status": "final",
        "code": {
          "coding": [
            {
              "code": "$8867-4",
              "system": "http://loinc.org",
              "display": "Heart rate"
            }
          ]
        },
        "subject": {
          "reference": "urn:uuid:2b9dc153-018a-4001-926f-09408efa362d",
          "display": "Leonhard Köhler"
        },
        "effectiveDateTime": "2024-11-19"
      }
    },
    {
      "fullUrl": "urn:uuid:350ffb5c-6096-4d9a-8efe-d6c5ebd6e4be",
      "resource": {
        "resourceType": "Observation",
        "id": "350ffb5c-6096-4d9a-8efe-d6c5ebd6e4be",
        "meta": {
          "profile": [
            "http://hl7.org/fhir/StructureDefinition/vitalsigns"
          ]
        },
        "category": [
          {
            "coding": [
              {
                "system": "http://terminology.hl7.org/CodeSystem/observation-category",
                "code": "vital-signs",
                "display": "Vital Signs"
              }
            ]
          }
        ],
        "valueQuantity": {
          "value": 14,
          "code": "/min",
          "unit": "/min"
        },
        "text": {
          "status": "generated",
          "div": "<div xmlns=\"http://www.w3.org/1999/xhtml\"><table class=\"hl7__ips\"><tr><th>Vital Sign</th><th>Date</th><th>Measurement</th></tr><tr><td>Respiratory rate</td><td>19-Nov-2024</td><td>14 /min</td></tr></table></div>"
        },
        "status": "final",
        "code": {
          "coding": [
            {
              "code": "$9279-1",
              "system": "http://loinc.org",
              "display": "Respiratory rate"
            }
          ]
        },
        "subject": {
          "reference": "urn:uuid:2b9dc153-018a-4001-926f-09408efa362d",
          "display": "Leonhard Köhler"
        },
        "effectiveDateTime": "2024-11-19"
      }
    },
    {
      "fullUrl": "urn:uuid:57276e8c-868a-45eb-9eb6-1f0ad6c1522d",
      "resource": {
        "resourceType": "Observation",
        "id": "57276e8c-868a-45eb-9eb6-1f0ad6c1522d",
        "meta": {
          "profile": [
            "http://hl7.org/fhir/StructureDefinition/vitalsigns"
          ]
        },
        "category": [
          {
            "coding": [
              {
                "system": "http://terminology.hl7.org/CodeSystem/observation-category",
                "code": "vital-signs",
                "display": "Vital Signs"
              }
            ]
          }
        ],
        "valueQuantity": {
          "value": 99.5,
          "code": "%",
          "unit": "%"
        },
        "text": {
          "status": "generated",
          "div": "<div xmlns=\"http://www.w3.org/1999/xhtml\"><table class=\"hl7__ips\"><tr><th>Vital Sign</th><th>Date</th><th>Measurement</th></tr><tr><td>Oxygen saturation in Arterial blood</td><td>19-Nov-2024</td><td>99.5 %</td></tr></table></div>"
        },
        "status": "final",
        "code": {
          "coding": [
            {
              "code": "$2708-6",
              "system": "http://loinc.org",
              "display": "Oxygen saturation in Arterial blood"
            }
          ]
        },
        "subject": {
          "reference": "urn:uuid:2b9dc153-018a-4001-926f-09408efa362d",
          "display": "Leonhard Köhler"
        },
        "effectiveDateTime": "2024-11-19"
      }
    },
    {
      "fullUrl": "urn:uuid:602691a1-857a-43cb-bcc3-96dcf62ee6ee",
      "resource": {
        "resourceType": "Observation",
        "id": "602691a1-857a-43cb-bcc3-96dcf62ee6ee",
        "meta": {
          "profile": [
            "http://hl7.org/fhir/StructureDefinition/vitalsigns"
          ]
        },
        "category": [
          {
            "coding": [
              {
                "system": "http://terminology.hl7.org/CodeSystem/observation-category",
                "code": "vital-signs",
                "display": "Vital Signs"
              }
            ]
          }
        ],
        "valueQuantity": {
          "value": 36.8,
          "code": "Cel",
          "unit": "Cel"
        },
        "text": {
          "status": "generated",
          "div": "<div xmlns=\"http://www.w3.org/1999/xhtml\"><table class=\"hl7__ips\"><tr><th>Vital Sign</th><th>Date</th><th>Measurement</th></tr><tr><td>Body temperature</td><td>19-Nov-2024</td><td>36.8 Cel</td></tr></table></div>"
        },
        "status": "final",
        "code": {
          "coding": [
            {
              "code": "$8310-5",
              "system": "http://loinc.org",
              "display": "Body temperature"
            }
          ]
        },
        "subject": {
          "reference": "urn:uuid:2b9dc153-018a-4001-926f-09408efa362d",
          "display": "Leonhard Köhler"
        },
        "effectiveDateTime": "2024-11-19"
      }
    },
    {
      "fullUrl": "urn:uuid:e321f85e-23b0-4960-8dee-b4575703ebdd",
      "resource": {
        "resourceType": "Observation",
        "id": "e321f85e-23b0-4960-8dee-b4575703ebdd",
        "meta": {
          "profile": [
            "http://hl7.org/fhir/StructureDefinition/vitalsigns"
          ]
        },
        "category": [
          {
            "coding": [
              {
                "system": "http://terminology.hl7.org/CodeSystem/observation-category",
                "code": "vital-signs",
                "display": "Vital Signs"
              }
            ]
          }
        ],
        "valueQuantity": {
          "value": 185.6,
          "code": "cm",
          "unit": "cm"
        },
        "text": {
          "status": "generated",
          "div": "<div xmlns=\"http://www.w3.org/1999/xhtml\"><table class=\"hl7__ips\"><tr><th>Vital Sign</th><th>Date</th><th>Measurement</th></tr><tr><td>Body Height</td><td>27-Sep-2024</td><td>185.6 cm</td></tr></table></div>"
        },
        "status": "final",
        "code": {
          "coding": [
            {
              "code": "$8302-2",
              "system": "http://loinc.org",
              "display": "Body Height"
            }
          ]
        },
        "subject": {
          "reference": "urn:uuid:2b9dc153-018a-4001-926f-09408efa362d",
          "display": "Leonhard Köhler"
        },
        "effectiveDateTime": "2024-09-27"
      }
    },
    {
      "fullUrl": "urn:uuid:d97ba2ee-4008-4c0d-b394-a7059777a756",
      "resource": {
        "resourceType": "Observation",
        "id": "d97ba2ee-4008-4c0d-b394-a7059777a756",
        "meta": {
          "profile": [
            "http://hl7.org/fhir/StructureDefinition/vitalsigns"
          ]
        },
        "category": [
          {
            "coding": [
              {
                "system": "http://terminology.hl7.org/CodeSystem/observation-category",
                "code": "vital-signs",
                "display": "Vital Signs"
              }
            ]
          }
        ],
        "valueQuantity": {
          "value": 3,
          "code": "{score}",
          "unit": "{score}"
        },
        "text": {
          "status": "generated",
          "div": "<div xmlns=\"http://www.w3.org/1999/xhtml\"><table class=\"hl7__ips\"><tr><th>Vital Sign</th><th>Date</th><th>Measurement</th></tr><tr><td>Pain severity - 0-10 verbal numeric rating [Score] - Reported</td><td>27-Sep-2024</td><td>3 {score}</td></tr></table></div>"
        },
        "status": "final",
        "code": {
          "coding": [
            {
              "code": "$72514-3",
              "system": "http://loinc.org",
              "display": "Pain severity - 0-10 verbal numeric rating [Score] - Reported"
            }
          ]
        },
        "subject": {
          "reference": "urn:uuid:2b9dc153-018a-4001-926f-09408efa362d",
          "display": "Leonhard Köhler"
        },
        "effectiveDateTime": "2024-09-27"
      }
    },
    {
      "fullUrl": "urn:uuid:43afa58d-41d0-4f38-b218-696aefa476e6",
      "resource": {
        "resourceType": "Observation",
        "id": "43afa58d-41d0-4f38-b218-696aefa476e6",
        "meta": {
          "profile": [
            "http://hl7.org/fhir/StructureDefinition/vitalsigns"
          ]
        },
        "category": [
          {
            "coding": [
              {
                "system": "http://terminology.hl7.org/CodeSystem/observation-category",
                "code": "vital-signs",
                "display": "Vital Signs"
              }
            ]
          }
        ],
        "valueQuantity": {
          "value": 94.3,
          "code": "kg",
          "unit": "kg"
        },
        "text": {
          "status": "generated",
          "div": "<div xmlns=\"http://www.w3.org/1999/xhtml\"><table class=\"hl7__ips\"><tr><th>Vital Sign</th><th>Date</th><th>Measurement</th></tr><tr><td>Body Weight</td><td>27-Sep-2024</td><td>94.3 kg</td></tr></table></div>"
        },
        "status": "final",
        "code": {
          "coding": [
            {
              "code": "$29463-7",
              "system": "http://loinc.org",
              "display": "Body Weight"
            }
          ]
        },
        "subject": {
          "reference": "urn:uuid:2b9dc153-018a-4001-926f-09408efa362d",
          "display": "Leonhard Köhler"
        },
        "effectiveDateTime": "2024-09-27"
      }
    },
    {
      "fullUrl": "urn:uuid:f56063a3-b3c0-4d92-8ec1-5c9741d4233a",
      "resource": {
        "resourceType": "Observation",
        "id": "f56063a3-b3c0-4d92-8ec1-5c9741d4233a",
        "meta": {
          "profile": [
            "http://hl7.org/fhir/StructureDefinition/vitalsigns"
          ]
        },
        "category": [
          {
            "coding": [
              {
                "system": "http://terminology.hl7.org/CodeSystem/observation-category",
                "code": "vital-signs",
                "display": "Vital Signs"
              }
            ]
          }
        ],
        "valueQuantity": {
          "value": 27.4,
          "code": "kg/m2",
          "unit": "kg/m2"
        },
        "text": {
          "status": "generated",
          "div": "<div xmlns=\"http://www.w3.org/1999/xhtml\"><table class=\"hl7__ips\"><tr><th>Vital Sign</th><th>Date</th><th>Measurement</th></tr><tr><td>Body mass index (BMI) [Ratio]</td><td>27-Sep-2024</td><td>27.4 kg/m2</td></tr></table></div>"
        },
        "status": "final",
        "code": {
          "coding": [
            {
              "code": "$39156-5",
              "system": "http://loinc.org",
              "display": "Body mass index (BMI) [Ratio]"
            }
          ]
        },
        "subject": {
          "reference": "urn:uuid:2b9dc153-018a-4001-926f-09408efa362d",
          "display": "Leonhard Köhler"
        },
        "effectiveDateTime": "2024-09-27"
      }
    },
    {
      "fullUrl": "urn:uuid:028be2d7-90eb-497e-9e7c-757bc0f1e014",
      "resource": {
        "resourceType": "Observation",
        "id": "028be2d7-90eb-497e-9e7c-757bc0f1e014",
        "meta": {
          "profile": [
            "http://hl7.org/fhir/StructureDefinition/vitalsigns"
          ]
        },
        "category": [
          {
            "coding": [
              {
                "system": "http://terminology.hl7.org/CodeSystem/observation-category",
                "code": "vital-signs",
                "display": "Vital Signs"
              }
            ]
          }
        ],
        "valueQuantity": {
          "value": 53,
          "code": "mm[Hg]",
          "unit": "mm[Hg]"
        },
        "text": {
          "status": "generated",
          "div": "<div xmlns=\"http://www.w3.org/1999/xhtml\"><table class=\"hl7__ips\"><tr><th>Vital Sign</th><th>Date</th><th>Measurement</th></tr><tr><td>Diastolic Blood Pressure</td><td>27-Sep-2024</td><td>53 mm[Hg]</td></tr></table></div>"
        },
        "status": "final",
        "code": {
          "coding": [
            {
              "code": "$8462-4",
              "system": "http://loinc.org",
              "display": "Diastolic Blood Pressure"
            }
          ]
        },
        "subject": {
          "reference": "urn:uuid:2b9dc153-018a-4001-926f-09408efa362d",
          "display": "Leonhard Köhler"
        },
        "effectiveDateTime": "2024-09-27"
      }
    },
    {
      "fullUrl": "urn:uuid:fc62312d-8b82-4e44-b0b7-a45556b7435d",
      "resource": {
        "resourceType": "Observation",
        "id": "fc62312d-8b82-4e44-b0b7-a45556b7435d",
        "meta": {
          "profile": [
            "http://hl7.org/fhir/StructureDefinition/vitalsigns"
          ]
        },
        "category": [
          {
            "coding": [
              {
                "system": "http://terminology.hl7.org/CodeSystem/observation-category",
                "code": "vital-signs",
                "display": "Vital Signs"
              }
            ]
          }
        ],
        "valueQuantity": {
          "value": 103,
          "code": "mm[Hg]",
          "unit": "mm[Hg]"
        },
        "text": {
          "status": "generated",
          "div": "<div xmlns=\"http://www.w3.org/1999/xhtml\"><table class=\"hl7__ips\"><tr><th>Vital Sign</th><th>Date</th><th>Measurement</th></tr><tr><td>Systolic Blood Pressure</td><td>27-Sep-2024</td><td>103 mm[Hg]</td></tr></table></div>"
        },
        "status": "final",
        "code": {
          "coding": [
            {
              "code": "$8480-6",
              "system": "http://loinc.org",
              "display": "Systolic Blood Pressure"
            }
          ]
        },
        "subject": {
          "reference": "urn:uuid:2b9dc153-018a-4001-926f-09408efa362d",
          "display": "Leonhard Köhler"
        },
        "effectiveDateTime": "2024-09-27"
      }
    },
    {
      "fullUrl": "urn:uuid:ebdf8e83-c351-41d3-ad5b-9a7ac4144fc6",
      "resource": {
        "resourceType": "Observation",
        "id": "ebdf8e83-c351-41d3-ad5b-9a7ac4144fc6",
        "meta": {
          "profile": [
            "http://hl7.org/fhir/StructureDefinition/vitalsigns"
          ]
        },
        "category": [
          {
            "coding": [
              {
                "system": "http://terminology.hl7.org/CodeSystem/observation-category",
                "code": "vital-signs",
                "display": "Vital Signs"
              }
            ]
          }
        ],
        "valueQuantity": {
          "value": 72,
          "code": "/min",
          "unit": "/min"
        },
        "text": {
          "status": "generated",
          "div": "<div xmlns=\"http://www.w3.org/1999/xhtml\"><table class=\"hl7__ips\"><tr><th>Vital Sign</th><th>Date</th><th>Measurement</th></tr><tr><td>Heart rate</td><td>27-Sep-2024</td><td>72 /min</td></tr></table></div>"
        },
        "status": "final",
        "code": {
          "coding": [
            {
              "code": "$8867-4",
              "system": "http://loinc.org",
              "display": "Heart rate"
            }
          ]
        },
        "subject": {
          "reference": "urn:uuid:2b9dc153-018a-4001-926f-09408efa362d",
          "display": "Leonhard Köhler"
        },
        "effectiveDateTime": "2024-09-27"
      }
    },
    {
      "fullUrl": "urn:uuid:20cb859c-9c0a-4011-bdcf-54c49a270aa4",
      "resource": {
        "resourceType": "Observation",
        "id": "20cb859c-9c0a-4011-bdcf-54c49a270aa4",
        "meta": {
          "profile": [
            "http://hl7.org/fhir/StructureDefinition/vitalsigns"
          ]
        },
        "category": [
          {
            "coding": [
              {
                "system": "http://terminology.hl7.org/CodeSystem/observation-category",
                "code": "vital-signs",
                "display": "Vital Signs"
              }
            ]
          }
        ],
        "valueQuantity": {
          "value": 14,
          "code": "/min",
          "unit": "/min"
        },
        "text": {
          "status": "generated",
          "div": "<div xmlns=\"http://www.w3.org/1999/xhtml\"><table class=\"hl7__ips\"><tr><th>Vital Sign</th><th>Date</th><th>Measurement</th></tr><tr><td>Respiratory rate</td><td>27-Sep-2024</td><td>14 /min</td></tr></table></div>"
        },
        "status": "final",
        "code": {
          "coding": [
            {
              "code": "$9279-1",
              "system": "http://loinc.org",
              "display": "Respiratory rate"
            }
          ]
        },
        "subject": {
          "reference": "urn:uuid:2b9dc153-018a-4001-926f-09408efa362d",
          "display": "Leonhard Köhler"
        },
        "effectiveDateTime": "2024-09-27"
      }
    },
    {
      "fullUrl": "urn:uuid:0a5404ef-e33e-4cb8-a846-151b78f221e2",
      "resource": {
        "resourceType": "Observation",
        "id": "0a5404ef-e33e-4cb8-a846-151b78f221e2",
        "meta": {
          "profile": [
            "http://hl7.eu/fhir/laboratory/StructureDefinition/Observation-resultslab-eu-lab"
          ]
        },
        "performer": [
          {
            "display": "The Central European Lab"
          }
        ],
        "category": [
          {
            "coding": [
              {
                "system": "http://terminology.hl7.org/CodeSystem/observation-category",
                "code": "laboratory"
              }
            ]
          }
        ],
        "code": {
          "coding": [
            {
              "code": "5792-7",
              "system": "http://loinc.org",
              "display": "Glucose [Mass/volume] in Urine by Test strip"
            }
          ],
          "text": "Glucose [Mass/volume] in Urine by Test strip"
        },
        "valueQuantity": {
          "system": "http://unitsofmeasure.org",
          "value": 2.9,
          "unit": "mg/dL",
          "code": "mg/dL"
        },
        "referenceRange": [
          {
            "low": {
              "value": 0,
              "code": "mg/dL",
              "system": "http://unitsofmeasure.org"
            }
          },
          {
            "high": {
              "value": 0.8,
              "code": "mg/dL",
              "system": "http://unitsofmeasure.org"
            }
          }
        ],
        "interpretation": [
          {
            "coding": [
              {
                "code": "H",
                "system": "http://terminology.hl7.org/CodeSystem/v3-ObservationInterpretation",
                "display": "High"
              }
            ]
          }
        ],
        "text": {
          "status": "generated",
          "div": "<div xmlns=\"http://www.w3.org/1999/xhtml\"><table class=\"hl7__eu__lab__report\"><tr><th>Test</th><th>19-Nov-2024</th><th>Reference&#xA0;Range</th><th>Unit</th></tr><tr><td>Glucose [Mass/volume] in Urine by Test strip</td><td>2.9</td><td>0 - 0.8</td><td>H</td><td>mg/dL</td></tr></table></div>"
        },
        "status": "final",
        "subject": {
          "reference": "urn:uuid:2b9dc153-018a-4001-926f-09408efa362d",
          "display": "Leonhard Köhler"
        },
        "effectiveDateTime": "2024-11-19T12:32:46Z"
      }
    },
    {
      "fullUrl": "urn:uuid:650c5623-e799-46c3-98c1-35ad27f209f9",
      "resource": {
        "resourceType": "Observation",
        "id": "650c5623-e799-46c3-98c1-35ad27f209f9",
        "meta": {
          "profile": [
            "http://hl7.eu/fhir/laboratory/StructureDefinition/Observation-resultslab-eu-lab"
          ]
        },
        "performer": [
          {
            "display": "The Central European Lab"
          }
        ],
        "category": [
          {
            "coding": [
              {
                "system": "http://terminology.hl7.org/CodeSystem/observation-category",
                "code": "laboratory"
              }
            ]
          }
        ],
        "code": {
          "coding": [
            {
              "code": "2514-8",
              "system": "http://loinc.org",
              "display": "Ketones [Presence] in Urine by Test strip"
            }
          ],
          "text": "Ketones [Presence] in Urine by Test strip"
        },
        "text": {
          "status": "generated",
          "div": "<div xmlns=\"http://www.w3.org/1999/xhtml\"><table class=\"hl7__eu__lab__report\"><tr><th>Test</th><th>19-Nov-2024</th><th>Reference&#xA0;Range</th><th>Unit</th></tr><tr><td>Ketones [Presence] in Urine by Test strip</td></tr></table></div>"
        },
        "status": "final",
        "subject": {
          "reference": "urn:uuid:2b9dc153-018a-4001-926f-09408efa362d",
          "display": "Leonhard Köhler"
        },
        "effectiveDateTime": "2024-11-19T12:32:46Z"
      }
    },
    {
      "fullUrl": "urn:uuid:940070ab-ae24-43df-b663-5eaa09fe1519",
      "resource": {
        "resourceType": "Observation",
        "id": "940070ab-ae24-43df-b663-5eaa09fe1519",
        "meta": {
          "profile": [
            "http://hl7.eu/fhir/laboratory/StructureDefinition/Observation-resultslab-eu-lab"
          ]
        },
        "performer": [
          {
            "display": "The Central European Lab"
          }
        ],
        "category": [
          {
            "coding": [
              {
                "system": "http://terminology.hl7.org/CodeSystem/observation-category",
                "code": "laboratory"
              }
            ]
          }
        ],
        "code": {
          "coding": [
            {
              "code": "5811-5",
              "system": "http://loinc.org",
              "display": "Specific gravity of Urine by Test strip"
            }
          ],
          "text": "Specific gravity of Urine by Test strip"
        },
        "valueQuantity": {
          "system": "http://unitsofmeasure.org",
          "value": 1,
          "unit": "{nominal}",
          "code": "{nominal}"
        },
        "referenceRange": [
          {
            "low": {
              "value": 1.005,
              "code": "g/mL",
              "system": "http://unitsofmeasure.org"
            }
          },
          {
            "high": {
              "value": 1.03,
              "code": "g/mL",
              "system": "http://unitsofmeasure.org"
            }
          }
        ],
        "interpretation": [
          {
            "coding": [
              {
                "code": "L",
                "system": "http://terminology.hl7.org/CodeSystem/v3-ObservationInterpretation",
                "display": "Low"
              }
            ]
          }
        ],
        "text": {
          "status": "generated",
          "div": "<div xmlns=\"http://www.w3.org/1999/xhtml\"><table class=\"hl7__eu__lab__report\"><tr><th>Test</th><th>19-Nov-2024</th><th>Reference&#xA0;Range</th><th>Unit</th></tr><tr><td>Specific gravity of Urine by Test strip</td><td>1.0</td><td>1.005 - 1.03</td><td>L</td><td>{nominal}</td></tr></table></div>"
        },
        "status": "final",
        "subject": {
          "reference": "urn:uuid:2b9dc153-018a-4001-926f-09408efa362d",
          "display": "Leonhard Köhler"
        },
        "effectiveDateTime": "2024-11-19T12:32:46Z"
      }
    },
    {
      "fullUrl": "urn:uuid:9dfb20f8-b66a-49dc-9148-b3772cd082c1",
      "resource": {
        "resourceType": "Observation",
        "id": "9dfb20f8-b66a-49dc-9148-b3772cd082c1",
        "meta": {
          "profile": [
            "http://hl7.eu/fhir/laboratory/StructureDefinition/Observation-resultslab-eu-lab"
          ]
        },
        "performer": [
          {
            "display": "The Central European Lab"
          }
        ],
        "category": [
          {
            "coding": [
              {
                "system": "http://terminology.hl7.org/CodeSystem/observation-category",
                "code": "laboratory"
              }
            ]
          }
        ],
        "code": {
          "coding": [
            {
              "code": "5803-2",
              "system": "http://loinc.org",
              "display": "pH of Urine by Test strip"
            }
          ],
          "text": "pH of Urine by Test strip"
        },
        "valueQuantity": {
          "system": "http://unitsofmeasure.org",
          "value": 6.6,
          "unit": "pH",
          "code": "pH"
        },
        "referenceRange": [
          {
            "low": {
              "value": 4.5,
              "code": "pH",
              "system": "http://unitsofmeasure.org"
            }
          },
          {
            "high": {
              "value": 7.5,
              "code": "pH",
              "system": "http://unitsofmeasure.org"
            }
          }
        ],
        "text": {
          "status": "generated",
          "div": "<div xmlns=\"http://www.w3.org/1999/xhtml\"><table class=\"hl7__eu__lab__report\"><tr><th>Test</th><th>19-Nov-2024</th><th>Reference&#xA0;Range</th><th>Unit</th></tr><tr><td>pH of Urine by Test strip</td><td>6.6</td><td>4.5 - 7.5</td><td></td><td>pH</td></tr></table></div>"
        },
        "status": "final",
        "subject": {
          "reference": "urn:uuid:2b9dc153-018a-4001-926f-09408efa362d",
          "display": "Leonhard Köhler"
        },
        "effectiveDateTime": "2024-11-19T12:32:46Z"
      }
    },
    {
      "fullUrl": "urn:uuid:bd9109d7-6656-4da3-a7e8-4bc0b8039d86",
      "resource": {
        "resourceType": "Observation",
        "id": "bd9109d7-6656-4da3-a7e8-4bc0b8039d86",
        "meta": {
          "profile": [
            "http://hl7.eu/fhir/laboratory/StructureDefinition/Observation-resultslab-eu-lab"
          ]
        },
        "performer": [
          {
            "display": "The Central European Lab"
          }
        ],
        "category": [
          {
            "coding": [
              {
                "system": "http://terminology.hl7.org/CodeSystem/observation-category",
                "code": "laboratory"
              }
            ]
          }
        ],
        "code": {
          "coding": [
            {
              "code": "5804-0",
              "system": "http://loinc.org",
              "display": "Protein [Mass/volume] in Urine by Test strip"
            }
          ],
          "text": "Protein [Mass/volume] in Urine by Test strip"
        },
        "valueQuantity": {
          "system": "http://unitsofmeasure.org",
          "value": 10.5,
          "unit": "mg/dL",
          "code": "mg/dL"
        },
        "referenceRange": [
          {
            "low": {
              "value": 14,
              "code": "mg/dL",
              "system": "http://unitsofmeasure.org"
            }
          },
          {
            "high": {
              "value": 20,
              "code": "mg/dL",
              "system": "http://unitsofmeasure.org"
            }
          }
        ],
        "interpretation": [
          {
            "coding": [
              {
                "code": "L",
                "system": "http://terminology.hl7.org/CodeSystem/v3-ObservationInterpretation",
                "display": "Low"
              }
            ]
          }
        ],
        "text": {
          "status": "generated",
          "div": "<div xmlns=\"http://www.w3.org/1999/xhtml\"><table class=\"hl7__eu__lab__report\"><tr><th>Test</th><th>19-Nov-2024</th><th>Reference&#xA0;Range</th><th>Unit</th></tr><tr><td>Protein [Mass/volume] in Urine by Test strip</td><td>10.5</td><td>14 - 20</td><td>L</td><td>mg/dL</td></tr></table></div>"
        },
        "status": "final",
        "subject": {
          "reference": "urn:uuid:2b9dc153-018a-4001-926f-09408efa362d",
          "display": "Leonhard Köhler"
        },
        "effectiveDateTime": "2024-11-19T12:32:46Z"
      }
    },
    {
      "fullUrl": "urn:uuid:8339f02d-4970-4fe0-864d-cde4a551c0c9",
      "resource": {
        "resourceType": "Observation",
        "id": "8339f02d-4970-4fe0-864d-cde4a551c0c9",
        "meta": {
          "profile": [
            "http://hl7.eu/fhir/laboratory/StructureDefinition/Observation-resultslab-eu-lab"
          ]
        },
        "performer": [
          {
            "display": "The Central European Lab"
          }
        ],
        "category": [
          {
            "coding": [
              {
                "system": "http://terminology.hl7.org/CodeSystem/observation-category",
                "code": "laboratory"
              }
            ]
          }
        ],
        "code": {
          "coding": [
            {
              "code": "5802-4",
              "system": "http://loinc.org",
              "display": "Nitrite [Presence] in Urine by Test strip"
            }
          ],
          "text": "Nitrite [Presence] in Urine by Test strip"
        },
        "text": {
          "status": "generated",
          "div": "<div xmlns=\"http://www.w3.org/1999/xhtml\"><table class=\"hl7__eu__lab__report\"><tr><th>Test</th><th>19-Nov-2024</th><th>Reference&#xA0;Range</th><th>Unit</th></tr><tr><td>Nitrite [Presence] in Urine by Test strip</td></tr></table></div>"
        },
        "status": "final",
        "subject": {
          "reference": "urn:uuid:2b9dc153-018a-4001-926f-09408efa362d",
          "display": "Leonhard Köhler"
        },
        "effectiveDateTime": "2024-11-19T12:32:46Z"
      }
    },
    {
      "fullUrl": "urn:uuid:3164ae53-4ac1-473a-bc75-62812bd1a8d0",
      "resource": {
        "resourceType": "Observation",
        "id": "3164ae53-4ac1-473a-bc75-62812bd1a8d0",
        "meta": {
          "profile": [
            "http://hl7.eu/fhir/laboratory/StructureDefinition/Observation-resultslab-eu-lab"
          ]
        },
        "performer": [
          {
            "display": "The Central European Lab"
          }
        ],
        "category": [
          {
            "coding": [
              {
                "system": "http://terminology.hl7.org/CodeSystem/observation-category",
                "code": "laboratory"
              }
            ]
          }
        ],
        "code": {
          "coding": [
            {
              "code": "5794-3",
              "system": "http://loinc.org",
              "display": "Hemoglobin [Presence] in Urine by Test strip"
            }
          ],
          "text": "Hemoglobin [Presence] in Urine by Test strip"
        },
        "text": {
          "status": "generated",
          "div": "<div xmlns=\"http://www.w3.org/1999/xhtml\"><table class=\"hl7__eu__lab__report\"><tr><th>Test</th><th>19-Nov-2024</th><th>Reference&#xA0;Range</th><th>Unit</th></tr><tr><td>Hemoglobin [Presence] in Urine by Test strip</td></tr></table></div>"
        },
        "status": "final",
        "subject": {
          "reference": "urn:uuid:2b9dc153-018a-4001-926f-09408efa362d",
          "display": "Leonhard Köhler"
        },
        "effectiveDateTime": "2024-11-19T12:32:46Z"
      }
    },
    {
      "fullUrl": "urn:uuid:20ab5ff9-d37f-45b9-9bfa-6c572e7deb43",
      "resource": {
        "resourceType": "Observation",
        "id": "20ab5ff9-d37f-45b9-9bfa-6c572e7deb43",
        "meta": {
          "profile": [
            "http://hl7.eu/fhir/laboratory/StructureDefinition/Observation-resultslab-eu-lab"
          ]
        },
        "performer": [
          {
            "display": "The Central European Lab"
          }
        ],
        "category": [
          {
            "coding": [
              {
                "system": "http://terminology.hl7.org/CodeSystem/observation-category",
                "code": "laboratory"
              }
            ]
          }
        ],
        "code": {
          "coding": [
            {
              "code": "5799-2",
              "system": "http://loinc.org",
              "display": "Leukocyte esterase [Presence] in Urine by Test strip"
            }
          ],
          "text": "Leukocyte esterase [Presence] in Urine by Test strip"
        },
        "text": {
          "status": "generated",
          "div": "<div xmlns=\"http://www.w3.org/1999/xhtml\"><table class=\"hl7__eu__lab__report\"><tr><th>Test</th><th>19-Nov-2024</th><th>Reference&#xA0;Range</th><th>Unit</th></tr><tr><td>Leukocyte esterase [Presence] in Urine by Test strip</td></tr></table></div>"
        },
        "status": "final",
        "subject": {
          "reference": "urn:uuid:2b9dc153-018a-4001-926f-09408efa362d",
          "display": "Leonhard Köhler"
        },
        "effectiveDateTime": "2024-11-19T12:32:46Z"
      }
    },
    {
      "fullUrl": "urn:uuid:344ae55f-bea0-4054-82f7-7903284ca31c",
      "resource": {
        "resourceType": "Observation",
        "id": "344ae55f-bea0-4054-82f7-7903284ca31c",
        "meta": {
          "profile": [
            "http://hl7.eu/fhir/laboratory/StructureDefinition/Observation-resultslab-eu-lab"
          ]
        },
        "performer": [
          {
            "display": "The Central European Lab"
          }
        ],
        "category": [
          {
            "coding": [
              {
                "system": "http://terminology.hl7.org/CodeSystem/observation-category",
                "code": "laboratory"
              }
            ]
          }
        ],
        "code": {
          "coding": [
            {
              "code": "5821-4",
              "system": "http://loinc.org",
              "display": "Leukocytes [#/area] in Urine sediment by Microscopy high power field"
            }
          ],
          "text": "Leukocytes [#/area] in Urine sediment by Microscopy high power field"
        },
        "valueQuantity": {
          "system": "http://unitsofmeasure.org",
          "value": 44.4,
          "unit": "/[HPF]",
          "code": "/[HPF]"
        },
        "referenceRange": [
          {
            "low": {
              "value": 0,
              "code": "#/area",
              "system": "http://unitsofmeasure.org"
            }
          },
          {
            "high": {
              "value": 5,
              "code": "#/area",
              "system": "http://unitsofmeasure.org"
            }
          }
        ],
        "interpretation": [
          {
            "coding": [
              {
                "code": "H",
                "system": "http://terminology.hl7.org/CodeSystem/v3-ObservationInterpretation",
                "display": "High"
              }
            ]
          }
        ],
        "text": {
          "status": "generated",
          "div": "<div xmlns=\"http://www.w3.org/1999/xhtml\"><table class=\"hl7__eu__lab__report\"><tr><th>Test</th><th>19-Nov-2024</th><th>Reference&#xA0;Range</th><th>Unit</th></tr><tr><td>Leukocytes [#/area] in Urine sediment by Microscopy high power field</td><td>44.4</td><td>0 - 5</td><td>H</td><td>/[HPF]</td></tr></table></div>"
        },
        "status": "final",
        "subject": {
          "reference": "urn:uuid:2b9dc153-018a-4001-926f-09408efa362d",
          "display": "Leonhard Köhler"
        },
        "effectiveDateTime": "2024-11-19T12:32:46Z"
      }
    },
    {
      "fullUrl": "urn:uuid:79d1311a-f0c2-4b8b-bcf6-92b2382a6fc9",
      "resource": {
        "resourceType": "Observation",
        "id": "79d1311a-f0c2-4b8b-bcf6-92b2382a6fc9",
        "meta": {
          "profile": [
            "http://hl7.eu/fhir/laboratory/StructureDefinition/Observation-resultslab-eu-lab"
          ]
        },
        "performer": [
          {
            "display": "The Central European Lab"
          }
        ],
        "category": [
          {
            "coding": [
              {
                "system": "http://terminology.hl7.org/CodeSystem/observation-category",
                "code": "laboratory"
              }
            ]
          }
        ],
        "code": {
          "coding": [
            {
              "code": "13945-1",
              "system": "http://loinc.org",
              "display": "Erythrocytes [#/area] in Urine sediment by Microscopy high power field"
            }
          ],
          "text": "Erythrocytes [#/area] in Urine sediment by Microscopy high power field"
        },
        "valueQuantity": {
          "system": "http://unitsofmeasure.org",
          "value": 2,
          "unit": "/[HPF]",
          "code": "/[HPF]"
        },
        "referenceRange": [
          {
            "low": {
              "value": 0,
              "code": "[#/area]",
              "system": "http://unitsofmeasure.org"
            }
          },
          {
            "high": {
              "value": 5,
              "code": "[#/area]",
              "system": "http://unitsofmeasure.org"
            }
          }
        ],
        "text": {
          "status": "generated",
          "div": "<div xmlns=\"http://www.w3.org/1999/xhtml\"><table class=\"hl7__eu__lab__report\"><tr><th>Test</th><th>19-Nov-2024</th><th>Reference&#xA0;Range</th><th>Unit</th></tr><tr><td>Erythrocytes [#/area] in Urine sediment by Microscopy high power field</td><td>2.0</td><td>0 - 5</td><td></td><td>/[HPF]</td></tr></table></div>"
        },
        "status": "final",
        "subject": {
          "reference": "urn:uuid:2b9dc153-018a-4001-926f-09408efa362d",
          "display": "Leonhard Köhler"
        },
        "effectiveDateTime": "2024-11-19T12:32:46Z"
      }
    },
    {
      "fullUrl": "urn:uuid:34bf9223-5e1e-4cea-b94e-eb6bd6d0b868",
      "resource": {
        "resourceType": "Observation",
        "id": "34bf9223-5e1e-4cea-b94e-eb6bd6d0b868",
        "meta": {
          "profile": [
            "http://hl7.eu/fhir/laboratory/StructureDefinition/Observation-resultslab-eu-lab"
          ]
        },
        "performer": [
          {
            "display": "The Central European Lab"
          }
        ],
        "category": [
          {
            "coding": [
              {
                "system": "http://terminology.hl7.org/CodeSystem/observation-category",
                "code": "laboratory"
              }
            ]
          }
        ],
        "code": {
          "coding": [
            {
              "code": "5787-7",
              "system": "http://loinc.org",
              "display": "Epithelial cells [#/area] in Urine sediment by Microscopy high power field"
            }
          ],
          "text": "Epithelial cells [#/area] in Urine sediment by Microscopy high power field"
        },
        "valueQuantity": {
          "system": "http://unitsofmeasure.org",
          "value": 0.5,
          "unit": "/[HPF]",
          "code": "/[HPF]"
        },
        "referenceRange": [
          {
            "low": {
              "value": 0,
              "code": "#/area",
              "system": "http://unitsofmeasure.org"
            }
          },
          {
            "high": {
              "value": 5,
              "code": "#/area",
              "system": "http://unitsofmeasure.org"
            }
          }
        ],
        "text": {
          "status": "generated",
          "div": "<div xmlns=\"http://www.w3.org/1999/xhtml\"><table class=\"hl7__eu__lab__report\"><tr><th>Test</th><th>19-Nov-2024</th><th>Reference&#xA0;Range</th><th>Unit</th></tr><tr><td>Epithelial cells [#/area] in Urine sediment by Microscopy high power field</td><td>0.5</td><td>0 - 5</td><td></td><td>/[HPF]</td></tr></table></div>"
        },
        "status": "final",
        "subject": {
          "reference": "urn:uuid:2b9dc153-018a-4001-926f-09408efa362d",
          "display": "Leonhard Köhler"
        },
        "effectiveDateTime": "2024-11-19T12:32:46Z"
      }
    },
    {
      "fullUrl": "urn:uuid:71bb226c-e0fd-4f46-91a9-3f923869e8d4",
      "resource": {
        "resourceType": "Observation",
        "id": "71bb226c-e0fd-4f46-91a9-3f923869e8d4",
        "meta": {
          "profile": [
            "http://hl7.eu/fhir/laboratory/StructureDefinition/Observation-resultslab-eu-lab"
          ]
        },
        "performer": [
          {
            "display": "The Central European Lab"
          }
        ],
        "category": [
          {
            "coding": [
              {
                "system": "http://terminology.hl7.org/CodeSystem/observation-category",
                "code": "laboratory"
              }
            ]
          }
        ],
        "code": {
          "coding": [
            {
              "code": "24124-0",
              "system": "http://loinc.org",
              "display": "Casts [Presence] in Urine sediment by Light microscopy"
            }
          ],
          "text": "Casts [Presence] in Urine sediment by Light microscopy"
        },
        "text": {
          "status": "generated",
          "div": "<div xmlns=\"http://www.w3.org/1999/xhtml\"><table class=\"hl7__eu__lab__report\"><tr><th>Test</th><th>19-Nov-2024</th><th>Reference&#xA0;Range</th><th>Unit</th></tr><tr><td>Casts [Presence] in Urine sediment by Light microscopy</td></tr></table></div>"
        },
        "status": "final",
        "subject": {
          "reference": "urn:uuid:2b9dc153-018a-4001-926f-09408efa362d",
          "display": "Leonhard Köhler"
        },
        "effectiveDateTime": "2024-11-19T12:32:46Z"
      }
    },
    {
      "fullUrl": "urn:uuid:331116c2-68ea-43c8-af9b-1c566465bdff",
      "resource": {
        "resourceType": "Observation",
        "id": "331116c2-68ea-43c8-af9b-1c566465bdff",
        "meta": {
          "profile": [
            "http://hl7.eu/fhir/laboratory/StructureDefinition/Observation-resultslab-eu-lab"
          ]
        },
        "performer": [
          {
            "display": "The Central European Lab"
          }
        ],
        "category": [
          {
            "coding": [
              {
                "system": "http://terminology.hl7.org/CodeSystem/observation-category",
                "code": "laboratory"
              }
            ]
          }
        ],
        "code": {
          "coding": [
            {
              "code": "8247-9",
              "system": "http://loinc.org",
              "display": "Mucus [Presence] in Urine sediment by Light microscopy"
            }
          ],
          "text": "Mucus [Presence] in Urine sediment by Light microscopy"
        },
        "text": {
          "status": "generated",
          "div": "<div xmlns=\"http://www.w3.org/1999/xhtml\"><table class=\"hl7__eu__lab__report\"><tr><th>Test</th><th>19-Nov-2024</th><th>Reference&#xA0;Range</th><th>Unit</th></tr><tr><td>Mucus [Presence] in Urine sediment by Light microscopy</td></tr></table></div>"
        },
        "status": "final",
        "subject": {
          "reference": "urn:uuid:2b9dc153-018a-4001-926f-09408efa362d",
          "display": "Leonhard Köhler"
        },
        "effectiveDateTime": "2024-11-19T12:32:46Z"
      }
    },
    {
      "fullUrl": "urn:uuid:054151ca-6389-4b99-99ca-41b83c5de034",
      "resource": {
        "resourceType": "Observation",
        "id": "054151ca-6389-4b99-99ca-41b83c5de034",
        "meta": {
          "profile": [
            "http://hl7.eu/fhir/laboratory/StructureDefinition/Observation-resultslab-eu-lab"
          ]
        },
        "performer": [
          {
            "display": "The Central European Lab"
          }
        ],
        "category": [
          {
            "coding": [
              {
                "system": "http://terminology.hl7.org/CodeSystem/observation-category",
                "code": "laboratory"
              }
            ]
          }
        ],
        "code": {
          "coding": [
            {
              "code": "5769-5",
              "system": "http://loinc.org",
              "display": "Bacteria [#/area] in Urine sediment by Microscopy high power field"
            }
          ],
          "text": "Bacteria [#/area] in Urine sediment by Microscopy high power field"
        },
        "text": {
          "status": "generated",
          "div": "<div xmlns=\"http://www.w3.org/1999/xhtml\"><table class=\"hl7__eu__lab__report\"><tr><th>Test</th><th>19-Nov-2024</th><th>Reference&#xA0;Range</th><th>Unit</th></tr><tr><td>Bacteria [#/area] in Urine sediment by Microscopy high power field</td></tr></table></div>"
        },
        "status": "final",
        "subject": {
          "reference": "urn:uuid:2b9dc153-018a-4001-926f-09408efa362d",
          "display": "Leonhard Köhler"
        },
        "effectiveDateTime": "2024-11-19T12:32:46Z"
      }
    },
    {
      "fullUrl": "urn:uuid:8d11d272-3caa-4089-8dc3-d90001301be5",
      "resource": {
        "resourceType": "Observation",
        "id": "8d11d272-3caa-4089-8dc3-d90001301be5",
        "meta": {
          "profile": [
            "http://hl7.eu/fhir/laboratory/StructureDefinition/Observation-resultslab-eu-lab"
          ]
        },
        "performer": [
          {
            "display": "The Central European Lab"
          }
        ],
        "category": [
          {
            "coding": [
              {
                "system": "http://terminology.hl7.org/CodeSystem/observation-category",
                "code": "laboratory"
              }
            ]
          }
        ],
        "code": {
          "coding": [
            {
              "code": "630-4",
              "system": "http://loinc.org",
              "display": "Bacteria identified in Urine by Culture"
            }
          ],
          "text": "Bacteria identified in Urine by Culture"
        },
        "text": {
          "status": "generated",
          "div": "<div xmlns=\"http://www.w3.org/1999/xhtml\"><table class=\"hl7__eu__lab__report\"><tr><th>Test</th><th>19-Nov-2024</th><th>Reference&#xA0;Range</th><th>Unit</th></tr><tr><td>Bacteria identified in Urine by Culture</td></tr></table></div>"
        },
        "status": "final",
        "subject": {
          "reference": "urn:uuid:2b9dc153-018a-4001-926f-09408efa362d",
          "display": "Leonhard Köhler"
        },
        "effectiveDateTime": "2024-11-19T12:32:46Z"
      }
    },
    {
      "fullUrl": "urn:uuid:7d324f1b-8600-4eea-84ca-3747d22c709c",
      "resource": {
        "resourceType": "DeviceUseStatement",
        "id": "7d324f1b-8600-4eea-84ca-3747d22c709c",
        "meta": {
          "profile": [
            "http://hl7.eu/fhir/eps/StructureDefinition/deviceUseStatement-eu-eps"
          ]
        },
        "timingPeriod": {
          "start": "2003-09-09"
        },
        "text": {
          "status": "generated",
          "div": "<div xmlns=\"http://www.w3.org/1999/xhtml\"><table class=\"hl7__ips\"><tr><td>Manual wheelchair (physical object)</td><td><span class=\"nb\">09-Sep-2003</span></td></tr></table></div>"
        },
        "status": "active",
        "device": {
          "reference": "urn:uuid:e2654b88-7d95-4166-adb3-864df65c41d2",
          "display": "Manual wheelchair (physical object)"
        },
        "subject": {
          "reference": "urn:uuid:2b9dc153-018a-4001-926f-09408efa362d",
          "display": "Leonhard Köhler"
        }
      }
    },
    {
      "fullUrl": "urn:uuid:e2654b88-7d95-4166-adb3-864df65c41d2",
      "resource": {
        "resourceType": "Device",
        "id": "e2654b88-7d95-4166-adb3-864df65c41d2",
        "meta": {
          "profile": [
            "http://hl7.eu/fhir/eps/StructureDefinition/device-eu-eps"
          ]
        },
        "udiCarrier": [
          {
            "id": "(01)70663183357609(11)030819(17)280902(10)143535581(21)246111"
          }
        ],
        "status": "active",
        "patient": {
          "reference": "urn:uuid:2b9dc153-018a-4001-926f-09408efa362d",
          "display": "Leonhard Köhler"
        },
        "type": {
          "coding": [
            {
              "code": "228869008",
              "system": "http://snomed.info/sct",
              "display": "Manual wheelchair (physical object)"
            }
          ]
        }
      }
    },
    {
      "fullUrl": "urn:uuid:c6a81dcd-930c-43f0-aab7-0bcee72edab1",
      "resource": {
        "resourceType": "DeviceUseStatement",
        "id": "c6a81dcd-930c-43f0-aab7-0bcee72edab1",
        "meta": {
          "profile": [
            "http://hl7.eu/fhir/eps/StructureDefinition/deviceUseStatement-eu-eps"
          ]
        },
        "timingPeriod": {
          "start": "2003-09-09"
        },
        "text": {
          "status": "generated",
          "div": "<div xmlns=\"http://www.w3.org/1999/xhtml\"><table class=\"hl7__ips\"><tr><td>Wheelchair accessory (physical object)</td><td><span class=\"nb\">09-Sep-2003</span></td></tr></table></div>"
        },
        "status": "active",
        "device": {
          "reference": "urn:uuid:f45f2884-1878-4175-b844-693491e4c949",
          "display": "Wheelchair accessory (physical object)"
        },
        "subject": {
          "reference": "urn:uuid:2b9dc153-018a-4001-926f-09408efa362d",
          "display": "Leonhard Köhler"
        }
      }
    },
    {
      "fullUrl": "urn:uuid:f45f2884-1878-4175-b844-693491e4c949",
      "resource": {
        "resourceType": "Device",
        "id": "f45f2884-1878-4175-b844-693491e4c949",
        "meta": {
          "profile": [
            "http://hl7.eu/fhir/eps/StructureDefinition/device-eu-eps"
          ]
        },
        "udiCarrier": [
          {
            "id": "(01)23149141006049(11)030819(17)280902(10)103481(21)35258792016208931"
          }
        ],
        "status": "active",
        "patient": {
          "reference": "urn:uuid:2b9dc153-018a-4001-926f-09408efa362d",
          "display": "Leonhard Köhler"
        },
        "type": {
          "coding": [
            {
              "code": "705417005",
              "system": "http://snomed.info/sct",
              "display": "Wheelchair accessory (physical object)"
            }
          ]
        }
      }
    },
    {
      "fullUrl": "urn:uuid:140c1490-c279-4f0a-8e25-f0cde69bd4d2",
      "resource": {
        "resourceType": "DeviceUseStatement",
        "id": "140c1490-c279-4f0a-8e25-f0cde69bd4d2",
        "meta": {
          "profile": [
            "http://hl7.eu/fhir/eps/StructureDefinition/deviceUseStatement-eu-eps"
          ]
        },
        "timingPeriod": {
          "start": "1971-07-09"
        },
        "text": {
          "status": "generated",
          "div": "<div xmlns=\"http://www.w3.org/1999/xhtml\"><table class=\"hl7__ips\"><tr><td>Blood glucose meter (physical object)</td><td><span class=\"nb\">09-Jul-1971</span></td></tr></table></div>"
        },
        "status": "active",
        "device": {
          "reference": "urn:uuid:37fa5d7c-e141-49fa-97eb-52a354ef802c",
          "display": "Blood glucose meter (physical object)"
        },
        "subject": {
          "reference": "urn:uuid:2b9dc153-018a-4001-926f-09408efa362d",
          "display": "Leonhard Köhler"
        }
      }
    },
    {
      "fullUrl": "urn:uuid:37fa5d7c-e141-49fa-97eb-52a354ef802c",
      "resource": {
        "resourceType": "Device",
        "id": "37fa5d7c-e141-49fa-97eb-52a354ef802c",
        "meta": {
          "profile": [
            "http://hl7.eu/fhir/eps/StructureDefinition/device-eu-eps"
          ]
        },
        "udiCarrier": [
          {
            "id": "(01)75427931722607(11)710618(17)960702(10)2638659220821773(21)3665252"
          }
        ],
        "status": "active",
        "patient": {
          "reference": "urn:uuid:2b9dc153-018a-4001-926f-09408efa362d",
          "display": "Leonhard Köhler"
        },
        "type": {
          "coding": [
            {
              "code": "337414009",
              "system": "http://snomed.info/sct",
              "display": "Blood glucose meter (physical object)"
            }
          ]
        }
      }
    },
    {
      "fullUrl": "urn:uuid:a8b15a07-ce11-492e-930f-964a16d85da7",
      "resource": {
        "resourceType": "Device",
        "id": "a8b15a07-ce11-492e-930f-964a16d85da7",
        "deviceName": [
          {
            "name": "SYNDERAI Synthetic Generator",
            "type": "manufacturer-name"
          }
        ],
        "version": [
          {
            "value": "5.0"
          }
        ],
        "text": {
          "status": "generated",
          "div": "<div xmlns=\"http://www.w3.org/1999/xhtml\">SYNDERAI Synthetic Generator v5.0</div>"
        },
        "status": "active\"",
        "distinctIdentifier": "synderai-generator-50",
        "manufacturer": "SYNDERAI Project"
      }
    },
    {
      "fullUrl": "urn:uuid:36b5de03-d57f-41cf-8220-5c87264e9223",
      "resource": {
        "resourceType": "Provenance",
        "id": "36b5de03-d57f-41cf-8220-5c87264e9223",
        "target": [
          {
            "reference": "Patient/2b9dc153-018a-4001-926f-09408efa362d"
          },
          {
            "reference": "Bundle/53c5821c-387a-4133-bbe0-a23a0d3b09ea"
          },
          {
            "reference": "Composition/ab10b12a-88ea-4c81-a890-ddcc8a75f437"
          },
          {
            "reference": "PractitionerRole/3330614f-d755-4c80-b05b-249f2010b550"
          },
          {
            "reference": "Organization/23ab459a-81c1-4695-844b-fee01e4867f5"
          },
          {
            "reference": "Practitioner/59201f32-3685-4641-a0fa-77f3cff51135"
          }
        ],
        "activity": {
          "text": "Synthetic Example Data Generation"
        },
        "policy": [
          "https://synderai.net/synderai-synthetic-data-policy"
        ],
        "agent": [
          {
            "type": {
              "text": "author"
            },
            "who": {
              "reference": "Device/a8b15a07-ce11-492e-930f-964a16d85da7"
            }
          }
        ],
        "reason": [
          {
            "text": "Interoperability Testing and Training (non-clinical use)"
          }
        ],
        "text": {
          "status": "generated",
          "div": "<div xmlns=\"http://www.w3.org/1999/xhtml\">Provenance for SYNDERAI Synthetic Example Data Resource</div>"
        },
        "recorded": "2024-11-19T12:32:46Z"
      }
    }
  ],
  "type": "document",
  "timestamp": "2024-11-19T12:32:46Z"
}
