{
  "resourceType": "Bundle",
  "id": "afc6d4e0-9fe9-495d-b5bb-88ebc9a579e0",
  "meta": {
    "profile": [
      "http://hl7.eu/fhir/eps/StructureDefinition/bundle-eu-eps"
    ]
  },
  "identifier": {
    "assigner": {
      "display": "HL7 Europe"
    },
    "system": "urn:oid:2.16.840.1.113883.2.51.999",
    "value": "6aa9098e-0421-4bd6-92f6-35f3e43e9956"
  },
  "entry": [
    {
      "fullUrl": "urn:uuid:82dc2661-f15b-49bb-9863-96089f2302ec",
      "resource": {
        "resourceType": "Composition",
        "id": "82dc2661-f15b-49bb-9863-96089f2302ec",
        "meta": {
          "security": [
            {
              "system": "http://terminology.hl7.org/CodeSystem/v3-ActReason",
              "code": "HTEST"
            },
            {
              "system": "http://terminology.hl7.org/CodeSystem/v3-ActReason",
              "code": "TRAIN"
            }
          ],
          "tag": [
            {
              "system": "https://synderai.net/fhir/CodeSystem/tags",
              "code": "synthetic",
              "display": "SYNDERAI Synthetic data"
            }
          ],
          "profile": [
            "http://hl7.eu/fhir/eps/StructureDefinition/composition-eu-eps"
          ]
        },
        "identifier": {
          "assigner": {
            "display": "HL7 Europe"
          },
          "system": "urn:oid:2.16.840.1.113883.2.51.999",
          "value": "2540f35a-bf36-4f32-a6f1-c1d6da645b00"
        },
        "type": {
          "coding": [
            {
              "system": "http://loinc.org",
              "code": "60591-5",
              "display": "Patient summary Document"
            }
          ],
          "text": "Patient summary Document"
        },
        "author": [
          {
            "reference": "urn:uuid:c487d159-49f2-4bed-bc00-e7430bd5ad33"
          }
        ],
        "section": [
          {
            "text": {
              "status": "generated",
              "div": "<div xmlns=\"http://www.w3.org/1999/xhtml\"><table class=\"hl7__ips\"><tr><th>Condition</th><th>Onset Date</th><th>Status</th></tr><tr><td>Chronic sinusitis</td><td><span class=\"nb\">12-Feb-2025</span></td><td>active</td></tr></table></div>"
            },
            "entry": [
              {
                "reference": "urn:uuid:b0d7af2e-fe8a-493b-bae3-e8d51c3c5316"
              }
            ],
            "code": {
              "coding": [
                {
                  "system": "http://loinc.org",
                  "code": "11450-4",
                  "display": "Problem list - Reported"
                }
              ]
            },
            "title": "Problem list"
          },
          {
            "text": {
              "status": "generated"
            },
            "entry": [
              {
                "reference": "urn:uuid:4a97bc72-a481-4216-80cf-8c38a515966a"
              },
              {
                "reference": "urn:uuid:4a97bc72-a481-4216-80cf-8c38a515966a"
              }
            ],
            "code": {
              "coding": [
                {
                  "system": "http://loinc.org",
                  "code": "10160-0",
                  "display": "History of Medication use Narrative"
                }
              ]
            },
            "title": "Medication list"
          },
          {
            "text": {
              "status": "generated",
              "div": "<div xmlns=\"http://www.w3.org/1999/xhtml\"><table class=\"hl7__ips\"><tr><th>Vaccine</th><th>Date</th></tr><tr><td>Influenza virus antigen only vaccine product</td><td><span class=\"nb\">08-Mar-2025</span></td></tr><tr><td>SARS-CoV-2 mRNA vaccine</td><td><span class=\"nb\">10-Apr-2021</span></td></tr><tr><td>Hepatitis B virus antigen only vaccine product</td><td><span class=\"nb\">18-Aug-2018</span></td></tr><tr><td>Clostridium tetani toxoid antigen adsorbed only vaccine product</td><td><span class=\"nb\">18-Aug-2018</span></td></tr><tr><td>Neisseria meningitidis antigen-containing vaccine product</td><td><span class=\"nb\">18-Aug-2018</span></td></tr></table></div>"
            },
            "entry": [
              {
                "reference": "urn:uuid:d51999e7-ae48-46e4-9d6c-dc4ec53a56b1"
              },
              {
                "reference": "urn:uuid:c19b40cc-210b-4634-8edd-6149e740d1e8"
              },
              {
                "reference": "urn:uuid:2ff94349-0911-447e-a288-317fc05a191a"
              },
              {
                "reference": "urn:uuid:822db264-581b-436a-aebd-af6521d4ce0b"
              },
              {
                "reference": "urn:uuid:80e32aef-0d8f-4c5f-8faa-fcff773c202c"
              }
            ],
            "code": {
              "coding": [
                {
                  "system": "http://loinc.org",
                  "code": "11369-6",
                  "display": "History of Immunization note"
                }
              ]
            },
            "title": "Immunizations list"
          },
          {
            "text": {
              "status": "generated",
              "div": "<div xmlns=\"http://www.w3.org/1999/xhtml\"><table class=\"hl7__ips\"><tr><th>Allergy/Intolerance</th><th>Onset Date</th><th>Status</th><th>Type</th><th>Reaction</th></tr><tr><td>Vaccine product containing Neisseria meningitidis antigen</td><td>?</td><td>active</td><td>?</td><td></td></tr></table></div>"
            },
            "entry": [
              {
                "reference": "urn:uuid:8a06531d-01cc-44f1-836b-edccf0776a0e"
              }
            ],
            "code": {
              "coding": [
                {
                  "system": "http://loinc.org",
                  "code": "48765-2",
                  "display": "Allergies and adverse reactions Document"
                }
              ]
            },
            "title": "Allergies and Intolerances"
          },
          {
            "text": {
              "status": "generated",
              "div": "<div xmlns=\"http://www.w3.org/1999/xhtml\"><table class=\"hl7__ips\"><tr><th>Active Planned Care / Goals</th><th>Start Date</th><th>Reason</th></tr><tr><td>Respiratory therapy</td><td><span class=\"nb\">15-Mar-2025</span></td><td>-</td></tr></table></div>"
            },
            "entry": [
              {
                "reference": "urn:uuid:045d39d5-993c-42c6-b66d-9b6065438445"
              }
            ],
            "code": {
              "coding": [
                {
                  "system": "http://loinc.org",
                  "code": "18776-5",
                  "display": "Plan of care note"
                }
              ]
            },
            "title": "Care Plan"
          },
          {
            "text": {
              "status": "generated",
              "div": "<div xmlns=\"http://www.w3.org/1999/xhtml\"><table class=\"hl7__ips\"><tr><th>Vital Signs</th><th>2025-03-08</th><th>2025-02-22</th></tr><tr><td>Body Height</td><td>187.9 cm</td><td>187.9 cm</td></tr><tr><td>Pain severity - 0-10 verbal numeric rating [Score] - Reported</td><td>0 {score}</td><td>2 {score}</td></tr><tr><td>Body Weight</td><td>97.2 kg</td><td>97.2 kg</td></tr><tr><td>Body mass index (BMI) [Ratio]</td><td>27.5 kg/m2</td><td>27.5 kg/m2</td></tr><tr><td>Diastolic Blood Pressure</td><td>73 mm[Hg]</td><td>70 mm[Hg]</td></tr><tr><td>Systolic Blood Pressure</td><td>133 mm[Hg]</td><td>136 mm[Hg]</td></tr><tr><td>Heart rate</td><td>82 /min</td><td>96 /min</td></tr><tr><td>Respiratory rate</td><td>14 /min</td><td>14 /min</td></tr></table></div>"
            },
            "entry": [
              {
                "reference": "urn:uuid:94014cf6-369f-44cd-a8f9-901b77100e40"
              },
              {
                "reference": "urn:uuid:cdcc2cf3-33c6-432d-bc10-5cf144654da6"
              },
              {
                "reference": "urn:uuid:4ba495d0-6a10-4e1a-b2f5-45527554d6e7"
              },
              {
                "reference": "urn:uuid:ce28532e-3a72-46ef-856b-f22a930158c9"
              },
              {
                "reference": "urn:uuid:9ce959ab-6e26-4dee-9f06-5a854f53c5d2"
              },
              {
                "reference": "urn:uuid:cf902e70-535c-4664-b11e-7d7df9772ea1"
              },
              {
                "reference": "urn:uuid:d6559d42-563a-4ca4-8099-4fd19c779234"
              },
              {
                "reference": "urn:uuid:77d4b8ef-eed4-40f4-8ab1-280b649120d7"
              },
              {
                "reference": "urn:uuid:354fa679-8f81-4465-9a96-7329747f1a4b"
              },
              {
                "reference": "urn:uuid:02dbc6d3-72da-4caf-9c9d-c8b7a6c9fcf1"
              },
              {
                "reference": "urn:uuid:b936720a-493e-4130-b102-69a69efc3013"
              },
              {
                "reference": "urn:uuid:734bf9d2-3979-472c-a378-2790fbb04705"
              },
              {
                "reference": "urn:uuid:7b853e27-e6c6-42e4-a534-3ec266015df5"
              },
              {
                "reference": "urn:uuid:2b4defbe-97fe-41e0-854f-310cbc3f3858"
              },
              {
                "reference": "urn:uuid:9d73725a-4deb-4dd6-b5ff-82eb823b7d5b"
              },
              {
                "reference": "urn:uuid:0d90295e-8d51-40a3-832c-8e3cbd000a41"
              }
            ],
            "code": {
              "coding": [
                {
                  "system": "http://loinc.org",
                  "code": "8716-3",
                  "display": "Vital signs note"
                }
              ]
            },
            "title": "Vital Signs"
          },
          {
            "text": {
              "status": "generated",
              "div": "<div xmlns=\"http://www.w3.org/1999/xhtml\"><table class=\"hl7__ips\"><table class=\"hl7__ips\"><thead><tr><th>Recent Lab Observations</th><th>24-AUG-2024</th><th>Reference&#xA0;Range</th><th>Unit</th></tr></thead><tbody><tr><td>Leukocytes [#/volume] in Blood by Automated count</td><td>4.4</td><td>3.5 - 10.5</td><td>10*3/uL</td></tr><tr><td>Erythrocytes [#/volume] in Blood by Automated count</td><td><strong>3.9 L</strong></td><td>4.5 - 6.2</td><td>10*6/uL</td></tr><tr><td>Hemoglobin [Mass/volume] in Blood</td><td><strong>13.3 L</strong></td><td>14 - 18</td><td>g/dL</td></tr><tr><td>Hematocrit [Volume Fraction] of Blood by Automated count</td><td>48.7</td><td>42 - 52</td><td>%</td></tr><tr><td>MCV [Entitic volume] by Automated count</td><td>87.1</td><td>82 - 98</td><td>fL</td></tr><tr><td>MCH [Entitic mass] by Automated count</td><td>27.3</td><td>27 - 33.4</td><td>pg</td></tr><tr><td>MCHC [Mass/volume] by Automated count</td><td>34.0</td><td>31 - 37</td><td>g/dL</td></tr><tr><td>Erythrocyte distribution width [Entitic volume] by Automated count</td><td>40.2</td><td>35 - 55</td><td>fL</td></tr><tr><td>Platelets [#/volume] in Blood by Automated count</td><td>419.9</td><td>150 - 450</td><td>10*3/uL</td></tr><tr><td>Platelet distribution width [Entitic volume] in Blood by Automated count</td><td><strong>317.9 H</strong></td><td>13.4 - 17.4</td><td>fL</td></tr><tr><td>Platelet mean volume [Entitic volume] in Blood by Automated count</td><td>11.4</td><td>7.2 - 13.8</td><td>fL</td></tr></tbody></table></table></div>"
            },
            "entry": [
              {
                "reference": "urn:uuid:9e296960-1a6a-4b71-8fc4-ef4b1cb96b47"
              },
              {
                "reference": "urn:uuid:9b3f2c46-c709-4e3c-83c8-49512001914f"
              },
              {
                "reference": "urn:uuid:9c3643ae-03c3-4cdb-aaad-f7f36e26b97b"
              },
              {
                "reference": "urn:uuid:f30eedaf-4eba-48dc-a8e8-0139d56c456b"
              },
              {
                "reference": "urn:uuid:f18c88d5-e529-4764-b567-316c077e65c2"
              },
              {
                "reference": "urn:uuid:c3aa1a13-62a0-4bfe-8739-646f64817338"
              },
              {
                "reference": "urn:uuid:e2bc8037-1da7-403f-a3c0-c647d89d4b95"
              },
              {
                "reference": "urn:uuid:78581532-7cc4-4726-b651-cc9d0eed2b97"
              },
              {
                "reference": "urn:uuid:fdca4d98-abf1-4d0b-8b87-330e018df492"
              },
              {
                "reference": "urn:uuid:b433bb2c-e64e-414a-9e2c-ff80d2fff912"
              },
              {
                "reference": "urn:uuid:4bea9f6c-3be8-49a0-84f0-af1d641d01fc"
              }
            ],
            "code": {
              "coding": [
                {
                  "system": "http://loinc.org",
                  "code": "30954-2",
                  "display": "Relevant diagnostic tests/laboratory data note"
                }
              ]
            },
            "title": "Relevant diagnostic tests/laboratory data"
          },
          {
            "text": {
              "status": "generated",
              "div": "<div xmlns=\"http://www.w3.org/1999/xhtml\"><table class=\"hl7__ips\"><tr><th>Device</th><th>Date (since)</th></tr><tr><td>Home nebulizer (physical object)</td><td><span class=\"nb\">12-Feb-2025</span></td></tr></table></div>"
            },
            "entry": [
              {
                "reference": "urn:uuid:8e39a3ea-ce93-45f8-9502-7fa09fe2240c"
              }
            ],
            "code": {
              "coding": [
                {
                  "system": "http://loinc.org",
                  "code": "46264-8",
                  "display": "History of medical device use"
                }
              ]
            },
            "title": "Device Use"
          }
        ],
        "title": "European Patient Summary",
        "status": "final",
        "subject": {
          "reference": "urn:uuid:a3f8f421-e9aa-4800-b1bb-7539f7761f94",
          "display": "Ondrej Machová"
        },
        "custodian": {
          "reference": "urn:uuid:0514afe5-bd5a-4dad-b12f-cca31082372e"
        },
        "date": "2024-08-24",
        "confidentiality": "N"
      }
    },
    {
      "fullUrl": "urn:uuid:a3f8f421-e9aa-4800-b1bb-7539f7761f94",
      "resource": {
        "resourceType": "Patient",
        "id": "a3f8f421-e9aa-4800-b1bb-7539f7761f94",
        "meta": {
          "security": [
            {
              "system": "http://terminology.hl7.org/CodeSystem/v3-ActReason",
              "code": "HTEST"
            },
            {
              "system": "http://terminology.hl7.org/CodeSystem/v3-ActReason",
              "code": "TRAIN"
            }
          ],
          "tag": [
            {
              "system": "https://synderai.net/fhir/CodeSystem/tags",
              "code": "synthetic",
              "display": "SYNDERAI Synthetic data"
            }
          ],
          "profile": [
            "http://hl7.eu/fhir/eps/StructureDefinition/patient-eu-eps"
          ]
        },
        "identifier": [
          {
            "type": {
              "coding": [
                {
                  "code": "PT",
                  "system": "http://terminology.hl7.org/CodeSystem/v2-0203"
                }
              ]
            },
            "system": "http://ec.europa.eu/identifier/eci",
            "value": "8798-429370-1"
          },
          {
            "type": {
              "coding": [
                {
                  "code": "MR",
                  "system": "http://terminology.hl7.org/CodeSystem/v2-0203"
                }
              ]
            },
            "system": "http://local.setting.eu/identifier",
            "value": "2b8bf475-e001-39fc-9880-7b5894bf6991"
          }
        ],
        "name": [
          {
            "family": "Machová"
          },
          {
            "given": [
              "Ondrej"
            ]
          },
          {
            "text": "Ondrej Machová"
          }
        ],
        "address": [
          {
            "line": [
              "Staromestská 5"
            ],
            "use": "home",
            "type": "physical",
            "postalCode": "95103",
            "city": "Hrušov",
            "country": "Slovakia"
          }
        ],
        "telecom": [
          {
            "system": "phone",
            "value": "00421 944 296 102"
          }
        ],
        "extension": [
          {
            "url": "http://hl7.org/fhir/StructureDefinition/patient-nationality",
            "valueCodeableConcept": {
              "coding": [
                {
                  "code": "SK",
                  "system": "http://hl7.org/fhir/ValueSet/country"
                }
              ]
            }
          }
        ],
        "text": {
          "status": "generated",
          "div": "<div xmlns=\"http://www.w3.org/1999/xhtml\"><table class=\"hl7__ips\"><tr><td>Ondrej Machová</td><td>male</td><td>31-Jul-1997</td></tr></table></div>"
        },
        "gender": "male",
        "birthDate": "1997-07-31"
      }
    },
    {
      "fullUrl": "urn:uuid:c487d159-49f2-4bed-bc00-e7430bd5ad33",
      "resource": {
        "resourceType": "PractitionerRole",
        "id": "c487d159-49f2-4bed-bc00-e7430bd5ad33",
        "meta": {
          "profile": [
            "http://hl7.eu/fhir/base/StructureDefinition/practitionerRole-eu"
          ]
        },
        "text": {
          "status": "generated",
          "div": "<div xmlns=\"http://www.w3.org/1999/xhtml\"><table class=\"hl7__ips\">Provider Role Id c487d159-49f2-4bed-bc00-e7430bd5ad33</table></div>"
        },
        "practitioner": {
          "reference": "urn:uuid:fa84e429-c8d0-4744-8648-0bf3e5f5dc75"
        },
        "organization": {
          "reference": "urn:uuid:0514afe5-bd5a-4dad-b12f-cca31082372e"
        }
      }
    },
    {
      "fullUrl": "urn:uuid:fa84e429-c8d0-4744-8648-0bf3e5f5dc75",
      "resource": {
        "resourceType": "Practitioner",
        "id": "fa84e429-c8d0-4744-8648-0bf3e5f5dc75",
        "meta": {
          "profile": [
            "http://hl7.eu/fhir/base/StructureDefinition/practitioner-eu"
          ]
        },
        "name": [
          {
            "prefix": [
              "Dr."
            ],
            "given": [
              "Hel"
            ],
            "family": "Ping"
          }
        ],
        "text": {
          "status": "generated",
          "div": "<div xmlns=\"http://www.w3.org/1999/xhtml\"><table class=\"hl7__ips\">Dr. Hel Ping</table></div>"
        }
      }
    },
    {
      "fullUrl": "urn:uuid:0514afe5-bd5a-4dad-b12f-cca31082372e",
      "resource": {
        "resourceType": "Organization",
        "id": "0514afe5-bd5a-4dad-b12f-cca31082372e",
        "meta": {
          "profile": [
            "http://hl7.eu/fhir/base/StructureDefinition/organization-eu"
          ]
        },
        "identifier": [
          {
            "assigner": {
              "display": "HL7 Europe"
            },
            "system": "urn:oid:2.16.840.1.113883.2.51.999",
            "value": "0ccc2800-4b85-46aa-a9ba-13eb37949e78"
          }
        ],
        "address": [
          {
            "city": "Kremnica",
            "postalCode": "967 01",
            "country": "Slovakia"
          }
        ],
        "text": {
          "status": "generated",
          "div": "<div xmlns=\"http://www.w3.org/1999/xhtml\"><table class=\"hl7__ips\">Územná poliklinika</table></div>"
        },
        "name": "Územná poliklinika"
      }
    },
    {
      "fullUrl": "urn:uuid:b0d7af2e-fe8a-493b-bae3-e8d51c3c5316",
      "resource": {
        "resourceType": "Condition",
        "id": "b0d7af2e-fe8a-493b-bae3-e8d51c3c5316",
        "meta": {
          "profile": [
            "http://hl7.org/fhir/uv/ips/StructureDefinition/Condition-uv-ips"
          ]
        },
        "category": [
          {
            "coding": [
              {
                "code": "problem-list-item",
                "system": "http://terminology.hl7.org/CodeSystem/condition-category",
                "display": "Problem List Item"
              }
            ]
          }
        ],
        "code": {
          "coding": [
            {
              "code": "40055000",
              "system": "http://snomed.info/sct",
              "display": "Chronic sinusitis (disorder)"
            }
          ],
          "text": "Chronic sinusitis"
        },
        "text": {
          "status": "generated",
          "div": "<div xmlns=\"http://www.w3.org/1999/xhtml\"><table class=\"hl7__ips\"><tr><td>Chronic sinusitis</td><td><span class=\"nb\">12-Feb-2025</span></td><td>active</td></tr></table></div>"
        },
        "onsetDateTime": "2025-02-12",
        "subject": {
          "reference": "urn:uuid:",
          "display": "Ondrej Machová"
        },
        "asserter": {
          "reference": "urn:uuid:",
          "display": "Územná poliklinika"
        }
      }
    },
    {
      "fullUrl": "urn:uuid:39730d48-ae12-49d0-b13f-b0bd32f9111b",
      "resource": {
        "resourceType": "Condition",
        "id": "39730d48-ae12-49d0-b13f-b0bd32f9111b",
        "meta": {
          "profile": [
            "http://hl7.org/fhir/uv/ips/StructureDefinition/Condition-uv-ips"
          ]
        },
        "category": [
          {
            "coding": [
              {
                "code": "problem-list-item",
                "system": "http://terminology.hl7.org/CodeSystem/condition-category",
                "display": "Problem List Item"
              }
            ]
          }
        ],
        "code": {
          "coding": [
            {
              "code": "10509002",
              "system": "http://snomed.info/sct",
              "display": "Acute bronchitis (disorder)"
            }
          ],
          "text": "Acute bronchitis"
        },
        "text": {
          "status": "generated",
          "div": "<div xmlns=\"http://www.w3.org/1999/xhtml\"><table class=\"hl7__ips\"><tr><td><span class=\"grayedout\">Acute bronchitis</span></td><td><span class=\"nb\">15-Mar-2025 - 26-Mar-2025</span></td><td><span class=\"grayedout\">inactive</span></td></tr></table></div>"
        },
        "onsetDateTime": "2025-03-15",
        "abatementDateTime": "2025-03-26",
        "subject": {
          "reference": "urn:uuid:",
          "display": "Ondrej Machová"
        },
        "asserter": {
          "reference": "urn:uuid:",
          "display": "Územná poliklinika"
        }
      }
    },
    {
      "fullUrl": "urn:uuid:455b5048-6862-4892-bb40-016bef66319d",
      "resource": {
        "resourceType": "Condition",
        "id": "455b5048-6862-4892-bb40-016bef66319d",
        "meta": {
          "profile": [
            "http://hl7.org/fhir/uv/ips/StructureDefinition/Condition-uv-ips"
          ]
        },
        "category": [
          {
            "coding": [
              {
                "code": "problem-list-item",
                "system": "http://terminology.hl7.org/CodeSystem/condition-category",
                "display": "Problem List Item"
              }
            ]
          }
        ],
        "code": {
          "coding": [
            {
              "code": "75498004",
              "system": "http://snomed.info/sct",
              "display": "Acute bacterial sinusitis (disorder)"
            }
          ],
          "text": "Acute bacterial sinusitis"
        },
        "text": {
          "status": "generated",
          "div": "<div xmlns=\"http://www.w3.org/1999/xhtml\"><table class=\"hl7__ips\"><tr><td><span class=\"grayedout\">Acute bacterial sinusitis</span></td><td><span class=\"nb\">30-Aug-2024 - 26-Feb-2025</span></td><td><span class=\"grayedout\">inactive</span></td></tr></table></div>"
        },
        "onsetDateTime": "2024-08-30",
        "abatementDateTime": "2025-02-26",
        "subject": {
          "reference": "urn:uuid:",
          "display": "Ondrej Machová"
        },
        "asserter": {
          "reference": "urn:uuid:",
          "display": "Územná poliklinika"
        }
      }
    },
    {
      "fullUrl": "urn:uuid:4a97bc72-a481-4216-80cf-8c38a515966a",
      "resource": {
        "resourceType": "MedicationStatement",
        "id": "4a97bc72-a481-4216-80cf-8c38a515966a",
        "meta": {
          "profile": [
            "http://hl7.eu/fhir/eps/StructureDefinition/MedicationStatement-eu-eps"
          ]
        },
        "effectivePeriod": {
          "extension": [
            {
              "url": "http://hl7.org/fhir/StructureDefinition/data-absent-reason",
              "valueCode": "unknown"
            }
          ]
        },
        "status": "active",
        "medicationCodeableConcept": {
          "coding": [
            {
              "code": "787481004",
              "system": "http://snomed.info/sct",
              "display": "No known medications (situation)"
            }
          ]
        },
        "subject": {
          "reference": "urn:uuid:a3f8f421-e9aa-4800-b1bb-7539f7761f94",
          "display": "Ondrej Machová"
        }
      }
    },
    {
      "fullUrl": "urn:uuid:4a97bc72-a481-4216-80cf-8c38a515966a",
      "resource": {
        "resourceType": "MedicationStatement",
        "id": "4a97bc72-a481-4216-80cf-8c38a515966a",
        "meta": {
          "profile": [
            "http://hl7.eu/fhir/eps/StructureDefinition/MedicationStatement-eu-eps"
          ]
        },
        "effectivePeriod": {
          "extension": [
            {
              "url": "http://hl7.org/fhir/StructureDefinition/data-absent-reason",
              "valueCode": "unknown"
            }
          ]
        },
        "status": "active",
        "medicationCodeableConcept": {
          "coding": [
            {
              "code": "787481004",
              "system": "http://snomed.info/sct",
              "display": "No known medications (situation)"
            }
          ]
        },
        "subject": {
          "reference": "urn:uuid:a3f8f421-e9aa-4800-b1bb-7539f7761f94",
          "display": "Ondrej Machová"
        }
      }
    },
    {
      "fullUrl": "urn:uuid:d51999e7-ae48-46e4-9d6c-dc4ec53a56b1",
      "resource": {
        "resourceType": "Immunization",
        "id": "d51999e7-ae48-46e4-9d6c-dc4ec53a56b1",
        "meta": {
          "profile": [
            "http://hl7.org/fhir/uv/ips/StructureDefinition/Immunization-uv-ips"
          ]
        },
        "vaccineCode": {
          "coding": [
            {
              "code": "1181000221105",
              "system": "http://snomed.info/sct",
              "display": "Vaccine product containing Influenza virus antigen"
            },
            {
              "code": "J07BB02",
              "system": "http://www.whocc.no/atc",
              "display": "Influenza, inactivated, split virus"
            }
          ],
          "text": "Influenza virus antigen only vaccine product"
        },
        "site": {
          "coding": [
            {
              "code": "244979005",
              "system": "http://snomed.info/sct",
              "display": "Entire muscle of upper arm"
            }
          ],
          "text": "Entire muscle of upper arm"
        },
        "route": {
          "coding": [
            {
              "code": "78421000",
              "system": "http://snomed.info/sct",
              "display": "Intramuscular route"
            }
          ],
          "text": "Intramuscular route"
        },
        "text": {
          "status": "generated",
          "div": "<div xmlns=\"http://www.w3.org/1999/xhtml\"><table class=\"hl7__ips\"><tr><td>Influenza virus antigen only vaccine product</td><td><span class=\"nb\">08-Mar-2025</span></td></tr></table></div>"
        },
        "status": "completed",
        "patient": {
          "reference": "urn:uuid:a3f8f421-e9aa-4800-b1bb-7539f7761f94",
          "display": "Ondrej Machová"
        },
        "occurrenceDateTime": "2025-03-08",
        "lotNumber": "TI-6WxRqIm",
        "expirationDate": "2025-12-29"
      }
    },
    {
      "fullUrl": "urn:uuid:c19b40cc-210b-4634-8edd-6149e740d1e8",
      "resource": {
        "resourceType": "Immunization",
        "id": "c19b40cc-210b-4634-8edd-6149e740d1e8",
        "meta": {
          "profile": [
            "http://hl7.org/fhir/uv/ips/StructureDefinition/Immunization-uv-ips"
          ]
        },
        "vaccineCode": {
          "coding": [
            {
              "code": "1119349007",
              "system": "http://snomed.info/sct",
              "display": "Vaccine product containing SARS-CoV-2 mRNA"
            },
            {
              "code": "J07BX03",
              "system": "http://www.whocc.no/atc",
              "display": "COVID-19 mRNA vaccines"
            }
          ],
          "text": "SARS-CoV-2 mRNA vaccine"
        },
        "site": {
          "coding": [
            {
              "code": "244979005",
              "system": "http://snomed.info/sct",
              "display": "Entire muscle of upper arm"
            }
          ],
          "text": "Entire muscle of upper arm"
        },
        "route": {
          "coding": [
            {
              "code": "78421000",
              "system": "http://snomed.info/sct",
              "display": "Intramuscular route"
            }
          ],
          "text": "Intramuscular route"
        },
        "text": {
          "status": "generated",
          "div": "<div xmlns=\"http://www.w3.org/1999/xhtml\"><table class=\"hl7__ips\"><tr><td>SARS-CoV-2 mRNA vaccine</td><td><span class=\"nb\">10-Apr-2021</span></td></tr></table></div>"
        },
        "status": "completed",
        "patient": {
          "reference": "urn:uuid:a3f8f421-e9aa-4800-b1bb-7539f7761f94",
          "display": "Ondrej Machová"
        },
        "occurrenceDateTime": "2021-04-10",
        "lotNumber": "AC-hL9c",
        "expirationDate": "2021-10-02"
      }
    },
    {
      "fullUrl": "urn:uuid:2ff94349-0911-447e-a288-317fc05a191a",
      "resource": {
        "resourceType": "Immunization",
        "id": "2ff94349-0911-447e-a288-317fc05a191a",
        "meta": {
          "profile": [
            "http://hl7.org/fhir/uv/ips/StructureDefinition/Immunization-uv-ips"
          ]
        },
        "vaccineCode": {
          "coding": [
            {
              "code": "871822003",
              "system": "http://snomed.info/sct",
              "display": "Vaccine product containing Hepatitis B virus antigen"
            },
            {
              "code": "J07BC01",
              "system": "http://www.whocc.no/atc",
              "display": "Hepatitis B vaccines"
            }
          ],
          "text": "Hepatitis B virus antigen only vaccine product"
        },
        "site": {
          "coding": [
            {
              "code": "244979005",
              "system": "http://snomed.info/sct",
              "display": "Entire muscle of upper arm"
            }
          ],
          "text": "Entire muscle of upper arm"
        },
        "route": {
          "coding": [
            {
              "code": "78421000",
              "system": "http://snomed.info/sct",
              "display": "Intramuscular route"
            }
          ],
          "text": "Intramuscular route"
        },
        "text": {
          "status": "generated",
          "div": "<div xmlns=\"http://www.w3.org/1999/xhtml\"><table class=\"hl7__ips\"><tr><td>Hepatitis B virus antigen only vaccine product</td><td><span class=\"nb\">18-Aug-2018</span></td></tr></table></div>"
        },
        "status": "completed",
        "patient": {
          "reference": "urn:uuid:a3f8f421-e9aa-4800-b1bb-7539f7761f94",
          "display": "Ondrej Machová"
        },
        "occurrenceDateTime": "2018-08-18",
        "lotNumber": "UL-uaZmjeRlK",
        "expirationDate": "2019-02-04"
      }
    },
    {
      "fullUrl": "urn:uuid:822db264-581b-436a-aebd-af6521d4ce0b",
      "resource": {
        "resourceType": "Immunization",
        "id": "822db264-581b-436a-aebd-af6521d4ce0b",
        "meta": {
          "profile": [
            "http://hl7.org/fhir/uv/ips/StructureDefinition/Immunization-uv-ips"
          ]
        },
        "vaccineCode": {
          "coding": [
            {
              "code": "777725002",
              "system": "http://snomed.info/sct",
              "display": "Vaccine product containing only Clostridium tetani toxoid antigen adsorbed"
            },
            {
              "code": "J07AM51",
              "system": "http://www.whocc.no/atc",
              "display": "Diphtheria-tetanus vaccines, adult type"
            }
          ],
          "text": "Clostridium tetani toxoid antigen adsorbed only vaccine product"
        },
        "site": {
          "coding": [
            {
              "code": "244979005",
              "system": "http://snomed.info/sct",
              "display": "Entire muscle of upper arm"
            }
          ],
          "text": "Entire muscle of upper arm"
        },
        "route": {
          "coding": [
            {
              "code": "78421000",
              "system": "http://snomed.info/sct",
              "display": "Intramuscular route"
            }
          ],
          "text": "Intramuscular route"
        },
        "text": {
          "status": "generated",
          "div": "<div xmlns=\"http://www.w3.org/1999/xhtml\"><table class=\"hl7__ips\"><tr><td>Clostridium tetani toxoid antigen adsorbed only vaccine product</td><td><span class=\"nb\">18-Aug-2018</span></td></tr></table></div>"
        },
        "status": "completed",
        "patient": {
          "reference": "urn:uuid:a3f8f421-e9aa-4800-b1bb-7539f7761f94",
          "display": "Ondrej Machová"
        },
        "occurrenceDateTime": "2018-08-18",
        "lotNumber": "GR-8WTY",
        "expirationDate": "2018-11-13"
      }
    },
    {
      "fullUrl": "urn:uuid:80e32aef-0d8f-4c5f-8faa-fcff773c202c",
      "resource": {
        "resourceType": "Immunization",
        "id": "80e32aef-0d8f-4c5f-8faa-fcff773c202c",
        "meta": {
          "profile": [
            "http://hl7.org/fhir/uv/ips/StructureDefinition/Immunization-uv-ips"
          ]
        },
        "vaccineCode": {
          "coding": [
            {
              "code": "836401009",
              "system": "http://snomed.info/sct",
              "display": "Vaccine product containing Neisseria meningitidis antigen"
            },
            {
              "code": "J07AH08",
              "system": "http://www.whocc.no/atc",
              "display": "Meningococcal vaccines, conjugated"
            }
          ],
          "text": "Neisseria meningitidis antigen-containing vaccine product"
        },
        "site": {
          "coding": [
            {
              "code": "244979005",
              "system": "http://snomed.info/sct",
              "display": "Entire muscle of upper arm"
            }
          ],
          "text": "Entire muscle of upper arm"
        },
        "route": {
          "coding": [
            {
              "code": "78421000",
              "system": "http://snomed.info/sct",
              "display": "Intramuscular route"
            }
          ],
          "text": "Intramuscular route"
        },
        "text": {
          "status": "generated",
          "div": "<div xmlns=\"http://www.w3.org/1999/xhtml\"><table class=\"hl7__ips\"><tr><td>Neisseria meningitidis antigen-containing vaccine product</td><td><span class=\"nb\">18-Aug-2018</span></td></tr></table></div>"
        },
        "status": "completed",
        "patient": {
          "reference": "urn:uuid:a3f8f421-e9aa-4800-b1bb-7539f7761f94",
          "display": "Ondrej Machová"
        },
        "occurrenceDateTime": "2018-08-18",
        "lotNumber": "FL-ODWfkb",
        "expirationDate": "2018-12-27"
      }
    },
    {
      "fullUrl": "urn:uuid:8a06531d-01cc-44f1-836b-edccf0776a0e",
      "resource": {
        "resourceType": "AllergyIntolerance",
        "id": "8a06531d-01cc-44f1-836b-edccf0776a0e",
        "meta": {
          "profile": [
            "http://hl7.eu/fhir/eps/StructureDefinition/allergyIntolerance-eu-eps"
          ]
        },
        "code": {
          "coding": [
            {
              "code": "836401009",
              "system": "http://snomed.info/sct",
              "display": "Vaccine product containing Neisseria meningitidis antigen"
            }
          ],
          "text": "Vaccine product containing Neisseria meningitidis antigen"
        },
        "clinicalStatus": {
          "coding": [
            {
              "code": "active",
              "system": "http://terminology.hl7.org/CodeSystem/allergyintolerance-clinical"
            }
          ]
        },
        "text": {
          "status": "generated",
          "div": "<div xmlns=\"http://www.w3.org/1999/xhtml\"><table class=\"hl7__ips\"><tr><th>Allergy/Intolerance</th><th>Onset Date</th><th>Status</th><th>Type</th><th>Reaction</th></tr><tr><td>Vaccine product containing Neisseria meningitidis antigen</td><td>?</td><td>active</td><td>?</td><td></td></tr></table></div>"
        },
        "verificationStatus": {
          "coding": [
            {
              "code": "confirmed",
              "system": "http://terminology.hl7.org/CodeSystem/allergyintolerance-verification"
            }
          ]
        },
        "patient": {
          "reference": "urn:uuid:a3f8f421-e9aa-4800-b1bb-7539f7761f94",
          "display": "Ondrej Machová"
        },
        "_onsetDateTime": {
          "extension": [
            {
              "url": "http://hl7.org/fhir/StructureDefinition/data-absent-reason",
              "valueCode": "unknown"
            }
          ]
        }
      }
    },
    {
      "fullUrl": "urn:uuid:045d39d5-993c-42c6-b66d-9b6065438445",
      "resource": {
        "resourceType": "CarePlan",
        "id": "045d39d5-993c-42c6-b66d-9b6065438445",
        "category": [
          {
            "coding": [
              {
                "code": "assess-plan",
                "system": "http://terminology.hl7.org/CodeSystem/care-plan-category",
                "display": "Assessment and Plan"
              }
            ]
          }
        ],
        "activity": [
          {
            "detail": {
              "code": {
                "coding": [
                  {
                    "code": "53950000",
                    "system": "http://snomed.info/sct",
                    "display": "Respiratory therapy (procedure)"
                  }
                ]
              },
              "status": "unknown",
              "description": "Respiratory therapy",
              "kind": "Appointment"
            }
          }
        ],
        "period": {
          "start": "2025-03-15"
        },
        "text": {
          "status": "generated",
          "div": "<div xmlns=\"http://www.w3.org/1999/xhtml\"><table class=\"hl7__ips first25\"><tr><th>Active Planned Care / Goals</th><th>Start Date</th><th>Reason</th></tr><tr><td>Respiratory therapy</td><td><span class=\"nb\">15-Mar-2025</span></td><td>-</td></tr></table></div>"
        },
        "status": "active",
        "intent": "plan",
        "subject": {
          "reference": "urn:uuid:a3f8f421-e9aa-4800-b1bb-7539f7761f94",
          "display": "Ondrej Machová"
        }
      }
    },
    {
      "fullUrl": "urn:uuid:94014cf6-369f-44cd-a8f9-901b77100e40",
      "resource": {
        "resourceType": "Observation",
        "id": "94014cf6-369f-44cd-a8f9-901b77100e40",
        "meta": {
          "profile": [
            "http://hl7.org/fhir/StructureDefinition/vitalsigns"
          ]
        },
        "category": [
          {
            "coding": [
              {
                "system": "http://terminology.hl7.org/CodeSystem/observation-category",
                "code": "vital-signs",
                "display": "Vital Signs"
              }
            ]
          }
        ],
        "valueQuantity": {
          "value": 187.9,
          "code": "cm",
          "unit": "cm"
        },
        "text": {
          "status": "generated",
          "div": "<div xmlns=\"http://www.w3.org/1999/xhtml\"><table class=\"hl7__ips\"><tr><th>Vital Sign</th><th>Date</th><th>Measurement</th></tr><tr><td>Body Height</td><td>08-Mar-2025</td><td>187.9 cm</td></tr></table></div>"
        },
        "status": "final",
        "code": {
          "coding": [
            {
              "code": "$8302-2",
              "system": "http://loinc.org",
              "display": "Body Height"
            }
          ]
        },
        "subject": {
          "reference": "urn:uuid:a3f8f421-e9aa-4800-b1bb-7539f7761f94",
          "display": "Ondrej Machová"
        },
        "effectiveDateTime": "2025-03-08"
      }
    },
    {
      "fullUrl": "urn:uuid:cdcc2cf3-33c6-432d-bc10-5cf144654da6",
      "resource": {
        "resourceType": "Observation",
        "id": "cdcc2cf3-33c6-432d-bc10-5cf144654da6",
        "meta": {
          "profile": [
            "http://hl7.org/fhir/StructureDefinition/vitalsigns"
          ]
        },
        "category": [
          {
            "coding": [
              {
                "system": "http://terminology.hl7.org/CodeSystem/observation-category",
                "code": "vital-signs",
                "display": "Vital Signs"
              }
            ]
          }
        ],
        "valueQuantity": {
          "value": 0,
          "code": "{score}",
          "unit": "{score}"
        },
        "text": {
          "status": "generated",
          "div": "<div xmlns=\"http://www.w3.org/1999/xhtml\"><table class=\"hl7__ips\"><tr><th>Vital Sign</th><th>Date</th><th>Measurement</th></tr><tr><td>Pain severity - 0-10 verbal numeric rating [Score] - Reported</td><td>08-Mar-2025</td><td>0 {score}</td></tr></table></div>"
        },
        "status": "final",
        "code": {
          "coding": [
            {
              "code": "$72514-3",
              "system": "http://loinc.org",
              "display": "Pain severity - 0-10 verbal numeric rating [Score] - Reported"
            }
          ]
        },
        "subject": {
          "reference": "urn:uuid:a3f8f421-e9aa-4800-b1bb-7539f7761f94",
          "display": "Ondrej Machová"
        },
        "effectiveDateTime": "2025-03-08"
      }
    },
    {
      "fullUrl": "urn:uuid:4ba495d0-6a10-4e1a-b2f5-45527554d6e7",
      "resource": {
        "resourceType": "Observation",
        "id": "4ba495d0-6a10-4e1a-b2f5-45527554d6e7",
        "meta": {
          "profile": [
            "http://hl7.org/fhir/StructureDefinition/vitalsigns"
          ]
        },
        "category": [
          {
            "coding": [
              {
                "system": "http://terminology.hl7.org/CodeSystem/observation-category",
                "code": "vital-signs",
                "display": "Vital Signs"
              }
            ]
          }
        ],
        "valueQuantity": {
          "value": 97.2,
          "code": "kg",
          "unit": "kg"
        },
        "text": {
          "status": "generated",
          "div": "<div xmlns=\"http://www.w3.org/1999/xhtml\"><table class=\"hl7__ips\"><tr><th>Vital Sign</th><th>Date</th><th>Measurement</th></tr><tr><td>Body Weight</td><td>08-Mar-2025</td><td>97.2 kg</td></tr></table></div>"
        },
        "status": "final",
        "code": {
          "coding": [
            {
              "code": "$29463-7",
              "system": "http://loinc.org",
              "display": "Body Weight"
            }
          ]
        },
        "subject": {
          "reference": "urn:uuid:a3f8f421-e9aa-4800-b1bb-7539f7761f94",
          "display": "Ondrej Machová"
        },
        "effectiveDateTime": "2025-03-08"
      }
    },
    {
      "fullUrl": "urn:uuid:ce28532e-3a72-46ef-856b-f22a930158c9",
      "resource": {
        "resourceType": "Observation",
        "id": "ce28532e-3a72-46ef-856b-f22a930158c9",
        "meta": {
          "profile": [
            "http://hl7.org/fhir/StructureDefinition/vitalsigns"
          ]
        },
        "category": [
          {
            "coding": [
              {
                "system": "http://terminology.hl7.org/CodeSystem/observation-category",
                "code": "vital-signs",
                "display": "Vital Signs"
              }
            ]
          }
        ],
        "valueQuantity": {
          "value": 27.5,
          "code": "kg/m2",
          "unit": "kg/m2"
        },
        "text": {
          "status": "generated",
          "div": "<div xmlns=\"http://www.w3.org/1999/xhtml\"><table class=\"hl7__ips\"><tr><th>Vital Sign</th><th>Date</th><th>Measurement</th></tr><tr><td>Body mass index (BMI) [Ratio]</td><td>08-Mar-2025</td><td>27.5 kg/m2</td></tr></table></div>"
        },
        "status": "final",
        "code": {
          "coding": [
            {
              "code": "$39156-5",
              "system": "http://loinc.org",
              "display": "Body mass index (BMI) [Ratio]"
            }
          ]
        },
        "subject": {
          "reference": "urn:uuid:a3f8f421-e9aa-4800-b1bb-7539f7761f94",
          "display": "Ondrej Machová"
        },
        "effectiveDateTime": "2025-03-08"
      }
    },
    {
      "fullUrl": "urn:uuid:9ce959ab-6e26-4dee-9f06-5a854f53c5d2",
      "resource": {
        "resourceType": "Observation",
        "id": "9ce959ab-6e26-4dee-9f06-5a854f53c5d2",
        "meta": {
          "profile": [
            "http://hl7.org/fhir/StructureDefinition/vitalsigns"
          ]
        },
        "category": [
          {
            "coding": [
              {
                "system": "http://terminology.hl7.org/CodeSystem/observation-category",
                "code": "vital-signs",
                "display": "Vital Signs"
              }
            ]
          }
        ],
        "valueQuantity": {
          "value": 73,
          "code": "mm[Hg]",
          "unit": "mm[Hg]"
        },
        "text": {
          "status": "generated",
          "div": "<div xmlns=\"http://www.w3.org/1999/xhtml\"><table class=\"hl7__ips\"><tr><th>Vital Sign</th><th>Date</th><th>Measurement</th></tr><tr><td>Diastolic Blood Pressure</td><td>08-Mar-2025</td><td>73 mm[Hg]</td></tr></table></div>"
        },
        "status": "final",
        "code": {
          "coding": [
            {
              "code": "$8462-4",
              "system": "http://loinc.org",
              "display": "Diastolic Blood Pressure"
            }
          ]
        },
        "subject": {
          "reference": "urn:uuid:a3f8f421-e9aa-4800-b1bb-7539f7761f94",
          "display": "Ondrej Machová"
        },
        "effectiveDateTime": "2025-03-08"
      }
    },
    {
      "fullUrl": "urn:uuid:cf902e70-535c-4664-b11e-7d7df9772ea1",
      "resource": {
        "resourceType": "Observation",
        "id": "cf902e70-535c-4664-b11e-7d7df9772ea1",
        "meta": {
          "profile": [
            "http://hl7.org/fhir/StructureDefinition/vitalsigns"
          ]
        },
        "category": [
          {
            "coding": [
              {
                "system": "http://terminology.hl7.org/CodeSystem/observation-category",
                "code": "vital-signs",
                "display": "Vital Signs"
              }
            ]
          }
        ],
        "valueQuantity": {
          "value": 133,
          "code": "mm[Hg]",
          "unit": "mm[Hg]"
        },
        "text": {
          "status": "generated",
          "div": "<div xmlns=\"http://www.w3.org/1999/xhtml\"><table class=\"hl7__ips\"><tr><th>Vital Sign</th><th>Date</th><th>Measurement</th></tr><tr><td>Systolic Blood Pressure</td><td>08-Mar-2025</td><td>133 mm[Hg]</td></tr></table></div>"
        },
        "status": "final",
        "code": {
          "coding": [
            {
              "code": "$8480-6",
              "system": "http://loinc.org",
              "display": "Systolic Blood Pressure"
            }
          ]
        },
        "subject": {
          "reference": "urn:uuid:a3f8f421-e9aa-4800-b1bb-7539f7761f94",
          "display": "Ondrej Machová"
        },
        "effectiveDateTime": "2025-03-08"
      }
    },
    {
      "fullUrl": "urn:uuid:d6559d42-563a-4ca4-8099-4fd19c779234",
      "resource": {
        "resourceType": "Observation",
        "id": "d6559d42-563a-4ca4-8099-4fd19c779234",
        "meta": {
          "profile": [
            "http://hl7.org/fhir/StructureDefinition/vitalsigns"
          ]
        },
        "category": [
          {
            "coding": [
              {
                "system": "http://terminology.hl7.org/CodeSystem/observation-category",
                "code": "vital-signs",
                "display": "Vital Signs"
              }
            ]
          }
        ],
        "valueQuantity": {
          "value": 82,
          "code": "/min",
          "unit": "/min"
        },
        "text": {
          "status": "generated",
          "div": "<div xmlns=\"http://www.w3.org/1999/xhtml\"><table class=\"hl7__ips\"><tr><th>Vital Sign</th><th>Date</th><th>Measurement</th></tr><tr><td>Heart rate</td><td>08-Mar-2025</td><td>82 /min</td></tr></table></div>"
        },
        "status": "final",
        "code": {
          "coding": [
            {
              "code": "$8867-4",
              "system": "http://loinc.org",
              "display": "Heart rate"
            }
          ]
        },
        "subject": {
          "reference": "urn:uuid:a3f8f421-e9aa-4800-b1bb-7539f7761f94",
          "display": "Ondrej Machová"
        },
        "effectiveDateTime": "2025-03-08"
      }
    },
    {
      "fullUrl": "urn:uuid:77d4b8ef-eed4-40f4-8ab1-280b649120d7",
      "resource": {
        "resourceType": "Observation",
        "id": "77d4b8ef-eed4-40f4-8ab1-280b649120d7",
        "meta": {
          "profile": [
            "http://hl7.org/fhir/StructureDefinition/vitalsigns"
          ]
        },
        "category": [
          {
            "coding": [
              {
                "system": "http://terminology.hl7.org/CodeSystem/observation-category",
                "code": "vital-signs",
                "display": "Vital Signs"
              }
            ]
          }
        ],
        "valueQuantity": {
          "value": 14,
          "code": "/min",
          "unit": "/min"
        },
        "text": {
          "status": "generated",
          "div": "<div xmlns=\"http://www.w3.org/1999/xhtml\"><table class=\"hl7__ips\"><tr><th>Vital Sign</th><th>Date</th><th>Measurement</th></tr><tr><td>Respiratory rate</td><td>08-Mar-2025</td><td>14 /min</td></tr></table></div>"
        },
        "status": "final",
        "code": {
          "coding": [
            {
              "code": "$9279-1",
              "system": "http://loinc.org",
              "display": "Respiratory rate"
            }
          ]
        },
        "subject": {
          "reference": "urn:uuid:a3f8f421-e9aa-4800-b1bb-7539f7761f94",
          "display": "Ondrej Machová"
        },
        "effectiveDateTime": "2025-03-08"
      }
    },
    {
      "fullUrl": "urn:uuid:354fa679-8f81-4465-9a96-7329747f1a4b",
      "resource": {
        "resourceType": "Observation",
        "id": "354fa679-8f81-4465-9a96-7329747f1a4b",
        "meta": {
          "profile": [
            "http://hl7.org/fhir/StructureDefinition/vitalsigns"
          ]
        },
        "category": [
          {
            "coding": [
              {
                "system": "http://terminology.hl7.org/CodeSystem/observation-category",
                "code": "vital-signs",
                "display": "Vital Signs"
              }
            ]
          }
        ],
        "valueQuantity": {
          "value": 187.9,
          "code": "cm",
          "unit": "cm"
        },
        "text": {
          "status": "generated",
          "div": "<div xmlns=\"http://www.w3.org/1999/xhtml\"><table class=\"hl7__ips\"><tr><th>Vital Sign</th><th>Date</th><th>Measurement</th></tr><tr><td>Body Height</td><td>22-Feb-2025</td><td>187.9 cm</td></tr></table></div>"
        },
        "status": "final",
        "code": {
          "coding": [
            {
              "code": "$8302-2",
              "system": "http://loinc.org",
              "display": "Body Height"
            }
          ]
        },
        "subject": {
          "reference": "urn:uuid:a3f8f421-e9aa-4800-b1bb-7539f7761f94",
          "display": "Ondrej Machová"
        },
        "effectiveDateTime": "2025-02-22"
      }
    },
    {
      "fullUrl": "urn:uuid:02dbc6d3-72da-4caf-9c9d-c8b7a6c9fcf1",
      "resource": {
        "resourceType": "Observation",
        "id": "02dbc6d3-72da-4caf-9c9d-c8b7a6c9fcf1",
        "meta": {
          "profile": [
            "http://hl7.org/fhir/StructureDefinition/vitalsigns"
          ]
        },
        "category": [
          {
            "coding": [
              {
                "system": "http://terminology.hl7.org/CodeSystem/observation-category",
                "code": "vital-signs",
                "display": "Vital Signs"
              }
            ]
          }
        ],
        "valueQuantity": {
          "value": 2,
          "code": "{score}",
          "unit": "{score}"
        },
        "text": {
          "status": "generated",
          "div": "<div xmlns=\"http://www.w3.org/1999/xhtml\"><table class=\"hl7__ips\"><tr><th>Vital Sign</th><th>Date</th><th>Measurement</th></tr><tr><td>Pain severity - 0-10 verbal numeric rating [Score] - Reported</td><td>22-Feb-2025</td><td>2 {score}</td></tr></table></div>"
        },
        "status": "final",
        "code": {
          "coding": [
            {
              "code": "$72514-3",
              "system": "http://loinc.org",
              "display": "Pain severity - 0-10 verbal numeric rating [Score] - Reported"
            }
          ]
        },
        "subject": {
          "reference": "urn:uuid:a3f8f421-e9aa-4800-b1bb-7539f7761f94",
          "display": "Ondrej Machová"
        },
        "effectiveDateTime": "2025-02-22"
      }
    },
    {
      "fullUrl": "urn:uuid:b936720a-493e-4130-b102-69a69efc3013",
      "resource": {
        "resourceType": "Observation",
        "id": "b936720a-493e-4130-b102-69a69efc3013",
        "meta": {
          "profile": [
            "http://hl7.org/fhir/StructureDefinition/vitalsigns"
          ]
        },
        "category": [
          {
            "coding": [
              {
                "system": "http://terminology.hl7.org/CodeSystem/observation-category",
                "code": "vital-signs",
                "display": "Vital Signs"
              }
            ]
          }
        ],
        "valueQuantity": {
          "value": 97.2,
          "code": "kg",
          "unit": "kg"
        },
        "text": {
          "status": "generated",
          "div": "<div xmlns=\"http://www.w3.org/1999/xhtml\"><table class=\"hl7__ips\"><tr><th>Vital Sign</th><th>Date</th><th>Measurement</th></tr><tr><td>Body Weight</td><td>22-Feb-2025</td><td>97.2 kg</td></tr></table></div>"
        },
        "status": "final",
        "code": {
          "coding": [
            {
              "code": "$29463-7",
              "system": "http://loinc.org",
              "display": "Body Weight"
            }
          ]
        },
        "subject": {
          "reference": "urn:uuid:a3f8f421-e9aa-4800-b1bb-7539f7761f94",
          "display": "Ondrej Machová"
        },
        "effectiveDateTime": "2025-02-22"
      }
    },
    {
      "fullUrl": "urn:uuid:734bf9d2-3979-472c-a378-2790fbb04705",
      "resource": {
        "resourceType": "Observation",
        "id": "734bf9d2-3979-472c-a378-2790fbb04705",
        "meta": {
          "profile": [
            "http://hl7.org/fhir/StructureDefinition/vitalsigns"
          ]
        },
        "category": [
          {
            "coding": [
              {
                "system": "http://terminology.hl7.org/CodeSystem/observation-category",
                "code": "vital-signs",
                "display": "Vital Signs"
              }
            ]
          }
        ],
        "valueQuantity": {
          "value": 27.5,
          "code": "kg/m2",
          "unit": "kg/m2"
        },
        "text": {
          "status": "generated",
          "div": "<div xmlns=\"http://www.w3.org/1999/xhtml\"><table class=\"hl7__ips\"><tr><th>Vital Sign</th><th>Date</th><th>Measurement</th></tr><tr><td>Body mass index (BMI) [Ratio]</td><td>22-Feb-2025</td><td>27.5 kg/m2</td></tr></table></div>"
        },
        "status": "final",
        "code": {
          "coding": [
            {
              "code": "$39156-5",
              "system": "http://loinc.org",
              "display": "Body mass index (BMI) [Ratio]"
            }
          ]
        },
        "subject": {
          "reference": "urn:uuid:a3f8f421-e9aa-4800-b1bb-7539f7761f94",
          "display": "Ondrej Machová"
        },
        "effectiveDateTime": "2025-02-22"
      }
    },
    {
      "fullUrl": "urn:uuid:7b853e27-e6c6-42e4-a534-3ec266015df5",
      "resource": {
        "resourceType": "Observation",
        "id": "7b853e27-e6c6-42e4-a534-3ec266015df5",
        "meta": {
          "profile": [
            "http://hl7.org/fhir/StructureDefinition/vitalsigns"
          ]
        },
        "category": [
          {
            "coding": [
              {
                "system": "http://terminology.hl7.org/CodeSystem/observation-category",
                "code": "vital-signs",
                "display": "Vital Signs"
              }
            ]
          }
        ],
        "valueQuantity": {
          "value": 70,
          "code": "mm[Hg]",
          "unit": "mm[Hg]"
        },
        "text": {
          "status": "generated",
          "div": "<div xmlns=\"http://www.w3.org/1999/xhtml\"><table class=\"hl7__ips\"><tr><th>Vital Sign</th><th>Date</th><th>Measurement</th></tr><tr><td>Diastolic Blood Pressure</td><td>22-Feb-2025</td><td>70 mm[Hg]</td></tr></table></div>"
        },
        "status": "final",
        "code": {
          "coding": [
            {
              "code": "$8462-4",
              "system": "http://loinc.org",
              "display": "Diastolic Blood Pressure"
            }
          ]
        },
        "subject": {
          "reference": "urn:uuid:a3f8f421-e9aa-4800-b1bb-7539f7761f94",
          "display": "Ondrej Machová"
        },
        "effectiveDateTime": "2025-02-22"
      }
    },
    {
      "fullUrl": "urn:uuid:2b4defbe-97fe-41e0-854f-310cbc3f3858",
      "resource": {
        "resourceType": "Observation",
        "id": "2b4defbe-97fe-41e0-854f-310cbc3f3858",
        "meta": {
          "profile": [
            "http://hl7.org/fhir/StructureDefinition/vitalsigns"
          ]
        },
        "category": [
          {
            "coding": [
              {
                "system": "http://terminology.hl7.org/CodeSystem/observation-category",
                "code": "vital-signs",
                "display": "Vital Signs"
              }
            ]
          }
        ],
        "valueQuantity": {
          "value": 136,
          "code": "mm[Hg]",
          "unit": "mm[Hg]"
        },
        "text": {
          "status": "generated",
          "div": "<div xmlns=\"http://www.w3.org/1999/xhtml\"><table class=\"hl7__ips\"><tr><th>Vital Sign</th><th>Date</th><th>Measurement</th></tr><tr><td>Systolic Blood Pressure</td><td>22-Feb-2025</td><td>136 mm[Hg]</td></tr></table></div>"
        },
        "status": "final",
        "code": {
          "coding": [
            {
              "code": "$8480-6",
              "system": "http://loinc.org",
              "display": "Systolic Blood Pressure"
            }
          ]
        },
        "subject": {
          "reference": "urn:uuid:a3f8f421-e9aa-4800-b1bb-7539f7761f94",
          "display": "Ondrej Machová"
        },
        "effectiveDateTime": "2025-02-22"
      }
    },
    {
      "fullUrl": "urn:uuid:9d73725a-4deb-4dd6-b5ff-82eb823b7d5b",
      "resource": {
        "resourceType": "Observation",
        "id": "9d73725a-4deb-4dd6-b5ff-82eb823b7d5b",
        "meta": {
          "profile": [
            "http://hl7.org/fhir/StructureDefinition/vitalsigns"
          ]
        },
        "category": [
          {
            "coding": [
              {
                "system": "http://terminology.hl7.org/CodeSystem/observation-category",
                "code": "vital-signs",
                "display": "Vital Signs"
              }
            ]
          }
        ],
        "valueQuantity": {
          "value": 96,
          "code": "/min",
          "unit": "/min"
        },
        "text": {
          "status": "generated",
          "div": "<div xmlns=\"http://www.w3.org/1999/xhtml\"><table class=\"hl7__ips\"><tr><th>Vital Sign</th><th>Date</th><th>Measurement</th></tr><tr><td>Heart rate</td><td>22-Feb-2025</td><td>96 /min</td></tr></table></div>"
        },
        "status": "final",
        "code": {
          "coding": [
            {
              "code": "$8867-4",
              "system": "http://loinc.org",
              "display": "Heart rate"
            }
          ]
        },
        "subject": {
          "reference": "urn:uuid:a3f8f421-e9aa-4800-b1bb-7539f7761f94",
          "display": "Ondrej Machová"
        },
        "effectiveDateTime": "2025-02-22"
      }
    },
    {
      "fullUrl": "urn:uuid:0d90295e-8d51-40a3-832c-8e3cbd000a41",
      "resource": {
        "resourceType": "Observation",
        "id": "0d90295e-8d51-40a3-832c-8e3cbd000a41",
        "meta": {
          "profile": [
            "http://hl7.org/fhir/StructureDefinition/vitalsigns"
          ]
        },
        "category": [
          {
            "coding": [
              {
                "system": "http://terminology.hl7.org/CodeSystem/observation-category",
                "code": "vital-signs",
                "display": "Vital Signs"
              }
            ]
          }
        ],
        "valueQuantity": {
          "value": 14,
          "code": "/min",
          "unit": "/min"
        },
        "text": {
          "status": "generated",
          "div": "<div xmlns=\"http://www.w3.org/1999/xhtml\"><table class=\"hl7__ips\"><tr><th>Vital Sign</th><th>Date</th><th>Measurement</th></tr><tr><td>Respiratory rate</td><td>22-Feb-2025</td><td>14 /min</td></tr></table></div>"
        },
        "status": "final",
        "code": {
          "coding": [
            {
              "code": "$9279-1",
              "system": "http://loinc.org",
              "display": "Respiratory rate"
            }
          ]
        },
        "subject": {
          "reference": "urn:uuid:a3f8f421-e9aa-4800-b1bb-7539f7761f94",
          "display": "Ondrej Machová"
        },
        "effectiveDateTime": "2025-02-22"
      }
    },
    {
      "fullUrl": "urn:uuid:9e296960-1a6a-4b71-8fc4-ef4b1cb96b47",
      "resource": {
        "resourceType": "Observation",
        "id": "9e296960-1a6a-4b71-8fc4-ef4b1cb96b47",
        "meta": {
          "profile": [
            "http://hl7.eu/fhir/laboratory/StructureDefinition/Observation-resultslab-eu-lab"
          ]
        },
        "performer": [
          {
            "display": "The Central European Lab"
          }
        ],
        "category": [
          {
            "coding": [
              {
                "system": "http://terminology.hl7.org/CodeSystem/observation-category",
                "code": "laboratory"
              }
            ]
          }
        ],
        "code": {
          "coding": [
            {
              "code": "6690-2",
              "system": "http://loinc.org",
              "display": "Leukocytes [#/volume] in Blood by Automated count"
            }
          ],
          "text": "Leukocytes [#/volume] in Blood by Automated count"
        },
        "valueQuantity": {
          "system": "http://unitsofmeasure.org",
          "value": 4.4,
          "unit": "10*3/uL",
          "code": "10*3/uL"
        },
        "referenceRange": [
          {
            "low": {
              "value": 3.5,
              "code": "10*3/uL",
              "system": "http://unitsofmeasure.org"
            }
          },
          {
            "high": {
              "value": 10.5,
              "code": "10*3/uL",
              "system": "http://unitsofmeasure.org"
            }
          }
        ],
        "text": {
          "status": "generated",
          "div": "<div xmlns=\"http://www.w3.org/1999/xhtml\"><table class=\"hl7__eu__lab__report\"><tr><th>Test</th><th>24-Aug-2024</th><th>Reference&#xA0;Range</th><th>Unit</th></tr><tr><td>Leukocytes [#/volume] in Blood by Automated count</td><td>4.4</td><td>3.5 - 10.5</td><td></td><td>10*3/uL</td></tr></table></div>"
        },
        "status": "final",
        "subject": {
          "reference": "urn:uuid:a3f8f421-e9aa-4800-b1bb-7539f7761f94",
          "display": "Ondrej Machová"
        },
        "effectiveDateTime": "2024-08-24T12:49:06Z"
      }
    },
    {
      "fullUrl": "urn:uuid:9b3f2c46-c709-4e3c-83c8-49512001914f",
      "resource": {
        "resourceType": "Observation",
        "id": "9b3f2c46-c709-4e3c-83c8-49512001914f",
        "meta": {
          "profile": [
            "http://hl7.eu/fhir/laboratory/StructureDefinition/Observation-resultslab-eu-lab"
          ]
        },
        "performer": [
          {
            "display": "The Central European Lab"
          }
        ],
        "category": [
          {
            "coding": [
              {
                "system": "http://terminology.hl7.org/CodeSystem/observation-category",
                "code": "laboratory"
              }
            ]
          }
        ],
        "code": {
          "coding": [
            {
              "code": "789-8",
              "system": "http://loinc.org",
              "display": "Erythrocytes [#/volume] in Blood by Automated count"
            }
          ],
          "text": "Erythrocytes [#/volume] in Blood by Automated count"
        },
        "valueQuantity": {
          "system": "http://unitsofmeasure.org",
          "value": 3.9,
          "unit": "10*6/uL",
          "code": "10*6/uL"
        },
        "referenceRange": [
          {
            "low": {
              "value": 4.5,
              "code": "10*6/uL",
              "system": "http://unitsofmeasure.org"
            }
          },
          {
            "high": {
              "value": 6.2,
              "code": "10*6/uL",
              "system": "http://unitsofmeasure.org"
            }
          }
        ],
        "interpretation": [
          {
            "coding": [
              {
                "code": "L",
                "system": "http://terminology.hl7.org/CodeSystem/v3-ObservationInterpretation",
                "display": "Low"
              }
            ]
          }
        ],
        "text": {
          "status": "generated",
          "div": "<div xmlns=\"http://www.w3.org/1999/xhtml\"><table class=\"hl7__eu__lab__report\"><tr><th>Test</th><th>24-Aug-2024</th><th>Reference&#xA0;Range</th><th>Unit</th></tr><tr><td>Erythrocytes [#/volume] in Blood by Automated count</td><td>3.9</td><td>4.5 - 6.2</td><td>L</td><td>10*6/uL</td></tr></table></div>"
        },
        "status": "final",
        "subject": {
          "reference": "urn:uuid:a3f8f421-e9aa-4800-b1bb-7539f7761f94",
          "display": "Ondrej Machová"
        },
        "effectiveDateTime": "2024-08-24T12:49:06Z"
      }
    },
    {
      "fullUrl": "urn:uuid:9c3643ae-03c3-4cdb-aaad-f7f36e26b97b",
      "resource": {
        "resourceType": "Observation",
        "id": "9c3643ae-03c3-4cdb-aaad-f7f36e26b97b",
        "meta": {
          "profile": [
            "http://hl7.eu/fhir/laboratory/StructureDefinition/Observation-resultslab-eu-lab"
          ]
        },
        "performer": [
          {
            "display": "The Central European Lab"
          }
        ],
        "category": [
          {
            "coding": [
              {
                "system": "http://terminology.hl7.org/CodeSystem/observation-category",
                "code": "laboratory"
              }
            ]
          }
        ],
        "code": {
          "coding": [
            {
              "code": "718-7",
              "system": "http://loinc.org",
              "display": "Hemoglobin [Mass/volume] in Blood"
            }
          ],
          "text": "Hemoglobin [Mass/volume] in Blood"
        },
        "valueQuantity": {
          "system": "http://unitsofmeasure.org",
          "value": 13.3,
          "unit": "g/dL",
          "code": "g/dL"
        },
        "referenceRange": [
          {
            "low": {
              "value": 14,
              "code": "g/dL",
              "system": "http://unitsofmeasure.org"
            }
          },
          {
            "high": {
              "value": 18,
              "code": "g/dL",
              "system": "http://unitsofmeasure.org"
            }
          }
        ],
        "interpretation": [
          {
            "coding": [
              {
                "code": "L",
                "system": "http://terminology.hl7.org/CodeSystem/v3-ObservationInterpretation",
                "display": "Low"
              }
            ]
          }
        ],
        "text": {
          "status": "generated",
          "div": "<div xmlns=\"http://www.w3.org/1999/xhtml\"><table class=\"hl7__eu__lab__report\"><tr><th>Test</th><th>24-Aug-2024</th><th>Reference&#xA0;Range</th><th>Unit</th></tr><tr><td>Hemoglobin [Mass/volume] in Blood</td><td>13.3</td><td>14 - 18</td><td>L</td><td>g/dL</td></tr></table></div>"
        },
        "status": "final",
        "subject": {
          "reference": "urn:uuid:a3f8f421-e9aa-4800-b1bb-7539f7761f94",
          "display": "Ondrej Machová"
        },
        "effectiveDateTime": "2024-08-24T12:49:06Z"
      }
    },
    {
      "fullUrl": "urn:uuid:f30eedaf-4eba-48dc-a8e8-0139d56c456b",
      "resource": {
        "resourceType": "Observation",
        "id": "f30eedaf-4eba-48dc-a8e8-0139d56c456b",
        "meta": {
          "profile": [
            "http://hl7.eu/fhir/laboratory/StructureDefinition/Observation-resultslab-eu-lab"
          ]
        },
        "performer": [
          {
            "display": "The Central European Lab"
          }
        ],
        "category": [
          {
            "coding": [
              {
                "system": "http://terminology.hl7.org/CodeSystem/observation-category",
                "code": "laboratory"
              }
            ]
          }
        ],
        "code": {
          "coding": [
            {
              "code": "4544-3",
              "system": "http://loinc.org",
              "display": "Hematocrit [Volume Fraction] of Blood by Automated count"
            }
          ],
          "text": "Hematocrit [Volume Fraction] of Blood by Automated count"
        },
        "valueQuantity": {
          "system": "http://unitsofmeasure.org",
          "value": 48.7,
          "unit": "%",
          "code": "%"
        },
        "referenceRange": [
          {
            "low": {
              "value": 42,
              "code": "%",
              "system": "http://unitsofmeasure.org"
            }
          },
          {
            "high": {
              "value": 52,
              "code": "%",
              "system": "http://unitsofmeasure.org"
            }
          }
        ],
        "text": {
          "status": "generated",
          "div": "<div xmlns=\"http://www.w3.org/1999/xhtml\"><table class=\"hl7__eu__lab__report\"><tr><th>Test</th><th>24-Aug-2024</th><th>Reference&#xA0;Range</th><th>Unit</th></tr><tr><td>Hematocrit [Volume Fraction] of Blood by Automated count</td><td>48.7</td><td>42 - 52</td><td></td><td>%</td></tr></table></div>"
        },
        "status": "final",
        "subject": {
          "reference": "urn:uuid:a3f8f421-e9aa-4800-b1bb-7539f7761f94",
          "display": "Ondrej Machová"
        },
        "effectiveDateTime": "2024-08-24T12:49:06Z"
      }
    },
    {
      "fullUrl": "urn:uuid:f18c88d5-e529-4764-b567-316c077e65c2",
      "resource": {
        "resourceType": "Observation",
        "id": "f18c88d5-e529-4764-b567-316c077e65c2",
        "meta": {
          "profile": [
            "http://hl7.eu/fhir/laboratory/StructureDefinition/Observation-resultslab-eu-lab"
          ]
        },
        "performer": [
          {
            "display": "The Central European Lab"
          }
        ],
        "category": [
          {
            "coding": [
              {
                "system": "http://terminology.hl7.org/CodeSystem/observation-category",
                "code": "laboratory"
              }
            ]
          }
        ],
        "code": {
          "coding": [
            {
              "code": "787-2",
              "system": "http://loinc.org",
              "display": "MCV [Entitic volume] by Automated count"
            }
          ],
          "text": "MCV [Entitic volume] by Automated count"
        },
        "valueQuantity": {
          "system": "http://unitsofmeasure.org",
          "value": 87.1,
          "unit": "fL",
          "code": "fL"
        },
        "referenceRange": [
          {
            "low": {
              "value": 82,
              "code": "fL",
              "system": "http://unitsofmeasure.org"
            }
          },
          {
            "high": {
              "value": 98,
              "code": "fL",
              "system": "http://unitsofmeasure.org"
            }
          }
        ],
        "text": {
          "status": "generated",
          "div": "<div xmlns=\"http://www.w3.org/1999/xhtml\"><table class=\"hl7__eu__lab__report\"><tr><th>Test</th><th>24-Aug-2024</th><th>Reference&#xA0;Range</th><th>Unit</th></tr><tr><td>MCV [Entitic volume] by Automated count</td><td>87.1</td><td>82 - 98</td><td></td><td>fL</td></tr></table></div>"
        },
        "status": "final",
        "subject": {
          "reference": "urn:uuid:a3f8f421-e9aa-4800-b1bb-7539f7761f94",
          "display": "Ondrej Machová"
        },
        "effectiveDateTime": "2024-08-24T12:49:06Z"
      }
    },
    {
      "fullUrl": "urn:uuid:c3aa1a13-62a0-4bfe-8739-646f64817338",
      "resource": {
        "resourceType": "Observation",
        "id": "c3aa1a13-62a0-4bfe-8739-646f64817338",
        "meta": {
          "profile": [
            "http://hl7.eu/fhir/laboratory/StructureDefinition/Observation-resultslab-eu-lab"
          ]
        },
        "performer": [
          {
            "display": "The Central European Lab"
          }
        ],
        "category": [
          {
            "coding": [
              {
                "system": "http://terminology.hl7.org/CodeSystem/observation-category",
                "code": "laboratory"
              }
            ]
          }
        ],
        "code": {
          "coding": [
            {
              "code": "785-6",
              "system": "http://loinc.org",
              "display": "MCH [Entitic mass] by Automated count"
            }
          ],
          "text": "MCH [Entitic mass] by Automated count"
        },
        "valueQuantity": {
          "system": "http://unitsofmeasure.org",
          "value": 27.3,
          "unit": "pg",
          "code": "pg"
        },
        "referenceRange": [
          {
            "low": {
              "value": 27,
              "code": "pg",
              "system": "http://unitsofmeasure.org"
            }
          },
          {
            "high": {
              "value": 33.4,
              "code": "pg",
              "system": "http://unitsofmeasure.org"
            }
          }
        ],
        "text": {
          "status": "generated",
          "div": "<div xmlns=\"http://www.w3.org/1999/xhtml\"><table class=\"hl7__eu__lab__report\"><tr><th>Test</th><th>24-Aug-2024</th><th>Reference&#xA0;Range</th><th>Unit</th></tr><tr><td>MCH [Entitic mass] by Automated count</td><td>27.3</td><td>27 - 33.4</td><td></td><td>pg</td></tr></table></div>"
        },
        "status": "final",
        "subject": {
          "reference": "urn:uuid:a3f8f421-e9aa-4800-b1bb-7539f7761f94",
          "display": "Ondrej Machová"
        },
        "effectiveDateTime": "2024-08-24T12:49:06Z"
      }
    },
    {
      "fullUrl": "urn:uuid:e2bc8037-1da7-403f-a3c0-c647d89d4b95",
      "resource": {
        "resourceType": "Observation",
        "id": "e2bc8037-1da7-403f-a3c0-c647d89d4b95",
        "meta": {
          "profile": [
            "http://hl7.eu/fhir/laboratory/StructureDefinition/Observation-resultslab-eu-lab"
          ]
        },
        "performer": [
          {
            "display": "The Central European Lab"
          }
        ],
        "category": [
          {
            "coding": [
              {
                "system": "http://terminology.hl7.org/CodeSystem/observation-category",
                "code": "laboratory"
              }
            ]
          }
        ],
        "code": {
          "coding": [
            {
              "code": "786-4",
              "system": "http://loinc.org",
              "display": "MCHC [Mass/volume] by Automated count"
            }
          ],
          "text": "MCHC [Mass/volume] by Automated count"
        },
        "valueQuantity": {
          "system": "http://unitsofmeasure.org",
          "value": 34,
          "unit": "g/dL",
          "code": "g/dL"
        },
        "referenceRange": [
          {
            "low": {
              "value": 31,
              "code": "g/dL",
              "system": "http://unitsofmeasure.org"
            }
          },
          {
            "high": {
              "value": 37,
              "code": "g/dL",
              "system": "http://unitsofmeasure.org"
            }
          }
        ],
        "text": {
          "status": "generated",
          "div": "<div xmlns=\"http://www.w3.org/1999/xhtml\"><table class=\"hl7__eu__lab__report\"><tr><th>Test</th><th>24-Aug-2024</th><th>Reference&#xA0;Range</th><th>Unit</th></tr><tr><td>MCHC [Mass/volume] by Automated count</td><td>34.0</td><td>31 - 37</td><td></td><td>g/dL</td></tr></table></div>"
        },
        "status": "final",
        "subject": {
          "reference": "urn:uuid:a3f8f421-e9aa-4800-b1bb-7539f7761f94",
          "display": "Ondrej Machová"
        },
        "effectiveDateTime": "2024-08-24T12:49:06Z"
      }
    },
    {
      "fullUrl": "urn:uuid:78581532-7cc4-4726-b651-cc9d0eed2b97",
      "resource": {
        "resourceType": "Observation",
        "id": "78581532-7cc4-4726-b651-cc9d0eed2b97",
        "meta": {
          "profile": [
            "http://hl7.eu/fhir/laboratory/StructureDefinition/Observation-resultslab-eu-lab"
          ]
        },
        "performer": [
          {
            "display": "The Central European Lab"
          }
        ],
        "category": [
          {
            "coding": [
              {
                "system": "http://terminology.hl7.org/CodeSystem/observation-category",
                "code": "laboratory"
              }
            ]
          }
        ],
        "code": {
          "coding": [
            {
              "code": "21000-5",
              "system": "http://loinc.org",
              "display": "Erythrocyte distribution width [Entitic volume] by Automated count"
            }
          ],
          "text": "Erythrocyte distribution width [Entitic volume] by Automated count"
        },
        "valueQuantity": {
          "system": "http://unitsofmeasure.org",
          "value": 40.2,
          "unit": "fL",
          "code": "fL"
        },
        "referenceRange": [
          {
            "low": {
              "value": 35,
              "code": "fL",
              "system": "http://unitsofmeasure.org"
            }
          },
          {
            "high": {
              "value": 55,
              "code": "fL",
              "system": "http://unitsofmeasure.org"
            }
          }
        ],
        "text": {
          "status": "generated",
          "div": "<div xmlns=\"http://www.w3.org/1999/xhtml\"><table class=\"hl7__eu__lab__report\"><tr><th>Test</th><th>24-Aug-2024</th><th>Reference&#xA0;Range</th><th>Unit</th></tr><tr><td>Erythrocyte distribution width [Entitic volume] by Automated count</td><td>40.2</td><td>35 - 55</td><td></td><td>fL</td></tr></table></div>"
        },
        "status": "final",
        "subject": {
          "reference": "urn:uuid:a3f8f421-e9aa-4800-b1bb-7539f7761f94",
          "display": "Ondrej Machová"
        },
        "effectiveDateTime": "2024-08-24T12:49:06Z"
      }
    },
    {
      "fullUrl": "urn:uuid:fdca4d98-abf1-4d0b-8b87-330e018df492",
      "resource": {
        "resourceType": "Observation",
        "id": "fdca4d98-abf1-4d0b-8b87-330e018df492",
        "meta": {
          "profile": [
            "http://hl7.eu/fhir/laboratory/StructureDefinition/Observation-resultslab-eu-lab"
          ]
        },
        "performer": [
          {
            "display": "The Central European Lab"
          }
        ],
        "category": [
          {
            "coding": [
              {
                "system": "http://terminology.hl7.org/CodeSystem/observation-category",
                "code": "laboratory"
              }
            ]
          }
        ],
        "code": {
          "coding": [
            {
              "code": "777-3",
              "system": "http://loinc.org",
              "display": "Platelets [#/volume] in Blood by Automated count"
            }
          ],
          "text": "Platelets [#/volume] in Blood by Automated count"
        },
        "valueQuantity": {
          "system": "http://unitsofmeasure.org",
          "value": 419.9,
          "unit": "10*3/uL",
          "code": "10*3/uL"
        },
        "referenceRange": [
          {
            "low": {
              "value": 150,
              "code": "10*3/uL",
              "system": "http://unitsofmeasure.org"
            }
          },
          {
            "high": {
              "value": 450,
              "code": "10*3/uL",
              "system": "http://unitsofmeasure.org"
            }
          }
        ],
        "text": {
          "status": "generated",
          "div": "<div xmlns=\"http://www.w3.org/1999/xhtml\"><table class=\"hl7__eu__lab__report\"><tr><th>Test</th><th>24-Aug-2024</th><th>Reference&#xA0;Range</th><th>Unit</th></tr><tr><td>Platelets [#/volume] in Blood by Automated count</td><td>419.9</td><td>150 - 450</td><td></td><td>10*3/uL</td></tr></table></div>"
        },
        "status": "final",
        "subject": {
          "reference": "urn:uuid:a3f8f421-e9aa-4800-b1bb-7539f7761f94",
          "display": "Ondrej Machová"
        },
        "effectiveDateTime": "2024-08-24T12:49:06Z"
      }
    },
    {
      "fullUrl": "urn:uuid:b433bb2c-e64e-414a-9e2c-ff80d2fff912",
      "resource": {
        "resourceType": "Observation",
        "id": "b433bb2c-e64e-414a-9e2c-ff80d2fff912",
        "meta": {
          "profile": [
            "http://hl7.eu/fhir/laboratory/StructureDefinition/Observation-resultslab-eu-lab"
          ]
        },
        "performer": [
          {
            "display": "The Central European Lab"
          }
        ],
        "category": [
          {
            "coding": [
              {
                "system": "http://terminology.hl7.org/CodeSystem/observation-category",
                "code": "laboratory"
              }
            ]
          }
        ],
        "code": {
          "coding": [
            {
              "code": "32207-3",
              "system": "http://loinc.org",
              "display": "Platelet distribution width [Entitic volume] in Blood by Automated count"
            }
          ],
          "text": "Platelet distribution width [Entitic volume] in Blood by Automated count"
        },
        "valueQuantity": {
          "system": "http://unitsofmeasure.org",
          "value": 317.9,
          "unit": "fL",
          "code": "fL"
        },
        "referenceRange": [
          {
            "low": {
              "value": 13.4,
              "code": "fL",
              "system": "http://unitsofmeasure.org"
            }
          },
          {
            "high": {
              "value": 17.4,
              "code": "fL",
              "system": "http://unitsofmeasure.org"
            }
          }
        ],
        "interpretation": [
          {
            "coding": [
              {
                "code": "H",
                "system": "http://terminology.hl7.org/CodeSystem/v3-ObservationInterpretation",
                "display": "High"
              }
            ]
          }
        ],
        "text": {
          "status": "generated",
          "div": "<div xmlns=\"http://www.w3.org/1999/xhtml\"><table class=\"hl7__eu__lab__report\"><tr><th>Test</th><th>24-Aug-2024</th><th>Reference&#xA0;Range</th><th>Unit</th></tr><tr><td>Platelet distribution width [Entitic volume] in Blood by Automated count</td><td>317.9</td><td>13.4 - 17.4</td><td>H</td><td>fL</td></tr></table></div>"
        },
        "status": "final",
        "subject": {
          "reference": "urn:uuid:a3f8f421-e9aa-4800-b1bb-7539f7761f94",
          "display": "Ondrej Machová"
        },
        "effectiveDateTime": "2024-08-24T12:49:06Z"
      }
    },
    {
      "fullUrl": "urn:uuid:4bea9f6c-3be8-49a0-84f0-af1d641d01fc",
      "resource": {
        "resourceType": "Observation",
        "id": "4bea9f6c-3be8-49a0-84f0-af1d641d01fc",
        "meta": {
          "profile": [
            "http://hl7.eu/fhir/laboratory/StructureDefinition/Observation-resultslab-eu-lab"
          ]
        },
        "performer": [
          {
            "display": "The Central European Lab"
          }
        ],
        "category": [
          {
            "coding": [
              {
                "system": "http://terminology.hl7.org/CodeSystem/observation-category",
                "code": "laboratory"
              }
            ]
          }
        ],
        "code": {
          "coding": [
            {
              "code": "32623-1",
              "system": "http://loinc.org",
              "display": "Platelet mean volume [Entitic volume] in Blood by Automated count"
            }
          ],
          "text": "Platelet mean volume [Entitic volume] in Blood by Automated count"
        },
        "valueQuantity": {
          "system": "http://unitsofmeasure.org",
          "value": 11.4,
          "unit": "fL",
          "code": "fL"
        },
        "referenceRange": [
          {
            "low": {
              "value": 7.2,
              "code": "fL",
              "system": "http://unitsofmeasure.org"
            }
          },
          {
            "high": {
              "value": 13.8,
              "code": "fL",
              "system": "http://unitsofmeasure.org"
            }
          }
        ],
        "text": {
          "status": "generated",
          "div": "<div xmlns=\"http://www.w3.org/1999/xhtml\"><table class=\"hl7__eu__lab__report\"><tr><th>Test</th><th>24-Aug-2024</th><th>Reference&#xA0;Range</th><th>Unit</th></tr><tr><td>Platelet mean volume [Entitic volume] in Blood by Automated count</td><td>11.4</td><td>7.2 - 13.8</td><td></td><td>fL</td></tr></table></div>"
        },
        "status": "final",
        "subject": {
          "reference": "urn:uuid:a3f8f421-e9aa-4800-b1bb-7539f7761f94",
          "display": "Ondrej Machová"
        },
        "effectiveDateTime": "2024-08-24T12:49:06Z"
      }
    },
    {
      "fullUrl": "urn:uuid:8e39a3ea-ce93-45f8-9502-7fa09fe2240c",
      "resource": {
        "resourceType": "DeviceUseStatement",
        "id": "8e39a3ea-ce93-45f8-9502-7fa09fe2240c",
        "meta": {
          "profile": [
            "http://hl7.eu/fhir/eps/StructureDefinition/deviceUseStatement-eu-eps"
          ]
        },
        "timingPeriod": {
          "start": "2025-02-12"
        },
        "text": {
          "status": "generated",
          "div": "<div xmlns=\"http://www.w3.org/1999/xhtml\"><table class=\"hl7__ips\"><tr><td>Home nebulizer (physical object)</td><td><span class=\"nb\">12-Feb-2025</span></td></tr></table></div>"
        },
        "status": "active",
        "device": {
          "reference": "urn:uuid:414c32b7-a4c3-4d3b-9e64-8a4a0b6cfec6",
          "display": "Home nebulizer (physical object)"
        },
        "subject": {
          "reference": "urn:uuid:a3f8f421-e9aa-4800-b1bb-7539f7761f94",
          "display": "Ondrej Machová"
        }
      }
    },
    {
      "fullUrl": "urn:uuid:414c32b7-a4c3-4d3b-9e64-8a4a0b6cfec6",
      "resource": {
        "resourceType": "Device",
        "id": "414c32b7-a4c3-4d3b-9e64-8a4a0b6cfec6",
        "meta": {
          "profile": [
            "http://hl7.eu/fhir/eps/StructureDefinition/device-eu-eps"
          ]
        },
        "udiCarrier": [
          {
            "id": "(01)36551361185434(11)250122(17)500206(10)656479986609(21)2051173036292"
          }
        ],
        "status": "active",
        "patient": {
          "reference": "urn:uuid:a3f8f421-e9aa-4800-b1bb-7539f7761f94",
          "display": "Ondrej Machová"
        },
        "type": {
          "coding": [
            {
              "code": "170615005",
              "system": "http://snomed.info/sct",
              "display": "Home nebulizer (physical object)"
            }
          ]
        }
      }
    },
    {
      "fullUrl": "urn:uuid:b6754efc-54b9-4989-9865-9745ab248057",
      "resource": {
        "resourceType": "Device",
        "id": "b6754efc-54b9-4989-9865-9745ab248057",
        "deviceName": [
          {
            "name": "SYNDERAI Synthetic Generator",
            "type": "manufacturer-name"
          }
        ],
        "version": [
          {
            "value": "5.0"
          }
        ],
        "text": {
          "status": "generated",
          "div": "<div xmlns=\"http://www.w3.org/1999/xhtml\">SYNDERAI Synthetic Generator v5.0</div>"
        },
        "status": "active\"",
        "distinctIdentifier": "synderai-generator-50",
        "manufacturer": "SYNDERAI Project"
      }
    },
    {
      "fullUrl": "urn:uuid:71d57143-7c33-47d8-82a2-1af75cedd27b",
      "resource": {
        "resourceType": "Provenance",
        "id": "71d57143-7c33-47d8-82a2-1af75cedd27b",
        "target": [
          {
            "reference": "Patient/a3f8f421-e9aa-4800-b1bb-7539f7761f94"
          },
          {
            "reference": "Bundle/afc6d4e0-9fe9-495d-b5bb-88ebc9a579e0"
          },
          {
            "reference": "Composition/82dc2661-f15b-49bb-9863-96089f2302ec"
          },
          {
            "reference": "PractitionerRole/c487d159-49f2-4bed-bc00-e7430bd5ad33"
          },
          {
            "reference": "Organization/0514afe5-bd5a-4dad-b12f-cca31082372e"
          },
          {
            "reference": "Practitioner/fa84e429-c8d0-4744-8648-0bf3e5f5dc75"
          }
        ],
        "activity": {
          "text": "Synthetic Example Data Generation"
        },
        "policy": [
          "https://synderai.net/synderai-synthetic-data-policy"
        ],
        "agent": [
          {
            "type": {
              "text": "author"
            },
            "who": {
              "reference": "Device/b6754efc-54b9-4989-9865-9745ab248057"
            }
          }
        ],
        "reason": [
          {
            "text": "Interoperability Testing and Training (non-clinical use)"
          }
        ],
        "text": {
          "status": "generated",
          "div": "<div xmlns=\"http://www.w3.org/1999/xhtml\">Provenance for SYNDERAI Synthetic Example Data Resource</div>"
        },
        "recorded": "2024-08-24T12:49:06Z"
      }
    }
  ],
  "type": "document",
  "timestamp": "2024-08-24T12:49:06Z"
}
