{
  "resourceType": "Bundle",
  "id": "966c1135-058f-43b1-9de2-d7d3c2e486ab",
  "meta": {
    "profile": [
      "http://hl7.eu/fhir/eps/StructureDefinition/bundle-eu-eps"
    ]
  },
  "identifier": {
    "assigner": {
      "display": "HL7 Europe"
    },
    "system": "urn:oid:2.16.840.1.113883.2.51.999",
    "value": "38feed95-fd2b-4b8a-a1a0-1dd2e7d00d84"
  },
  "entry": [
    {
      "fullUrl": "urn:uuid:2174c262-cbd5-4677-96a8-e5f2218573d0",
      "resource": {
        "resourceType": "Composition",
        "id": "2174c262-cbd5-4677-96a8-e5f2218573d0",
        "meta": {
          "security": [
            {
              "system": "http://terminology.hl7.org/CodeSystem/v3-ActReason",
              "code": "HTEST"
            },
            {
              "system": "http://terminology.hl7.org/CodeSystem/v3-ActReason",
              "code": "TRAIN"
            }
          ],
          "tag": [
            {
              "system": "https://synderai.net/fhir/CodeSystem/tags",
              "code": "synthetic",
              "display": "SYNDERAI Synthetic data"
            }
          ],
          "profile": [
            "http://hl7.eu/fhir/eps/StructureDefinition/composition-eu-eps"
          ]
        },
        "identifier": {
          "assigner": {
            "display": "HL7 Europe"
          },
          "system": "urn:oid:2.16.840.1.113883.2.51.999",
          "value": "0b684535-521c-4509-8c41-7df730551805"
        },
        "type": {
          "coding": [
            {
              "system": "http://loinc.org",
              "code": "60591-5",
              "display": "Patient summary Document"
            }
          ],
          "text": "Patient summary Document"
        },
        "author": [
          {
            "reference": "urn:uuid:9b8efac9-6231-45ea-a244-982a2796e2d4"
          }
        ],
        "section": [
          {
            "text": {
              "status": "generated",
              "div": "<div xmlns=\"http://www.w3.org/1999/xhtml\"><table class=\"hl7__ips\"><tr><th>Condition</th><th>Onset Date</th><th>Status</th></tr><tr><td>Ischemic heart disease</td><td><span class=\"nb\">06-Aug-2022</span></td><td>active</td></tr><tr><td>Osteoarthritis of knee</td><td><span class=\"nb\">24-Oct-2021</span></td><td>active</td></tr><tr><td>Prediabetes</td><td><span class=\"nb\">20-Aug-2005</span></td><td>active</td></tr><tr><td>Anemia</td><td><span class=\"nb\">20-Aug-2005</span></td><td>active</td></tr></table></div>"
            },
            "entry": [
              {
                "reference": "urn:uuid:e5c53f0e-190c-4a88-9434-e698a8c9b901"
              },
              {
                "reference": "urn:uuid:12a89d10-7774-486d-9185-3c78513345f5"
              },
              {
                "reference": "urn:uuid:87625d82-3b78-4bb2-994c-7fa310417723"
              },
              {
                "reference": "urn:uuid:c7eeaf9c-d10f-4d5d-af0f-48ce0a6090a6"
              }
            ],
            "code": {
              "coding": [
                {
                  "system": "http://loinc.org",
                  "code": "11450-4",
                  "display": "Problem list - Reported"
                }
              ]
            },
            "title": "Problem list"
          },
          {
            "text": {
              "status": "generated",
              "div": "<div xmlns=\"http://www.w3.org/1999/xhtml\"><table class=\"hl7__ips\"><tr><th>Medication</th><th>Since</th><th>Form</th><th>Dosage</th><th>Reason</th></tr><tr><td>Acetaminophen 325 mg oral tablet</td><td><span class=\"nb\">2024-08-17</span></td><td>-</td><td>1 tablet (325 mg) by mouth every 4 to 6 hours as needed</td><td>-</td></tr><tr><td>Clopidogrel (as clopidogrel bisulfate) 75 mg oral tablet</td><td><span class=\"nb\">2022-08-13</span></td><td>-</td><td>1 tablet (75 mg) once daily</td><td>-</td></tr><tr><td>Simvastatin 20 mg oral tablet</td><td><span class=\"nb\">2022-08-13</span></td><td>-</td><td>1 tablet (20 mg) by mouth once daily</td><td>-</td></tr><tr><td>Nitroglycerin 400 microgram/actuation sublingual spray</td><td><span class=\"nb\">2022-08-13</span></td><td>-</td><td>400 micrograms (1 spray) under the tongue as needed for chest pain, repeat every 5 minutes if needed, up to 3 sprays in 15 minutes</td><td>-</td></tr><tr><td>Metoprolol tartrate (as metoprolol succinate) 100 mg prolonged-release oral tablet</td><td><span class=\"nb\">2022-08-13</span></td><td>-</td><td>1 tablet (100 mg) once daily</td><td>-</td></tr><tr><td>Naproxen sodium 220 mg oral capsule</td><td><span class=\"nb\">2021-10-24</span></td><td>-</td><td>1 tablet (220 mg) by mouth every 12 hours as needed</td><td>Osteoarthritis of knee</td></tr></table></div>"
            },
            "entry": [
              {
                "reference": "urn:uuid:01a45b72-41e6-4c8f-a834-4f539b58da0b"
              },
              {
                "reference": "urn:uuid:d9cea2d8-70f9-4ecd-b743-1e34a2a771a1"
              },
              {
                "reference": "urn:uuid:994ba7eb-1178-4cd9-8069-93b44fdd4d09"
              },
              {
                "reference": "urn:uuid:4737fc1d-8528-4573-92e1-eb00dfeffa74"
              },
              {
                "reference": "urn:uuid:82c4966e-3518-4fc4-8045-bdfca8d71761"
              },
              {
                "reference": "urn:uuid:22524493-28c2-4d06-9f93-a28104ff9802"
              }
            ],
            "code": {
              "coding": [
                {
                  "system": "http://loinc.org",
                  "code": "10160-0",
                  "display": "History of Medication use Narrative"
                }
              ]
            },
            "title": "Medication list"
          },
          {
            "text": {
              "status": "generated",
              "div": "<div xmlns=\"http://www.w3.org/1999/xhtml\"><table class=\"hl7__ips\"><tr><th>Vaccine</th><th>Date</th></tr><tr><td>Influenza virus antigen only vaccine product</td><td><span class=\"nb\">17-Aug-2024</span></td></tr><tr><td>Clostridium tetani toxoid antigen adsorbed only vaccine product</td><td><span class=\"nb\">06-Aug-2022</span></td></tr><tr><td>Live attenuated Human alphaherpesvirus 3 only vaccine product</td><td><span class=\"nb\">06-Aug-2022</span></td></tr><tr><td>SARS-CoV-2 mRNA vaccine</td><td><span class=\"nb\">10-Apr-2021</span></td></tr></table></div>"
            },
            "entry": [
              {
                "reference": "urn:uuid:3d13d0d9-62e8-4054-8fd5-4c4ce4f5b7cc"
              },
              {
                "reference": "urn:uuid:f5c7f1ee-ffb6-45cd-a316-3d56cd8c00c4"
              },
              {
                "reference": "urn:uuid:4f8df2df-655f-46ce-ac18-81acf04f650b"
              },
              {
                "reference": "urn:uuid:c101cff2-2ff4-4b03-8fc6-05024f3db1de"
              }
            ],
            "code": {
              "coding": [
                {
                  "system": "http://loinc.org",
                  "code": "11369-6",
                  "display": "History of Immunization note"
                }
              ]
            },
            "title": "Immunizations list"
          },
          {
            "text": {
              "status": "generated",
              "div": "<div xmlns=\"http://www.w3.org/1999/xhtml\"><table class=\"hl7__ips\"><tr><th>Procedure</th><th>Date</th><th>Reason</th></tr><tr><td>Medication reconciliation</td><td><span class=\"nb\">16-Mar-2019</span></td><td>-</td></tr><tr><td>Assessment of health and social care needs</td><td><span class=\"nb\">16-Mar-2019</span></td><td>-</td></tr></table></div>"
            },
            "entry": [
              {
                "reference": "urn:uuid:68b68c7f-8dc8-472c-bdb9-fe5e0541d04d"
              },
              {
                "reference": "urn:uuid:a46e035e-3f42-4080-a5c8-d6113541578e"
              }
            ],
            "code": {
              "coding": [
                {
                  "system": "http://loinc.org",
                  "code": "47519-4",
                  "display": "History of Procedures Document"
                }
              ]
            },
            "title": "Procedure History list"
          },
          {
            "text": {
              "status": "generated",
              "div": "<div xmlns=\"http://www.w3.org/1999/xhtml\"><table class=\"hl7__ips\"><tr><th>Allergy/Intolerance</th><th>Onset Date</th><th>Status</th><th>Type</th><th>Reaction</th></tr><tr><td></td><td>?</td><td>active</td><td>?</td><td></td></tr></table></div>"
            },
            "entry": [
              {
                "reference": "urn:uuid:552e2817-50c0-40f2-b1f7-acdc05fbc09f"
              }
            ],
            "code": {
              "coding": [
                {
                  "system": "http://loinc.org",
                  "code": "48765-2",
                  "display": "Allergies and adverse reactions Document"
                }
              ]
            },
            "title": "Allergies and Intolerances"
          },
          {
            "text": {
              "status": "generated",
              "div": "<div xmlns=\"http://www.w3.org/1999/xhtml\"><table class=\"hl7__ips\"><tr><th>Active Planned Care / Goals</th><th>Start Date</th><th>Reason</th></tr><tr><td>Musculoskeletal care</td><td><span class=\"nb\">24-Oct-2021</span></td><td>Osteoarthritis of knee</td></tr><tr><td><ul><li>Reduce knee pain severity to a tolerable level to improve function and quality of life.</li><li>Increase ability to walk and perform daily activities without significant limitation from knee osteoarthritis.</li><li>Decrease swelling and inflammation in the affected knee to improve comfort and mobility.</li></ul></td><td></td><td></td></tr><tr><td>Diabetes self management plan</td><td><span class=\"nb\">20-Aug-2005</span></td><td>Prediabetes</td></tr><tr><td><ul><li>Achieve and maintain HbA1c below 6.5% through lifestyle modification and self-management.</li><li>Reduce body weight to support improved glucose metabolism.</li><li>Engage in at least 150 minutes of moderate-intensity physical activity per week.</li><li>Maintain blood pressure below 130/80 mmHg to reduce cardiovascular risk.</li></ul></td><td></td><td></td></tr></table></div>"
            },
            "entry": [
              {
                "reference": "urn:uuid:c7d5e8d9-4481-4ab8-b0f7-206c07c9902b"
              },
              {
                "reference": "urn:uuid:4afe9197-c596-4376-a5b7-2b0595f10080"
              }
            ],
            "code": {
              "coding": [
                {
                  "system": "http://loinc.org",
                  "code": "18776-5",
                  "display": "Plan of care note"
                }
              ]
            },
            "title": "Care Plan"
          },
          {
            "text": {
              "status": "generated",
              "div": "<div xmlns=\"http://www.w3.org/1999/xhtml\"><table class=\"hl7__ips\"><tr><th>Vital Signs</th><th>2024-08-17</th><th>2023-08-12</th></tr><tr><td>Body Height</td><td>190.2 cm</td><td>190.2 cm</td></tr><tr><td>Pain severity - 0-10 verbal numeric rating [Score] - Reported</td><td>4 {score}</td><td>4 {score}</td></tr><tr><td>Body Weight</td><td>109.7 kg</td><td>109.7 kg</td></tr><tr><td>Body mass index (BMI) [Ratio]</td><td>30.3 kg/m2</td><td>30.3 kg/m2</td></tr><tr><td>Diastolic Blood Pressure</td><td>51 mm[Hg]</td><td>44 mm[Hg]</td></tr><tr><td>Systolic Blood Pressure</td><td>95 mm[Hg]</td><td>85 mm[Hg]</td></tr><tr><td>Heart rate</td><td>75 /min</td><td>96 /min</td></tr><tr><td>Respiratory rate</td><td>15 /min</td><td>16 /min</td></tr></table></div>"
            },
            "entry": [
              {
                "reference": "urn:uuid:5c9c0554-f517-4b4c-9947-0fb2e82cff6c"
              },
              {
                "reference": "urn:uuid:3fc00c75-8a1d-4412-b5de-2ce59d338f80"
              },
              {
                "reference": "urn:uuid:75d3ea90-91de-4c61-bd5d-783494c187ea"
              },
              {
                "reference": "urn:uuid:19d3fa7f-6125-4809-ae6e-3383b4b20195"
              },
              {
                "reference": "urn:uuid:9bef544f-7420-47f3-b99d-da4a09957d17"
              },
              {
                "reference": "urn:uuid:03cc9f51-dc93-4351-a708-725a3c8eb110"
              },
              {
                "reference": "urn:uuid:01048201-692d-431c-af2c-3fd3cbc89eae"
              },
              {
                "reference": "urn:uuid:f5da5c00-ba1e-4d5e-8ac7-da87d3838e50"
              },
              {
                "reference": "urn:uuid:afbbab43-b534-40a6-acc6-cefd35c7b66b"
              },
              {
                "reference": "urn:uuid:14c9b6ad-82b8-4cbb-bc7c-0f764a81e428"
              },
              {
                "reference": "urn:uuid:b4583449-e891-46a3-b65e-0586d545f6b6"
              },
              {
                "reference": "urn:uuid:89fabc2c-b5f8-4f3d-a3e6-aaa30c030000"
              },
              {
                "reference": "urn:uuid:f0239942-c974-4018-86b0-c2cc93979b44"
              },
              {
                "reference": "urn:uuid:2ede6b19-c3aa-4b88-bca4-4523cd2792a6"
              },
              {
                "reference": "urn:uuid:46a642f1-eb4d-4be9-a7a4-d400ae7393d2"
              },
              {
                "reference": "urn:uuid:7fb40d77-bf61-4bb4-9250-2e76c6047247"
              }
            ],
            "code": {
              "coding": [
                {
                  "system": "http://loinc.org",
                  "code": "8716-3",
                  "display": "Vital signs note"
                }
              ]
            },
            "title": "Vital Signs"
          },
          {
            "text": {
              "status": "generated",
              "div": "<div xmlns=\"http://www.w3.org/1999/xhtml\"><table class=\"hl7__ips\"><table class=\"hl7__ips\"><thead><tr><th>Recent Lab Observations</th><th>17-AUG-2024</th><th>Reference&#xA0;Range</th><th>Unit</th></tr></thead><tbody><tr><td>Hemoglobin A1c/Hemoglobin.total in Blood</td><td>5.9</td><td>4.3 - 6.4</td><td>%</td></tr><tr><td>Glucose [Mass/volume] in Blood</td><td>90.3</td><td>70 - 140</td><td>mg/dL</td></tr><tr><td>Urea nitrogen [Mass/volume] in Blood</td><td>7.2</td><td>7 - 20</td><td>mg/dL</td></tr><tr><td>Creatinine [Mass/volume] in Blood</td><td><strong>1.4 H</strong></td><td>0.6 - 1.3</td><td>mg/dL</td></tr><tr><td>Calcium [Mass/volume] in Blood</td><td>9.0</td><td>8.5 - 10.5</td><td>mg/dL</td></tr><tr><td>Sodium [Moles/volume] in Blood</td><td>136.6</td><td>135 - 145</td><td>mmol/L</td></tr><tr><td>Potassium [Moles/volume] in Blood</td><td>5.1</td><td>3.5 - 5.3</td><td>mmol/L</td></tr><tr><td>Chloride [Moles/volume] in Blood</td><td>110.0</td><td>98 - 110</td><td>mmol/L</td></tr><tr><td>Carbon dioxide, total [Moles/volume] in Blood</td><td>28.8</td><td>22 - 29</td><td>mmol/L</td></tr></tbody></table></table></div>"
            },
            "entry": [
              {
                "reference": "urn:uuid:61afdcf0-485e-4118-aa61-8d96cb1dde56"
              },
              {
                "reference": "urn:uuid:ddeca941-13b6-492d-a116-4f077503e743"
              },
              {
                "reference": "urn:uuid:ec8312e6-8b60-42de-88a4-a7ca237772be"
              },
              {
                "reference": "urn:uuid:01cd8a96-afe5-46a2-a553-c114956e832e"
              },
              {
                "reference": "urn:uuid:57d722d2-abbc-428e-a817-3b9459f402db"
              },
              {
                "reference": "urn:uuid:113240d1-787b-4634-acfc-0d4826e5793f"
              },
              {
                "reference": "urn:uuid:f26cf333-34a2-4b23-809d-0d3461c15caf"
              },
              {
                "reference": "urn:uuid:b34a394f-7022-497f-9cfb-59826a4e6e99"
              },
              {
                "reference": "urn:uuid:809d5adc-0cd2-4ca1-93b6-fbeccbcaac44"
              }
            ],
            "code": {
              "coding": [
                {
                  "system": "http://loinc.org",
                  "code": "30954-2",
                  "display": "Relevant diagnostic tests/laboratory data note"
                }
              ]
            },
            "title": "Relevant diagnostic tests/laboratory data"
          },
          {
            "text": {
              "status": "generated",
              "div": "<div xmlns=\"http://www.w3.org/1999/xhtml\"><table class=\"hl7__ips\"><tr><th>Device</th><th>Date (since)</th></tr><tr><td>Wheelchair accessory (physical object)</td><td><span class=\"nb\">24-Oct-2021</span></td></tr><tr><td>Power-assisted wheelchair (physical object)</td><td><span class=\"nb\">24-Oct-2021</span></td></tr><tr><td>Blood glucose meter (physical object)</td><td><span class=\"nb\">20-Aug-2005</span></td></tr></table></div>"
            },
            "entry": [
              {
                "reference": "urn:uuid:be292361-dd54-4156-8bce-497964d0318a"
              },
              {
                "reference": "urn:uuid:7851e28c-cdd0-4b2c-9104-4013ac1a2d81"
              },
              {
                "reference": "urn:uuid:21683fa6-0c60-48f9-8878-883ef15b31ee"
              }
            ],
            "code": {
              "coding": [
                {
                  "system": "http://loinc.org",
                  "code": "46264-8",
                  "display": "History of medical device use"
                }
              ]
            },
            "title": "Device Use"
          }
        ],
        "title": "European Patient Summary",
        "status": "final",
        "subject": {
          "reference": "urn:uuid:bb0da509-ecca-4fc7-8780-563bab3717f0",
          "display": "Andrzej Frydrychowicz"
        },
        "custodian": {
          "reference": "urn:uuid:216a1394-ed04-48ff-a3b0-249e8d9de0e5"
        },
        "date": "2024-08-17",
        "confidentiality": "N"
      }
    },
    {
      "fullUrl": "urn:uuid:bb0da509-ecca-4fc7-8780-563bab3717f0",
      "resource": {
        "resourceType": "Patient",
        "id": "bb0da509-ecca-4fc7-8780-563bab3717f0",
        "meta": {
          "security": [
            {
              "system": "http://terminology.hl7.org/CodeSystem/v3-ActReason",
              "code": "HTEST"
            },
            {
              "system": "http://terminology.hl7.org/CodeSystem/v3-ActReason",
              "code": "TRAIN"
            }
          ],
          "tag": [
            {
              "system": "https://synderai.net/fhir/CodeSystem/tags",
              "code": "synthetic",
              "display": "SYNDERAI Synthetic data"
            }
          ],
          "profile": [
            "http://hl7.eu/fhir/eps/StructureDefinition/patient-eu-eps"
          ]
        },
        "identifier": [
          {
            "type": {
              "coding": [
                {
                  "code": "PT",
                  "system": "http://terminology.hl7.org/CodeSystem/v2-0203"
                }
              ]
            },
            "system": "http://ec.europa.eu/identifier/eci",
            "value": "7036-931598-4"
          },
          {
            "type": {
              "coding": [
                {
                  "code": "MR",
                  "system": "http://terminology.hl7.org/CodeSystem/v2-0203"
                }
              ]
            },
            "system": "http://local.setting.eu/identifier",
            "value": "c84bd820-cdcf-9bc1-d9ba-aa083a5eb400"
          }
        ],
        "name": [
          {
            "family": "Frydrychowicz"
          },
          {
            "given": [
              "Andrzej"
            ]
          },
          {
            "text": "Andrzej Frydrychowicz"
          }
        ],
        "address": [
          {
            "line": [
              "aleja Tulipanowa 94"
            ],
            "use": "home",
            "type": "physical",
            "postalCode": "21-040",
            "city": "Świdnik",
            "country": "Poland"
          }
        ],
        "telecom": [
          {
            "system": "phone",
            "value": "516 092 560"
          }
        ],
        "extension": [
          {
            "url": "http://hl7.org/fhir/StructureDefinition/patient-nationality",
            "valueCodeableConcept": {
              "coding": [
                {
                  "code": "PL",
                  "system": "http://hl7.org/fhir/ValueSet/country"
                }
              ]
            }
          }
        ],
        "text": {
          "status": "generated",
          "div": "<div xmlns=\"http://www.w3.org/1999/xhtml\"><table class=\"hl7__ips\"><tr><td>Andrzej Frydrychowicz</td><td>male</td><td>12-Apr-1974</td></tr></table></div>"
        },
        "gender": "male",
        "birthDate": "1974-04-12"
      }
    },
    {
      "fullUrl": "urn:uuid:9b8efac9-6231-45ea-a244-982a2796e2d4",
      "resource": {
        "resourceType": "PractitionerRole",
        "id": "9b8efac9-6231-45ea-a244-982a2796e2d4",
        "meta": {
          "profile": [
            "http://hl7.eu/fhir/base/StructureDefinition/practitionerRole-eu"
          ]
        },
        "text": {
          "status": "generated",
          "div": "<div xmlns=\"http://www.w3.org/1999/xhtml\"><table class=\"hl7__ips\">Provider Role Id 9b8efac9-6231-45ea-a244-982a2796e2d4</table></div>"
        },
        "practitioner": {
          "reference": "urn:uuid:aca8bed2-ba82-4f00-afa9-c013901ab202"
        },
        "organization": {
          "reference": "urn:uuid:216a1394-ed04-48ff-a3b0-249e8d9de0e5"
        }
      }
    },
    {
      "fullUrl": "urn:uuid:aca8bed2-ba82-4f00-afa9-c013901ab202",
      "resource": {
        "resourceType": "Practitioner",
        "id": "aca8bed2-ba82-4f00-afa9-c013901ab202",
        "meta": {
          "profile": [
            "http://hl7.eu/fhir/base/StructureDefinition/practitioner-eu"
          ]
        },
        "name": [
          {
            "prefix": [
              "Dr."
            ],
            "given": [
              "Hel"
            ],
            "family": "Ping"
          }
        ],
        "text": {
          "status": "generated",
          "div": "<div xmlns=\"http://www.w3.org/1999/xhtml\"><table class=\"hl7__ips\">Dr. Hel Ping</table></div>"
        }
      }
    },
    {
      "fullUrl": "urn:uuid:216a1394-ed04-48ff-a3b0-249e8d9de0e5",
      "resource": {
        "resourceType": "Organization",
        "id": "216a1394-ed04-48ff-a3b0-249e8d9de0e5",
        "meta": {
          "profile": [
            "http://hl7.eu/fhir/base/StructureDefinition/organization-eu"
          ]
        },
        "identifier": [
          {
            "assigner": {
              "display": "HL7 Europe"
            },
            "system": "urn:oid:2.16.840.1.113883.2.51.999",
            "value": "6b41a270-99cd-464d-ba60-68975c1a6293"
          }
        ],
        "address": [
          {
            "line": [
              "Aleja Lotników Polskich 82"
            ],
            "city": "Świdnik",
            "postalCode": "21-040",
            "country": "Poland"
          }
        ],
        "text": {
          "status": "generated",
          "div": "<div xmlns=\"http://www.w3.org/1999/xhtml\"><table class=\"hl7__ips\">Lubelskie Centrum Diagnostyczne</table></div>"
        },
        "name": "Lubelskie Centrum Diagnostyczne"
      }
    },
    {
      "fullUrl": "urn:uuid:e5c53f0e-190c-4a88-9434-e698a8c9b901",
      "resource": {
        "resourceType": "Condition",
        "id": "e5c53f0e-190c-4a88-9434-e698a8c9b901",
        "meta": {
          "profile": [
            "http://hl7.org/fhir/uv/ips/StructureDefinition/Condition-uv-ips"
          ]
        },
        "category": [
          {
            "coding": [
              {
                "code": "problem-list-item",
                "system": "http://terminology.hl7.org/CodeSystem/condition-category",
                "display": "Problem List Item"
              }
            ]
          }
        ],
        "code": {
          "coding": [
            {
              "code": "414545008",
              "system": "http://snomed.info/sct",
              "display": "Ischemic heart disease (disorder)"
            }
          ],
          "text": "Ischemic heart disease"
        },
        "text": {
          "status": "generated",
          "div": "<div xmlns=\"http://www.w3.org/1999/xhtml\"><table class=\"hl7__ips\"><tr><td>Ischemic heart disease</td><td><span class=\"nb\">06-Aug-2022</span></td><td>active</td></tr></table></div>"
        },
        "onsetDateTime": "2022-08-06",
        "subject": {
          "reference": "urn:uuid:",
          "display": "Andrzej Frydrychowicz"
        },
        "asserter": {
          "reference": "urn:uuid:",
          "display": "Lubelskie Centrum Diagnostyczne"
        }
      }
    },
    {
      "fullUrl": "urn:uuid:12a89d10-7774-486d-9185-3c78513345f5",
      "resource": {
        "resourceType": "Condition",
        "id": "12a89d10-7774-486d-9185-3c78513345f5",
        "meta": {
          "profile": [
            "http://hl7.org/fhir/uv/ips/StructureDefinition/Condition-uv-ips"
          ]
        },
        "category": [
          {
            "coding": [
              {
                "code": "problem-list-item",
                "system": "http://terminology.hl7.org/CodeSystem/condition-category",
                "display": "Problem List Item"
              }
            ]
          }
        ],
        "code": {
          "coding": [
            {
              "code": "239873007",
              "system": "http://snomed.info/sct",
              "display": "Osteoarthritis of knee (disorder)"
            }
          ],
          "text": "Osteoarthritis of knee"
        },
        "text": {
          "status": "generated",
          "div": "<div xmlns=\"http://www.w3.org/1999/xhtml\"><table class=\"hl7__ips\"><tr><td>Osteoarthritis of knee</td><td><span class=\"nb\">24-Oct-2021</span></td><td>active</td></tr></table></div>"
        },
        "onsetDateTime": "2021-10-24",
        "subject": {
          "reference": "urn:uuid:",
          "display": "Andrzej Frydrychowicz"
        },
        "asserter": {
          "reference": "urn:uuid:",
          "display": "Lubelskie Centrum Diagnostyczne"
        }
      }
    },
    {
      "fullUrl": "urn:uuid:87625d82-3b78-4bb2-994c-7fa310417723",
      "resource": {
        "resourceType": "Condition",
        "id": "87625d82-3b78-4bb2-994c-7fa310417723",
        "meta": {
          "profile": [
            "http://hl7.org/fhir/uv/ips/StructureDefinition/Condition-uv-ips"
          ]
        },
        "category": [
          {
            "coding": [
              {
                "code": "problem-list-item",
                "system": "http://terminology.hl7.org/CodeSystem/condition-category",
                "display": "Problem List Item"
              }
            ]
          }
        ],
        "code": {
          "coding": [
            {
              "code": "15777000",
              "system": "http://snomed.info/sct",
              "display": "Prediabetes (disorder)"
            }
          ],
          "text": "Prediabetes"
        },
        "text": {
          "status": "generated",
          "div": "<div xmlns=\"http://www.w3.org/1999/xhtml\"><table class=\"hl7__ips\"><tr><td>Prediabetes</td><td><span class=\"nb\">20-Aug-2005</span></td><td>active</td></tr></table></div>"
        },
        "onsetDateTime": "2005-08-20",
        "subject": {
          "reference": "urn:uuid:",
          "display": "Andrzej Frydrychowicz"
        },
        "asserter": {
          "reference": "urn:uuid:",
          "display": "Lubelskie Centrum Diagnostyczne"
        }
      }
    },
    {
      "fullUrl": "urn:uuid:c7eeaf9c-d10f-4d5d-af0f-48ce0a6090a6",
      "resource": {
        "resourceType": "Condition",
        "id": "c7eeaf9c-d10f-4d5d-af0f-48ce0a6090a6",
        "meta": {
          "profile": [
            "http://hl7.org/fhir/uv/ips/StructureDefinition/Condition-uv-ips"
          ]
        },
        "category": [
          {
            "coding": [
              {
                "code": "problem-list-item",
                "system": "http://terminology.hl7.org/CodeSystem/condition-category",
                "display": "Problem List Item"
              }
            ]
          }
        ],
        "code": {
          "coding": [
            {
              "code": "271737000",
              "system": "http://snomed.info/sct",
              "display": "Anemia (disorder)"
            }
          ],
          "text": "Anemia"
        },
        "text": {
          "status": "generated",
          "div": "<div xmlns=\"http://www.w3.org/1999/xhtml\"><table class=\"hl7__ips\"><tr><td>Anemia</td><td><span class=\"nb\">20-Aug-2005</span></td><td>active</td></tr></table></div>"
        },
        "onsetDateTime": "2005-08-20",
        "subject": {
          "reference": "urn:uuid:",
          "display": "Andrzej Frydrychowicz"
        },
        "asserter": {
          "reference": "urn:uuid:",
          "display": "Lubelskie Centrum Diagnostyczne"
        }
      }
    },
    {
      "fullUrl": "urn:uuid:07c204c3-7214-46c5-91b5-9a7e37e4ce60",
      "resource": {
        "resourceType": "Condition",
        "id": "07c204c3-7214-46c5-91b5-9a7e37e4ce60",
        "meta": {
          "profile": [
            "http://hl7.org/fhir/uv/ips/StructureDefinition/Condition-uv-ips"
          ]
        },
        "category": [
          {
            "coding": [
              {
                "code": "problem-list-item",
                "system": "http://terminology.hl7.org/CodeSystem/condition-category",
                "display": "Problem List Item"
              }
            ]
          }
        ],
        "code": {
          "coding": [
            {
              "code": "195662009",
              "system": "http://snomed.info/sct",
              "display": "Acute viral pharyngitis (disorder)"
            }
          ],
          "text": "Acute viral pharyngitis"
        },
        "text": {
          "status": "generated",
          "div": "<div xmlns=\"http://www.w3.org/1999/xhtml\"><table class=\"hl7__ips\"><tr><td><span class=\"grayedout\">Acute viral pharyngitis</span></td><td><span class=\"nb\">19-Apr-2022 - 28-Apr-2022</span></td><td><span class=\"grayedout\">inactive</span></td></tr></table></div>"
        },
        "onsetDateTime": "2022-04-19",
        "abatementDateTime": "2022-04-28",
        "subject": {
          "reference": "urn:uuid:",
          "display": "Andrzej Frydrychowicz"
        },
        "asserter": {
          "reference": "urn:uuid:",
          "display": "Lubelskie Centrum Diagnostyczne"
        }
      }
    },
    {
      "fullUrl": "urn:uuid:9b4b9a2d-b659-4a47-a440-5f6b649aa661",
      "resource": {
        "resourceType": "Condition",
        "id": "9b4b9a2d-b659-4a47-a440-5f6b649aa661",
        "meta": {
          "profile": [
            "http://hl7.org/fhir/uv/ips/StructureDefinition/Condition-uv-ips"
          ]
        },
        "category": [
          {
            "coding": [
              {
                "code": "problem-list-item",
                "system": "http://terminology.hl7.org/CodeSystem/condition-category",
                "display": "Problem List Item"
              }
            ]
          }
        ],
        "code": {
          "coding": [
            {
              "code": "195662009",
              "system": "http://snomed.info/sct",
              "display": "Acute viral pharyngitis (disorder)"
            }
          ],
          "text": "Acute viral pharyngitis"
        },
        "text": {
          "status": "generated",
          "div": "<div xmlns=\"http://www.w3.org/1999/xhtml\"><table class=\"hl7__ips\"><tr><td><span class=\"grayedout\">Acute viral pharyngitis</span></td><td><span class=\"nb\">07-Aug-2021 - 19-Aug-2021</span></td><td><span class=\"grayedout\">inactive</span></td></tr></table></div>"
        },
        "onsetDateTime": "2021-08-07",
        "abatementDateTime": "2021-08-19",
        "subject": {
          "reference": "urn:uuid:",
          "display": "Andrzej Frydrychowicz"
        },
        "asserter": {
          "reference": "urn:uuid:",
          "display": "Lubelskie Centrum Diagnostyczne"
        }
      }
    },
    {
      "fullUrl": "urn:uuid:d9b7dffe-195c-4789-8483-889cdddd6395",
      "resource": {
        "resourceType": "Condition",
        "id": "d9b7dffe-195c-4789-8483-889cdddd6395",
        "meta": {
          "profile": [
            "http://hl7.org/fhir/uv/ips/StructureDefinition/Condition-uv-ips"
          ]
        },
        "category": [
          {
            "coding": [
              {
                "code": "problem-list-item",
                "system": "http://terminology.hl7.org/CodeSystem/condition-category",
                "display": "Problem List Item"
              }
            ]
          }
        ],
        "code": {
          "coding": [
            {
              "code": "10509002",
              "system": "http://snomed.info/sct",
              "display": "Acute bronchitis (disorder)"
            }
          ],
          "text": "Acute bronchitis"
        },
        "text": {
          "status": "generated",
          "div": "<div xmlns=\"http://www.w3.org/1999/xhtml\"><table class=\"hl7__ips\"><tr><td><span class=\"grayedout\">Acute bronchitis</span></td><td><span class=\"nb\">30-Mar-2019 - 18-Apr-2019</span></td><td><span class=\"grayedout\">inactive</span></td></tr></table></div>"
        },
        "onsetDateTime": "2019-03-30",
        "abatementDateTime": "2019-04-18",
        "subject": {
          "reference": "urn:uuid:",
          "display": "Andrzej Frydrychowicz"
        },
        "asserter": {
          "reference": "urn:uuid:",
          "display": "Lubelskie Centrum Diagnostyczne"
        }
      }
    },
    {
      "fullUrl": "urn:uuid:fd15f8ed-1ecb-4d62-b270-ce5d3d5bb2e5",
      "resource": {
        "resourceType": "Medication",
        "id": "fd15f8ed-1ecb-4d62-b270-ce5d3d5bb2e5",
        "meta": {
          "profile": [
            "http://hl7.eu/fhir/eps/StructureDefinition/Medication-eu-eps"
          ]
        },
        "code": {
          "coding": [
            {
              "code": "370150001",
              "system": "http://snomed.info/sct",
              "display": "Acetaminophen 325 mg oral tablet"
            }
          ],
          "text": "Acetaminophen 325 mg oral tablet"
        },
        "text": {
          "status": "generated",
          "div": "<div xmlns=\"http://www.w3.org/1999/xhtml\">Acetaminophen 325 mg oral tablet</div>"
        }
      }
    },
    {
      "fullUrl": "urn:uuid:01a45b72-41e6-4c8f-a834-4f539b58da0b",
      "resource": {
        "resourceType": "MedicationStatement",
        "id": "01a45b72-41e6-4c8f-a834-4f539b58da0b",
        "meta": {
          "profile": [
            "http://hl7.eu/fhir/eps/StructureDefinition/MedicationStatement-eu-eps"
          ]
        },
        "effectivePeriod": {
          "start": "2024-08-17"
        },
        "dosage": [
          {
            "doseAndRate": [
              {
                "doseQuantity": {
                  "value": 1,
                  "unit": "{tbl}",
                  "system": "$ucum",
                  "code": "{tbl}"
                }
              }
            ],
            "timing": {
              "repeat": {
                "frequency": 6,
                "period": 1,
                "periodUnit": "d"
              }
            },
            "text": "1 tablet (325 mg) by mouth every 4 to 6 hours as needed",
            "asNeededBoolean": true
          }
        ],
        "text": {
          "status": "generated",
          "div": "<div xmlns=\"http://www.w3.org/1999/xhtml\"><table class=\"hl7__ips first25\"><tr><th>Medication</th><th>Since</th><th>Form</th><th>Dosage</th><th>Reason</th></tr><tr><td>Acetaminophen 325 mg oral tablet</td><td><span class=\"nb\">2024-08-17</span></td><td>-</td><td>1 tablet (325 mg) by mouth every 4 to 6 hours as needed</td><td>-</td></tr></table></div>"
        },
        "status": "active",
        "medicationReference": {
          "reference": "urn:uuid:fd15f8ed-1ecb-4d62-b270-ce5d3d5bb2e5",
          "display": "Acetaminophen 325 mg oral tablet"
        },
        "subject": {
          "reference": "urn:uuid:bb0da509-ecca-4fc7-8780-563bab3717f0",
          "display": "Andrzej Frydrychowicz"
        }
      }
    },
    {
      "fullUrl": "urn:uuid:33d2891d-e5fa-46ad-861b-4d959b6272b9",
      "resource": {
        "resourceType": "Medication",
        "id": "33d2891d-e5fa-46ad-861b-4d959b6272b9",
        "meta": {
          "profile": [
            "http://hl7.eu/fhir/eps/StructureDefinition/Medication-eu-eps"
          ]
        },
        "code": {
          "coding": [
            {
              "code": "783586007",
              "system": "http://snomed.info/sct",
              "display": "Clopidogrel (as clopidogrel bisulfate) 75 mg oral tablet"
            }
          ],
          "text": "Clopidogrel (as clopidogrel bisulfate) 75 mg oral tablet"
        },
        "text": {
          "status": "generated",
          "div": "<div xmlns=\"http://www.w3.org/1999/xhtml\">Clopidogrel (as clopidogrel bisulfate) 75 mg oral tablet</div>"
        }
      }
    },
    {
      "fullUrl": "urn:uuid:d9cea2d8-70f9-4ecd-b743-1e34a2a771a1",
      "resource": {
        "resourceType": "MedicationStatement",
        "id": "d9cea2d8-70f9-4ecd-b743-1e34a2a771a1",
        "meta": {
          "profile": [
            "http://hl7.eu/fhir/eps/StructureDefinition/MedicationStatement-eu-eps"
          ]
        },
        "effectivePeriod": {
          "start": "2022-08-13"
        },
        "dosage": [
          {
            "doseAndRate": [
              {
                "doseQuantity": {
                  "value": 1,
                  "unit": "{tbl}",
                  "system": "$ucum",
                  "code": "{tbl}"
                }
              }
            ],
            "timing": {
              "repeat": {
                "frequency": 1,
                "period": 1,
                "periodUnit": "d"
              }
            },
            "text": "1 tablet (75 mg) once daily",
            "asNeededBoolean": false
          }
        ],
        "text": {
          "status": "generated",
          "div": "<div xmlns=\"http://www.w3.org/1999/xhtml\"><table class=\"hl7__ips first25\"><tr><th>Medication</th><th>Since</th><th>Form</th><th>Dosage</th><th>Reason</th></tr><tr><td>Clopidogrel (as clopidogrel bisulfate) 75 mg oral tablet</td><td><span class=\"nb\">2022-08-13</span></td><td>-</td><td>1 tablet (75 mg) once daily</td><td>-</td></tr></table></div>"
        },
        "status": "active",
        "medicationReference": {
          "reference": "urn:uuid:33d2891d-e5fa-46ad-861b-4d959b6272b9",
          "display": "Clopidogrel (as clopidogrel bisulfate) 75 mg oral tablet"
        },
        "subject": {
          "reference": "urn:uuid:bb0da509-ecca-4fc7-8780-563bab3717f0",
          "display": "Andrzej Frydrychowicz"
        }
      }
    },
    {
      "fullUrl": "urn:uuid:96a26ea2-ccc2-4dd7-b4a2-14e5a05502fd",
      "resource": {
        "resourceType": "Medication",
        "id": "96a26ea2-ccc2-4dd7-b4a2-14e5a05502fd",
        "meta": {
          "profile": [
            "http://hl7.eu/fhir/eps/StructureDefinition/Medication-eu-eps"
          ]
        },
        "code": {
          "coding": [
            {
              "code": "319997009",
              "system": "http://snomed.info/sct",
              "display": "Simvastatin 20 mg oral tablet"
            }
          ],
          "text": "Simvastatin 20 mg oral tablet"
        },
        "text": {
          "status": "generated",
          "div": "<div xmlns=\"http://www.w3.org/1999/xhtml\">Simvastatin 20 mg oral tablet</div>"
        }
      }
    },
    {
      "fullUrl": "urn:uuid:994ba7eb-1178-4cd9-8069-93b44fdd4d09",
      "resource": {
        "resourceType": "MedicationStatement",
        "id": "994ba7eb-1178-4cd9-8069-93b44fdd4d09",
        "meta": {
          "profile": [
            "http://hl7.eu/fhir/eps/StructureDefinition/MedicationStatement-eu-eps"
          ]
        },
        "effectivePeriod": {
          "start": "2022-08-13"
        },
        "dosage": [
          {
            "doseAndRate": [
              {
                "doseQuantity": {
                  "value": 1,
                  "unit": "{tbl}",
                  "code": "{tbl}"
                }
              }
            ],
            "timing": {
              "repeat": {
                "frequency": 1,
                "period": 1,
                "periodUnit": "d"
              }
            },
            "text": "1 tablet (20 mg) by mouth once daily",
            "asNeededBoolean": false
          }
        ],
        "text": {
          "status": "generated",
          "div": "<div xmlns=\"http://www.w3.org/1999/xhtml\"><table class=\"hl7__ips first25\"><tr><th>Medication</th><th>Since</th><th>Form</th><th>Dosage</th><th>Reason</th></tr><tr><td>Simvastatin 20 mg oral tablet</td><td><span class=\"nb\">2022-08-13</span></td><td>-</td><td>1 tablet (20 mg) by mouth once daily</td><td>-</td></tr></table></div>"
        },
        "status": "active",
        "medicationReference": {
          "reference": "urn:uuid:96a26ea2-ccc2-4dd7-b4a2-14e5a05502fd",
          "display": "Simvastatin 20 mg oral tablet"
        },
        "subject": {
          "reference": "urn:uuid:bb0da509-ecca-4fc7-8780-563bab3717f0",
          "display": "Andrzej Frydrychowicz"
        }
      }
    },
    {
      "fullUrl": "urn:uuid:545c4d85-92a7-4767-95b6-f8d21c573556",
      "resource": {
        "resourceType": "Medication",
        "id": "545c4d85-92a7-4767-95b6-f8d21c573556",
        "meta": {
          "profile": [
            "http://hl7.eu/fhir/eps/StructureDefinition/Medication-eu-eps"
          ]
        },
        "code": {
          "coding": [
            {
              "code": "425176000",
              "system": "http://snomed.info/sct",
              "display": "Nitroglycerin 400 microgram/actuation sublingual spray"
            }
          ],
          "text": "Nitroglycerin 400 microgram/actuation sublingual spray"
        },
        "text": {
          "status": "generated",
          "div": "<div xmlns=\"http://www.w3.org/1999/xhtml\">Nitroglycerin 400 microgram/actuation sublingual spray</div>"
        }
      }
    },
    {
      "fullUrl": "urn:uuid:4737fc1d-8528-4573-92e1-eb00dfeffa74",
      "resource": {
        "resourceType": "MedicationStatement",
        "id": "4737fc1d-8528-4573-92e1-eb00dfeffa74",
        "meta": {
          "profile": [
            "http://hl7.eu/fhir/eps/StructureDefinition/MedicationStatement-eu-eps"
          ]
        },
        "effectivePeriod": {
          "start": "2022-08-13"
        },
        "dosage": [
          {
            "doseAndRate": [
              {
                "doseQuantity": {
                  "value": 400,
                  "unit": "mcg",
                  "system": "$ucum",
                  "code": "mcg"
                }
              }
            ],
            "timing": {
              "repeat": {
                "frequency": 1,
                "period": 5,
                "periodUnit": "min"
              }
            },
            "text": "400 micrograms (1 spray) under the tongue as needed for chest pain, repeat every 5 minutes if needed, up to 3 sprays in 15 minutes",
            "asNeededBoolean": true
          }
        ],
        "text": {
          "status": "generated",
          "div": "<div xmlns=\"http://www.w3.org/1999/xhtml\"><table class=\"hl7__ips first25\"><tr><th>Medication</th><th>Since</th><th>Form</th><th>Dosage</th><th>Reason</th></tr><tr><td>Nitroglycerin 400 microgram/actuation sublingual spray</td><td><span class=\"nb\">2022-08-13</span></td><td>-</td><td>400 micrograms (1 spray) under the tongue as needed for chest pain, repeat every 5 minutes if needed, up to 3 sprays in 15 minutes</td><td>-</td></tr></table></div>"
        },
        "status": "active",
        "medicationReference": {
          "reference": "urn:uuid:545c4d85-92a7-4767-95b6-f8d21c573556",
          "display": "Nitroglycerin 400 microgram/actuation sublingual spray"
        },
        "subject": {
          "reference": "urn:uuid:bb0da509-ecca-4fc7-8780-563bab3717f0",
          "display": "Andrzej Frydrychowicz"
        }
      }
    },
    {
      "fullUrl": "urn:uuid:f8a34b9c-d9e3-406d-a523-27e7b7ccc774",
      "resource": {
        "resourceType": "Medication",
        "id": "f8a34b9c-d9e3-406d-a523-27e7b7ccc774",
        "meta": {
          "profile": [
            "http://hl7.eu/fhir/eps/StructureDefinition/Medication-eu-eps"
          ]
        },
        "code": {
          "coding": [
            {
              "code": "879980009",
              "system": "http://snomed.info/sct",
              "display": "Metoprolol tartrate (as metoprolol succinate) 100 mg prolonged-release oral tablet"
            }
          ],
          "text": "Metoprolol tartrate (as metoprolol succinate) 100 mg prolonged-release oral tablet"
        },
        "text": {
          "status": "generated",
          "div": "<div xmlns=\"http://www.w3.org/1999/xhtml\">Metoprolol tartrate (as metoprolol succinate) 100 mg prolonged-release oral tablet</div>"
        }
      }
    },
    {
      "fullUrl": "urn:uuid:82c4966e-3518-4fc4-8045-bdfca8d71761",
      "resource": {
        "resourceType": "MedicationStatement",
        "id": "82c4966e-3518-4fc4-8045-bdfca8d71761",
        "meta": {
          "profile": [
            "http://hl7.eu/fhir/eps/StructureDefinition/MedicationStatement-eu-eps"
          ]
        },
        "effectivePeriod": {
          "start": "2022-08-13"
        },
        "dosage": [
          {
            "doseAndRate": [
              {
                "doseQuantity": {
                  "value": 1,
                  "unit": "{tbl}",
                  "system": "$ucum",
                  "code": "{tbl}"
                }
              }
            ],
            "timing": {
              "repeat": {
                "frequency": 1,
                "period": 1,
                "periodUnit": "d"
              }
            },
            "text": "1 tablet (100 mg) once daily",
            "asNeededBoolean": false
          }
        ],
        "text": {
          "status": "generated",
          "div": "<div xmlns=\"http://www.w3.org/1999/xhtml\"><table class=\"hl7__ips first25\"><tr><th>Medication</th><th>Since</th><th>Form</th><th>Dosage</th><th>Reason</th></tr><tr><td>Metoprolol tartrate (as metoprolol succinate) 100 mg prolonged-release oral tablet</td><td><span class=\"nb\">2022-08-13</span></td><td>-</td><td>1 tablet (100 mg) once daily</td><td>-</td></tr></table></div>"
        },
        "status": "active",
        "medicationReference": {
          "reference": "urn:uuid:f8a34b9c-d9e3-406d-a523-27e7b7ccc774",
          "display": "Metoprolol tartrate (as metoprolol succinate) 100 mg prolonged-release oral tablet"
        },
        "subject": {
          "reference": "urn:uuid:bb0da509-ecca-4fc7-8780-563bab3717f0",
          "display": "Andrzej Frydrychowicz"
        }
      }
    },
    {
      "fullUrl": "urn:uuid:2eaa3044-4a19-400c-a0c6-40861ad7bcae",
      "resource": {
        "resourceType": "Medication",
        "id": "2eaa3044-4a19-400c-a0c6-40861ad7bcae",
        "meta": {
          "profile": [
            "http://hl7.eu/fhir/eps/StructureDefinition/Medication-eu-eps"
          ]
        },
        "code": {
          "coding": [
            {
              "code": "420276008",
              "system": "http://snomed.info/sct",
              "display": "Naproxen sodium 220 mg oral capsule"
            }
          ],
          "text": "Naproxen sodium 220 mg oral capsule"
        },
        "text": {
          "status": "generated",
          "div": "<div xmlns=\"http://www.w3.org/1999/xhtml\">Naproxen sodium 220 mg oral capsule</div>"
        }
      }
    },
    {
      "fullUrl": "urn:uuid:22524493-28c2-4d06-9f93-a28104ff9802",
      "resource": {
        "resourceType": "MedicationStatement",
        "id": "22524493-28c2-4d06-9f93-a28104ff9802",
        "meta": {
          "profile": [
            "http://hl7.eu/fhir/eps/StructureDefinition/MedicationStatement-eu-eps"
          ]
        },
        "effectivePeriod": {
          "start": "2021-10-24"
        },
        "dosage": [
          {
            "doseAndRate": [
              {
                "doseQuantity": {
                  "value": 1,
                  "unit": "{tbl}",
                  "system": "$ucum",
                  "code": "{tbl}"
                }
              }
            ],
            "timing": {
              "repeat": {
                "frequency": 2,
                "period": 1,
                "periodUnit": "d"
              }
            },
            "text": "1 tablet (220 mg) by mouth every 12 hours as needed",
            "asNeededBoolean": true
          }
        ],
        "reasonCode": [
          {
            "coding": [
              {
                "code": "239873007",
                "system": "http://snomed.info/sct",
                "display": "Osteoarthritis of knee"
              }
            ]
          }
        ],
        "text": {
          "status": "generated",
          "div": "<div xmlns=\"http://www.w3.org/1999/xhtml\"><table class=\"hl7__ips first25\"><tr><th>Medication</th><th>Since</th><th>Form</th><th>Dosage</th><th>Reason</th></tr><tr><td>Naproxen sodium 220 mg oral capsule</td><td><span class=\"nb\">2021-10-24</span></td><td>-</td><td>1 tablet (220 mg) by mouth every 12 hours as needed</td><td>Osteoarthritis of knee</td></tr></table></div>"
        },
        "status": "active",
        "medicationReference": {
          "reference": "urn:uuid:2eaa3044-4a19-400c-a0c6-40861ad7bcae",
          "display": "Naproxen sodium 220 mg oral capsule"
        },
        "subject": {
          "reference": "urn:uuid:bb0da509-ecca-4fc7-8780-563bab3717f0",
          "display": "Andrzej Frydrychowicz"
        }
      }
    },
    {
      "fullUrl": "urn:uuid:3d13d0d9-62e8-4054-8fd5-4c4ce4f5b7cc",
      "resource": {
        "resourceType": "Immunization",
        "id": "3d13d0d9-62e8-4054-8fd5-4c4ce4f5b7cc",
        "meta": {
          "profile": [
            "http://hl7.org/fhir/uv/ips/StructureDefinition/Immunization-uv-ips"
          ]
        },
        "vaccineCode": {
          "coding": [
            {
              "code": "1181000221105",
              "system": "http://snomed.info/sct",
              "display": "Vaccine product containing Influenza virus antigen"
            },
            {
              "code": "J07BB02",
              "system": "http://www.whocc.no/atc",
              "display": "Influenza, inactivated, split virus"
            }
          ],
          "text": "Influenza virus antigen only vaccine product"
        },
        "site": {
          "coding": [
            {
              "code": "244979005",
              "system": "http://snomed.info/sct",
              "display": "Entire muscle of upper arm"
            }
          ],
          "text": "Entire muscle of upper arm"
        },
        "route": {
          "coding": [
            {
              "code": "78421000",
              "system": "http://snomed.info/sct",
              "display": "Intramuscular route"
            }
          ],
          "text": "Intramuscular route"
        },
        "text": {
          "status": "generated",
          "div": "<div xmlns=\"http://www.w3.org/1999/xhtml\"><table class=\"hl7__ips\"><tr><td>Influenza virus antigen only vaccine product</td><td><span class=\"nb\">17-Aug-2024</span></td></tr></table></div>"
        },
        "status": "completed",
        "patient": {
          "reference": "urn:uuid:bb0da509-ecca-4fc7-8780-563bab3717f0",
          "display": "Andrzej Frydrychowicz"
        },
        "occurrenceDateTime": "2024-08-17",
        "lotNumber": "HY-fHuMv",
        "expirationDate": "2024-11-21"
      }
    },
    {
      "fullUrl": "urn:uuid:f5c7f1ee-ffb6-45cd-a316-3d56cd8c00c4",
      "resource": {
        "resourceType": "Immunization",
        "id": "f5c7f1ee-ffb6-45cd-a316-3d56cd8c00c4",
        "meta": {
          "profile": [
            "http://hl7.org/fhir/uv/ips/StructureDefinition/Immunization-uv-ips"
          ]
        },
        "vaccineCode": {
          "coding": [
            {
              "code": "777725002",
              "system": "http://snomed.info/sct",
              "display": "Vaccine product containing only Clostridium tetani toxoid antigen adsorbed"
            },
            {
              "code": "J07AM51",
              "system": "http://www.whocc.no/atc",
              "display": "Diphtheria-tetanus vaccines, adult type"
            }
          ],
          "text": "Clostridium tetani toxoid antigen adsorbed only vaccine product"
        },
        "site": {
          "coding": [
            {
              "code": "244979005",
              "system": "http://snomed.info/sct",
              "display": "Entire muscle of upper arm"
            }
          ],
          "text": "Entire muscle of upper arm"
        },
        "route": {
          "coding": [
            {
              "code": "78421000",
              "system": "http://snomed.info/sct",
              "display": "Intramuscular route"
            }
          ],
          "text": "Intramuscular route"
        },
        "text": {
          "status": "generated",
          "div": "<div xmlns=\"http://www.w3.org/1999/xhtml\"><table class=\"hl7__ips\"><tr><td>Clostridium tetani toxoid antigen adsorbed only vaccine product</td><td><span class=\"nb\">06-Aug-2022</span></td></tr></table></div>"
        },
        "status": "completed",
        "patient": {
          "reference": "urn:uuid:bb0da509-ecca-4fc7-8780-563bab3717f0",
          "display": "Andrzej Frydrychowicz"
        },
        "occurrenceDateTime": "2022-08-06",
        "lotNumber": "OD-T63cjmHp",
        "expirationDate": "2023-03-11"
      }
    },
    {
      "fullUrl": "urn:uuid:4f8df2df-655f-46ce-ac18-81acf04f650b",
      "resource": {
        "resourceType": "Immunization",
        "id": "4f8df2df-655f-46ce-ac18-81acf04f650b",
        "meta": {
          "profile": [
            "http://hl7.org/fhir/uv/ips/StructureDefinition/Immunization-uv-ips"
          ]
        },
        "vaccineCode": {
          "coding": [
            {
              "code": "2221000221107",
              "system": "http://snomed.info/sct",
              "display": "Live attenuated Varicella-zoster vaccine"
            },
            {
              "code": "J07BK02",
              "system": "http://www.whocc.no/atc",
              "display": "Varicella-zoster vaccines"
            }
          ],
          "text": "Live attenuated Human alphaherpesvirus 3 only vaccine product"
        },
        "site": {
          "coding": [
            {
              "code": "368208006",
              "system": "http://snomed.info/sct",
              "display": "Left upper arm structure"
            }
          ],
          "text": "Left upper arm structure"
        },
        "route": {
          "coding": [
            {
              "code": "34206005",
              "system": "http://snomed.info/sct",
              "display": "Subcutaneous route"
            }
          ],
          "text": "Subcutaneous route"
        },
        "text": {
          "status": "generated",
          "div": "<div xmlns=\"http://www.w3.org/1999/xhtml\"><table class=\"hl7__ips\"><tr><td>Live attenuated Human alphaherpesvirus 3 only vaccine product</td><td><span class=\"nb\">06-Aug-2022</span></td></tr></table></div>"
        },
        "status": "completed",
        "patient": {
          "reference": "urn:uuid:bb0da509-ecca-4fc7-8780-563bab3717f0",
          "display": "Andrzej Frydrychowicz"
        },
        "occurrenceDateTime": "2022-08-06",
        "lotNumber": "LA-cYhzr",
        "expirationDate": "2022-11-09"
      }
    },
    {
      "fullUrl": "urn:uuid:c101cff2-2ff4-4b03-8fc6-05024f3db1de",
      "resource": {
        "resourceType": "Immunization",
        "id": "c101cff2-2ff4-4b03-8fc6-05024f3db1de",
        "meta": {
          "profile": [
            "http://hl7.org/fhir/uv/ips/StructureDefinition/Immunization-uv-ips"
          ]
        },
        "vaccineCode": {
          "coding": [
            {
              "code": "1119349007",
              "system": "http://snomed.info/sct",
              "display": "Vaccine product containing SARS-CoV-2 mRNA"
            },
            {
              "code": "J07BX03",
              "system": "http://www.whocc.no/atc",
              "display": "COVID-19 mRNA vaccines"
            }
          ],
          "text": "SARS-CoV-2 mRNA vaccine"
        },
        "site": {
          "coding": [
            {
              "code": "244979005",
              "system": "http://snomed.info/sct",
              "display": "Entire muscle of upper arm"
            }
          ],
          "text": "Entire muscle of upper arm"
        },
        "route": {
          "coding": [
            {
              "code": "78421000",
              "system": "http://snomed.info/sct",
              "display": "Intramuscular route"
            }
          ],
          "text": "Intramuscular route"
        },
        "text": {
          "status": "generated",
          "div": "<div xmlns=\"http://www.w3.org/1999/xhtml\"><table class=\"hl7__ips\"><tr><td>SARS-CoV-2 mRNA vaccine</td><td><span class=\"nb\">10-Apr-2021</span></td></tr></table></div>"
        },
        "status": "completed",
        "patient": {
          "reference": "urn:uuid:bb0da509-ecca-4fc7-8780-563bab3717f0",
          "display": "Andrzej Frydrychowicz"
        },
        "occurrenceDateTime": "2021-04-10",
        "lotNumber": "ET-dJ07ByJ",
        "expirationDate": "2021-06-23"
      }
    },
    {
      "fullUrl": "urn:uuid:68b68c7f-8dc8-472c-bdb9-fe5e0541d04d",
      "resource": {
        "resourceType": "Procedure",
        "id": "68b68c7f-8dc8-472c-bdb9-fe5e0541d04d",
        "meta": {
          "profile": [
            "http://hl7.org/fhir/uv/ips/StructureDefinition/Procedure-uv-ips"
          ]
        },
        "code": {
          "coding": [
            {
              "code": "430193006",
              "system": "http://snomed.info/sct",
              "display": "Medication Reconciliation (procedure)"
            }
          ],
          "text": "Medication reconciliation"
        },
        "text": {
          "status": "generated",
          "div": "<div xmlns=\"http://www.w3.org/1999/xhtml\"><table class=\"hl7__ips\"><tr><td>Medication reconciliation</td><td><span class=\"nb\">16-Mar-2019</span></td><td>-</td></tr></table></div>"
        },
        "status": "completed",
        "performedDateTime": "2019-03-16",
        "subject": {
          "reference": "urn:uuid:",
          "display": "Andrzej Frydrychowicz"
        }
      }
    },
    {
      "fullUrl": "urn:uuid:a46e035e-3f42-4080-a5c8-d6113541578e",
      "resource": {
        "resourceType": "Procedure",
        "id": "a46e035e-3f42-4080-a5c8-d6113541578e",
        "meta": {
          "profile": [
            "http://hl7.org/fhir/uv/ips/StructureDefinition/Procedure-uv-ips"
          ]
        },
        "code": {
          "coding": [
            {
              "code": "710824005",
              "system": "http://snomed.info/sct",
              "display": "Assessment of health and social care needs (procedure)"
            }
          ],
          "text": "Assessment of health and social care needs"
        },
        "text": {
          "status": "generated",
          "div": "<div xmlns=\"http://www.w3.org/1999/xhtml\"><table class=\"hl7__ips\"><tr><td>Assessment of health and social care needs</td><td><span class=\"nb\">16-Mar-2019</span></td><td>-</td></tr></table></div>"
        },
        "status": "completed",
        "performedDateTime": "2019-03-16",
        "subject": {
          "reference": "urn:uuid:",
          "display": "Andrzej Frydrychowicz"
        }
      }
    },
    {
      "fullUrl": "urn:uuid:552e2817-50c0-40f2-b1f7-acdc05fbc09f",
      "resource": {
        "resourceType": "AllergyIntolerance",
        "id": "552e2817-50c0-40f2-b1f7-acdc05fbc09f",
        "meta": {
          "profile": [
            "http://hl7.eu/fhir/eps/StructureDefinition/allergyIntolerance-eu-eps"
          ]
        },
        "code": {
          "text": ""
        },
        "clinicalStatus": {
          "coding": [
            {
              "code": "active",
              "system": "http://terminology.hl7.org/CodeSystem/allergyintolerance-clinical"
            }
          ]
        },
        "text": {
          "status": "generated",
          "div": "<div xmlns=\"http://www.w3.org/1999/xhtml\"><table class=\"hl7__ips\"><tr><th>Allergy/Intolerance</th><th>Onset Date</th><th>Status</th><th>Type</th><th>Reaction</th></tr><tr><td></td><td>?</td><td>active</td><td>?</td><td></td></tr></table></div>"
        },
        "verificationStatus": {
          "coding": [
            {
              "code": "confirmed",
              "system": "http://terminology.hl7.org/CodeSystem/allergyintolerance-verification"
            }
          ]
        },
        "patient": {
          "reference": "urn:uuid:bb0da509-ecca-4fc7-8780-563bab3717f0",
          "display": "Andrzej Frydrychowicz"
        },
        "_onsetDateTime": {
          "extension": [
            {
              "url": "http://hl7.org/fhir/StructureDefinition/data-absent-reason",
              "valueCode": "unknown"
            }
          ]
        }
      }
    },
    {
      "fullUrl": "urn:uuid:c7d5e8d9-4481-4ab8-b0f7-206c07c9902b",
      "resource": {
        "resourceType": "CarePlan",
        "id": "c7d5e8d9-4481-4ab8-b0f7-206c07c9902b",
        "category": [
          {
            "coding": [
              {
                "code": "assess-plan",
                "system": "http://terminology.hl7.org/CodeSystem/care-plan-category",
                "display": "Assessment and Plan"
              }
            ]
          }
        ],
        "activity": [
          {
            "detail": {
              "code": {
                "coding": [
                  {
                    "code": "408869004",
                    "system": "http://snomed.info/sct",
                    "display": "Musculoskeletal care (regime/therapy)"
                  }
                ]
              },
              "reasonCode": [
                {
                  "coding": [
                    {
                      "code": "239873007",
                      "system": "http://snomed.info/sct",
                      "display": "Osteoarthritis of knee"
                    }
                  ]
                }
              ],
              "status": "unknown",
              "description": "Musculoskeletal care",
              "kind": "Appointment"
            }
          }
        ],
        "period": {
          "start": "2021-10-24"
        },
        "goal": [
          {
            "reference": "urn:uuid:cef96f81-11bd-48fc-bfcc-c22a10fe5b62"
          },
          {
            "reference": "urn:uuid:a65cae0e-cc34-429f-bee4-26af5460ad0e"
          },
          {
            "reference": "urn:uuid:ccbc7f8a-ed1c-4849-aa54-45279fa709e7"
          }
        ],
        "text": {
          "status": "generated",
          "div": "<div xmlns=\"http://www.w3.org/1999/xhtml\"><table class=\"hl7__ips first25\"><tr><th>Active Planned Care / Goals</th><th>Start Date</th><th>Reason</th></tr><tr><td>Musculoskeletal care</td><td><span class=\"nb\">24-Oct-2021</span></td><td>Osteoarthritis of knee</td></tr><tr><td><ul><li>Reduce knee pain severity to a tolerable level to improve function and quality of life.</li><li>Increase ability to walk and perform daily activities without significant limitation from knee osteoarthritis.</li><li>Decrease swelling and inflammation in the affected knee to improve comfort and mobility.</li></ul></td><td></td><td></td></tr></table></div>"
        },
        "status": "active",
        "intent": "plan",
        "subject": {
          "reference": "urn:uuid:bb0da509-ecca-4fc7-8780-563bab3717f0",
          "display": "Andrzej Frydrychowicz"
        }
      }
    },
    {
      "fullUrl": "urn:uuid:4afe9197-c596-4376-a5b7-2b0595f10080",
      "resource": {
        "resourceType": "CarePlan",
        "id": "4afe9197-c596-4376-a5b7-2b0595f10080",
        "category": [
          {
            "coding": [
              {
                "code": "assess-plan",
                "system": "http://terminology.hl7.org/CodeSystem/care-plan-category",
                "display": "Assessment and Plan"
              }
            ]
          }
        ],
        "activity": [
          {
            "detail": {
              "code": {
                "coding": [
                  {
                    "code": "698360004",
                    "system": "http://snomed.info/sct",
                    "display": "Diabetes self management plan (qualifier value)"
                  }
                ]
              },
              "reasonCode": [
                {
                  "coding": [
                    {
                      "code": "15777000",
                      "system": "http://snomed.info/sct",
                      "display": "Prediabetes"
                    }
                  ]
                }
              ],
              "status": "unknown",
              "description": "Diabetes self management plan",
              "kind": "Appointment"
            }
          }
        ],
        "period": {
          "start": "2005-08-20"
        },
        "goal": [
          {
            "reference": "urn:uuid:ccb8267d-8c29-41ef-a464-1ba847e02428"
          },
          {
            "reference": "urn:uuid:f9a07884-b2e3-4db3-ac3a-cc9cd62b0e33"
          },
          {
            "reference": "urn:uuid:b80b56ee-44dc-4120-bfa0-8d8fdfe12aeb"
          },
          {
            "reference": "urn:uuid:9ecf3e7c-3666-4d56-9357-5a86c77468ee"
          }
        ],
        "text": {
          "status": "generated",
          "div": "<div xmlns=\"http://www.w3.org/1999/xhtml\"><table class=\"hl7__ips first25\"><tr><th>Active Planned Care / Goals</th><th>Start Date</th><th>Reason</th></tr><tr><td>Diabetes self management plan</td><td><span class=\"nb\">20-Aug-2005</span></td><td>Prediabetes</td></tr><tr><td><ul><li>Achieve and maintain HbA1c below 6.5% through lifestyle modification and self-management.</li><li>Reduce body weight to support improved glucose metabolism.</li><li>Engage in at least 150 minutes of moderate-intensity physical activity per week.</li><li>Maintain blood pressure below 130/80 mmHg to reduce cardiovascular risk.</li></ul></td><td></td><td></td></tr></table></div>"
        },
        "status": "active",
        "intent": "plan",
        "subject": {
          "reference": "urn:uuid:bb0da509-ecca-4fc7-8780-563bab3717f0",
          "display": "Andrzej Frydrychowicz"
        }
      }
    },
    {
      "fullUrl": "urn:uuid:5c9c0554-f517-4b4c-9947-0fb2e82cff6c",
      "resource": {
        "resourceType": "Observation",
        "id": "5c9c0554-f517-4b4c-9947-0fb2e82cff6c",
        "meta": {
          "profile": [
            "http://hl7.org/fhir/StructureDefinition/vitalsigns"
          ]
        },
        "category": [
          {
            "coding": [
              {
                "system": "http://terminology.hl7.org/CodeSystem/observation-category",
                "code": "vital-signs",
                "display": "Vital Signs"
              }
            ]
          }
        ],
        "valueQuantity": {
          "value": 190.2,
          "code": "cm",
          "unit": "cm"
        },
        "text": {
          "status": "generated",
          "div": "<div xmlns=\"http://www.w3.org/1999/xhtml\"><table class=\"hl7__ips\"><tr><th>Vital Sign</th><th>Date</th><th>Measurement</th></tr><tr><td>Body Height</td><td>17-Aug-2024</td><td>190.2 cm</td></tr></table></div>"
        },
        "status": "final",
        "code": {
          "coding": [
            {
              "code": "$8302-2",
              "system": "http://loinc.org",
              "display": "Body Height"
            }
          ]
        },
        "subject": {
          "reference": "urn:uuid:bb0da509-ecca-4fc7-8780-563bab3717f0",
          "display": "Andrzej Frydrychowicz"
        },
        "effectiveDateTime": "2024-08-17"
      }
    },
    {
      "fullUrl": "urn:uuid:3fc00c75-8a1d-4412-b5de-2ce59d338f80",
      "resource": {
        "resourceType": "Observation",
        "id": "3fc00c75-8a1d-4412-b5de-2ce59d338f80",
        "meta": {
          "profile": [
            "http://hl7.org/fhir/StructureDefinition/vitalsigns"
          ]
        },
        "category": [
          {
            "coding": [
              {
                "system": "http://terminology.hl7.org/CodeSystem/observation-category",
                "code": "vital-signs",
                "display": "Vital Signs"
              }
            ]
          }
        ],
        "valueQuantity": {
          "value": 4,
          "code": "{score}",
          "unit": "{score}"
        },
        "text": {
          "status": "generated",
          "div": "<div xmlns=\"http://www.w3.org/1999/xhtml\"><table class=\"hl7__ips\"><tr><th>Vital Sign</th><th>Date</th><th>Measurement</th></tr><tr><td>Pain severity - 0-10 verbal numeric rating [Score] - Reported</td><td>17-Aug-2024</td><td>4 {score}</td></tr></table></div>"
        },
        "status": "final",
        "code": {
          "coding": [
            {
              "code": "$72514-3",
              "system": "http://loinc.org",
              "display": "Pain severity - 0-10 verbal numeric rating [Score] - Reported"
            }
          ]
        },
        "subject": {
          "reference": "urn:uuid:bb0da509-ecca-4fc7-8780-563bab3717f0",
          "display": "Andrzej Frydrychowicz"
        },
        "effectiveDateTime": "2024-08-17"
      }
    },
    {
      "fullUrl": "urn:uuid:75d3ea90-91de-4c61-bd5d-783494c187ea",
      "resource": {
        "resourceType": "Observation",
        "id": "75d3ea90-91de-4c61-bd5d-783494c187ea",
        "meta": {
          "profile": [
            "http://hl7.org/fhir/StructureDefinition/vitalsigns"
          ]
        },
        "category": [
          {
            "coding": [
              {
                "system": "http://terminology.hl7.org/CodeSystem/observation-category",
                "code": "vital-signs",
                "display": "Vital Signs"
              }
            ]
          }
        ],
        "valueQuantity": {
          "value": 109.7,
          "code": "kg",
          "unit": "kg"
        },
        "text": {
          "status": "generated",
          "div": "<div xmlns=\"http://www.w3.org/1999/xhtml\"><table class=\"hl7__ips\"><tr><th>Vital Sign</th><th>Date</th><th>Measurement</th></tr><tr><td>Body Weight</td><td>17-Aug-2024</td><td>109.7 kg</td></tr></table></div>"
        },
        "status": "final",
        "code": {
          "coding": [
            {
              "code": "$29463-7",
              "system": "http://loinc.org",
              "display": "Body Weight"
            }
          ]
        },
        "subject": {
          "reference": "urn:uuid:bb0da509-ecca-4fc7-8780-563bab3717f0",
          "display": "Andrzej Frydrychowicz"
        },
        "effectiveDateTime": "2024-08-17"
      }
    },
    {
      "fullUrl": "urn:uuid:19d3fa7f-6125-4809-ae6e-3383b4b20195",
      "resource": {
        "resourceType": "Observation",
        "id": "19d3fa7f-6125-4809-ae6e-3383b4b20195",
        "meta": {
          "profile": [
            "http://hl7.org/fhir/StructureDefinition/vitalsigns"
          ]
        },
        "category": [
          {
            "coding": [
              {
                "system": "http://terminology.hl7.org/CodeSystem/observation-category",
                "code": "vital-signs",
                "display": "Vital Signs"
              }
            ]
          }
        ],
        "valueQuantity": {
          "value": 30.3,
          "code": "kg/m2",
          "unit": "kg/m2"
        },
        "text": {
          "status": "generated",
          "div": "<div xmlns=\"http://www.w3.org/1999/xhtml\"><table class=\"hl7__ips\"><tr><th>Vital Sign</th><th>Date</th><th>Measurement</th></tr><tr><td>Body mass index (BMI) [Ratio]</td><td>17-Aug-2024</td><td>30.3 kg/m2</td></tr></table></div>"
        },
        "status": "final",
        "code": {
          "coding": [
            {
              "code": "$39156-5",
              "system": "http://loinc.org",
              "display": "Body mass index (BMI) [Ratio]"
            }
          ]
        },
        "subject": {
          "reference": "urn:uuid:bb0da509-ecca-4fc7-8780-563bab3717f0",
          "display": "Andrzej Frydrychowicz"
        },
        "effectiveDateTime": "2024-08-17"
      }
    },
    {
      "fullUrl": "urn:uuid:9bef544f-7420-47f3-b99d-da4a09957d17",
      "resource": {
        "resourceType": "Observation",
        "id": "9bef544f-7420-47f3-b99d-da4a09957d17",
        "meta": {
          "profile": [
            "http://hl7.org/fhir/StructureDefinition/vitalsigns"
          ]
        },
        "category": [
          {
            "coding": [
              {
                "system": "http://terminology.hl7.org/CodeSystem/observation-category",
                "code": "vital-signs",
                "display": "Vital Signs"
              }
            ]
          }
        ],
        "valueQuantity": {
          "value": 51,
          "code": "mm[Hg]",
          "unit": "mm[Hg]"
        },
        "text": {
          "status": "generated",
          "div": "<div xmlns=\"http://www.w3.org/1999/xhtml\"><table class=\"hl7__ips\"><tr><th>Vital Sign</th><th>Date</th><th>Measurement</th></tr><tr><td>Diastolic Blood Pressure</td><td>17-Aug-2024</td><td>51 mm[Hg]</td></tr></table></div>"
        },
        "status": "final",
        "code": {
          "coding": [
            {
              "code": "$8462-4",
              "system": "http://loinc.org",
              "display": "Diastolic Blood Pressure"
            }
          ]
        },
        "subject": {
          "reference": "urn:uuid:bb0da509-ecca-4fc7-8780-563bab3717f0",
          "display": "Andrzej Frydrychowicz"
        },
        "effectiveDateTime": "2024-08-17"
      }
    },
    {
      "fullUrl": "urn:uuid:03cc9f51-dc93-4351-a708-725a3c8eb110",
      "resource": {
        "resourceType": "Observation",
        "id": "03cc9f51-dc93-4351-a708-725a3c8eb110",
        "meta": {
          "profile": [
            "http://hl7.org/fhir/StructureDefinition/vitalsigns"
          ]
        },
        "category": [
          {
            "coding": [
              {
                "system": "http://terminology.hl7.org/CodeSystem/observation-category",
                "code": "vital-signs",
                "display": "Vital Signs"
              }
            ]
          }
        ],
        "valueQuantity": {
          "value": 95,
          "code": "mm[Hg]",
          "unit": "mm[Hg]"
        },
        "text": {
          "status": "generated",
          "div": "<div xmlns=\"http://www.w3.org/1999/xhtml\"><table class=\"hl7__ips\"><tr><th>Vital Sign</th><th>Date</th><th>Measurement</th></tr><tr><td>Systolic Blood Pressure</td><td>17-Aug-2024</td><td>95 mm[Hg]</td></tr></table></div>"
        },
        "status": "final",
        "code": {
          "coding": [
            {
              "code": "$8480-6",
              "system": "http://loinc.org",
              "display": "Systolic Blood Pressure"
            }
          ]
        },
        "subject": {
          "reference": "urn:uuid:bb0da509-ecca-4fc7-8780-563bab3717f0",
          "display": "Andrzej Frydrychowicz"
        },
        "effectiveDateTime": "2024-08-17"
      }
    },
    {
      "fullUrl": "urn:uuid:01048201-692d-431c-af2c-3fd3cbc89eae",
      "resource": {
        "resourceType": "Observation",
        "id": "01048201-692d-431c-af2c-3fd3cbc89eae",
        "meta": {
          "profile": [
            "http://hl7.org/fhir/StructureDefinition/vitalsigns"
          ]
        },
        "category": [
          {
            "coding": [
              {
                "system": "http://terminology.hl7.org/CodeSystem/observation-category",
                "code": "vital-signs",
                "display": "Vital Signs"
              }
            ]
          }
        ],
        "valueQuantity": {
          "value": 75,
          "code": "/min",
          "unit": "/min"
        },
        "text": {
          "status": "generated",
          "div": "<div xmlns=\"http://www.w3.org/1999/xhtml\"><table class=\"hl7__ips\"><tr><th>Vital Sign</th><th>Date</th><th>Measurement</th></tr><tr><td>Heart rate</td><td>17-Aug-2024</td><td>75 /min</td></tr></table></div>"
        },
        "status": "final",
        "code": {
          "coding": [
            {
              "code": "$8867-4",
              "system": "http://loinc.org",
              "display": "Heart rate"
            }
          ]
        },
        "subject": {
          "reference": "urn:uuid:bb0da509-ecca-4fc7-8780-563bab3717f0",
          "display": "Andrzej Frydrychowicz"
        },
        "effectiveDateTime": "2024-08-17"
      }
    },
    {
      "fullUrl": "urn:uuid:f5da5c00-ba1e-4d5e-8ac7-da87d3838e50",
      "resource": {
        "resourceType": "Observation",
        "id": "f5da5c00-ba1e-4d5e-8ac7-da87d3838e50",
        "meta": {
          "profile": [
            "http://hl7.org/fhir/StructureDefinition/vitalsigns"
          ]
        },
        "category": [
          {
            "coding": [
              {
                "system": "http://terminology.hl7.org/CodeSystem/observation-category",
                "code": "vital-signs",
                "display": "Vital Signs"
              }
            ]
          }
        ],
        "valueQuantity": {
          "value": 15,
          "code": "/min",
          "unit": "/min"
        },
        "text": {
          "status": "generated",
          "div": "<div xmlns=\"http://www.w3.org/1999/xhtml\"><table class=\"hl7__ips\"><tr><th>Vital Sign</th><th>Date</th><th>Measurement</th></tr><tr><td>Respiratory rate</td><td>17-Aug-2024</td><td>15 /min</td></tr></table></div>"
        },
        "status": "final",
        "code": {
          "coding": [
            {
              "code": "$9279-1",
              "system": "http://loinc.org",
              "display": "Respiratory rate"
            }
          ]
        },
        "subject": {
          "reference": "urn:uuid:bb0da509-ecca-4fc7-8780-563bab3717f0",
          "display": "Andrzej Frydrychowicz"
        },
        "effectiveDateTime": "2024-08-17"
      }
    },
    {
      "fullUrl": "urn:uuid:afbbab43-b534-40a6-acc6-cefd35c7b66b",
      "resource": {
        "resourceType": "Observation",
        "id": "afbbab43-b534-40a6-acc6-cefd35c7b66b",
        "meta": {
          "profile": [
            "http://hl7.org/fhir/StructureDefinition/vitalsigns"
          ]
        },
        "category": [
          {
            "coding": [
              {
                "system": "http://terminology.hl7.org/CodeSystem/observation-category",
                "code": "vital-signs",
                "display": "Vital Signs"
              }
            ]
          }
        ],
        "valueQuantity": {
          "value": 190.2,
          "code": "cm",
          "unit": "cm"
        },
        "text": {
          "status": "generated",
          "div": "<div xmlns=\"http://www.w3.org/1999/xhtml\"><table class=\"hl7__ips\"><tr><th>Vital Sign</th><th>Date</th><th>Measurement</th></tr><tr><td>Body Height</td><td>12-Aug-2023</td><td>190.2 cm</td></tr></table></div>"
        },
        "status": "final",
        "code": {
          "coding": [
            {
              "code": "$8302-2",
              "system": "http://loinc.org",
              "display": "Body Height"
            }
          ]
        },
        "subject": {
          "reference": "urn:uuid:bb0da509-ecca-4fc7-8780-563bab3717f0",
          "display": "Andrzej Frydrychowicz"
        },
        "effectiveDateTime": "2023-08-12"
      }
    },
    {
      "fullUrl": "urn:uuid:14c9b6ad-82b8-4cbb-bc7c-0f764a81e428",
      "resource": {
        "resourceType": "Observation",
        "id": "14c9b6ad-82b8-4cbb-bc7c-0f764a81e428",
        "meta": {
          "profile": [
            "http://hl7.org/fhir/StructureDefinition/vitalsigns"
          ]
        },
        "category": [
          {
            "coding": [
              {
                "system": "http://terminology.hl7.org/CodeSystem/observation-category",
                "code": "vital-signs",
                "display": "Vital Signs"
              }
            ]
          }
        ],
        "valueQuantity": {
          "value": 4,
          "code": "{score}",
          "unit": "{score}"
        },
        "text": {
          "status": "generated",
          "div": "<div xmlns=\"http://www.w3.org/1999/xhtml\"><table class=\"hl7__ips\"><tr><th>Vital Sign</th><th>Date</th><th>Measurement</th></tr><tr><td>Pain severity - 0-10 verbal numeric rating [Score] - Reported</td><td>12-Aug-2023</td><td>4 {score}</td></tr></table></div>"
        },
        "status": "final",
        "code": {
          "coding": [
            {
              "code": "$72514-3",
              "system": "http://loinc.org",
              "display": "Pain severity - 0-10 verbal numeric rating [Score] - Reported"
            }
          ]
        },
        "subject": {
          "reference": "urn:uuid:bb0da509-ecca-4fc7-8780-563bab3717f0",
          "display": "Andrzej Frydrychowicz"
        },
        "effectiveDateTime": "2023-08-12"
      }
    },
    {
      "fullUrl": "urn:uuid:b4583449-e891-46a3-b65e-0586d545f6b6",
      "resource": {
        "resourceType": "Observation",
        "id": "b4583449-e891-46a3-b65e-0586d545f6b6",
        "meta": {
          "profile": [
            "http://hl7.org/fhir/StructureDefinition/vitalsigns"
          ]
        },
        "category": [
          {
            "coding": [
              {
                "system": "http://terminology.hl7.org/CodeSystem/observation-category",
                "code": "vital-signs",
                "display": "Vital Signs"
              }
            ]
          }
        ],
        "valueQuantity": {
          "value": 109.7,
          "code": "kg",
          "unit": "kg"
        },
        "text": {
          "status": "generated",
          "div": "<div xmlns=\"http://www.w3.org/1999/xhtml\"><table class=\"hl7__ips\"><tr><th>Vital Sign</th><th>Date</th><th>Measurement</th></tr><tr><td>Body Weight</td><td>12-Aug-2023</td><td>109.7 kg</td></tr></table></div>"
        },
        "status": "final",
        "code": {
          "coding": [
            {
              "code": "$29463-7",
              "system": "http://loinc.org",
              "display": "Body Weight"
            }
          ]
        },
        "subject": {
          "reference": "urn:uuid:bb0da509-ecca-4fc7-8780-563bab3717f0",
          "display": "Andrzej Frydrychowicz"
        },
        "effectiveDateTime": "2023-08-12"
      }
    },
    {
      "fullUrl": "urn:uuid:89fabc2c-b5f8-4f3d-a3e6-aaa30c030000",
      "resource": {
        "resourceType": "Observation",
        "id": "89fabc2c-b5f8-4f3d-a3e6-aaa30c030000",
        "meta": {
          "profile": [
            "http://hl7.org/fhir/StructureDefinition/vitalsigns"
          ]
        },
        "category": [
          {
            "coding": [
              {
                "system": "http://terminology.hl7.org/CodeSystem/observation-category",
                "code": "vital-signs",
                "display": "Vital Signs"
              }
            ]
          }
        ],
        "valueQuantity": {
          "value": 30.3,
          "code": "kg/m2",
          "unit": "kg/m2"
        },
        "text": {
          "status": "generated",
          "div": "<div xmlns=\"http://www.w3.org/1999/xhtml\"><table class=\"hl7__ips\"><tr><th>Vital Sign</th><th>Date</th><th>Measurement</th></tr><tr><td>Body mass index (BMI) [Ratio]</td><td>12-Aug-2023</td><td>30.3 kg/m2</td></tr></table></div>"
        },
        "status": "final",
        "code": {
          "coding": [
            {
              "code": "$39156-5",
              "system": "http://loinc.org",
              "display": "Body mass index (BMI) [Ratio]"
            }
          ]
        },
        "subject": {
          "reference": "urn:uuid:bb0da509-ecca-4fc7-8780-563bab3717f0",
          "display": "Andrzej Frydrychowicz"
        },
        "effectiveDateTime": "2023-08-12"
      }
    },
    {
      "fullUrl": "urn:uuid:f0239942-c974-4018-86b0-c2cc93979b44",
      "resource": {
        "resourceType": "Observation",
        "id": "f0239942-c974-4018-86b0-c2cc93979b44",
        "meta": {
          "profile": [
            "http://hl7.org/fhir/StructureDefinition/vitalsigns"
          ]
        },
        "category": [
          {
            "coding": [
              {
                "system": "http://terminology.hl7.org/CodeSystem/observation-category",
                "code": "vital-signs",
                "display": "Vital Signs"
              }
            ]
          }
        ],
        "valueQuantity": {
          "value": 44,
          "code": "mm[Hg]",
          "unit": "mm[Hg]"
        },
        "text": {
          "status": "generated",
          "div": "<div xmlns=\"http://www.w3.org/1999/xhtml\"><table class=\"hl7__ips\"><tr><th>Vital Sign</th><th>Date</th><th>Measurement</th></tr><tr><td>Diastolic Blood Pressure</td><td>12-Aug-2023</td><td>44 mm[Hg]</td></tr></table></div>"
        },
        "status": "final",
        "code": {
          "coding": [
            {
              "code": "$8462-4",
              "system": "http://loinc.org",
              "display": "Diastolic Blood Pressure"
            }
          ]
        },
        "subject": {
          "reference": "urn:uuid:bb0da509-ecca-4fc7-8780-563bab3717f0",
          "display": "Andrzej Frydrychowicz"
        },
        "effectiveDateTime": "2023-08-12"
      }
    },
    {
      "fullUrl": "urn:uuid:2ede6b19-c3aa-4b88-bca4-4523cd2792a6",
      "resource": {
        "resourceType": "Observation",
        "id": "2ede6b19-c3aa-4b88-bca4-4523cd2792a6",
        "meta": {
          "profile": [
            "http://hl7.org/fhir/StructureDefinition/vitalsigns"
          ]
        },
        "category": [
          {
            "coding": [
              {
                "system": "http://terminology.hl7.org/CodeSystem/observation-category",
                "code": "vital-signs",
                "display": "Vital Signs"
              }
            ]
          }
        ],
        "valueQuantity": {
          "value": 85,
          "code": "mm[Hg]",
          "unit": "mm[Hg]"
        },
        "text": {
          "status": "generated",
          "div": "<div xmlns=\"http://www.w3.org/1999/xhtml\"><table class=\"hl7__ips\"><tr><th>Vital Sign</th><th>Date</th><th>Measurement</th></tr><tr><td>Systolic Blood Pressure</td><td>12-Aug-2023</td><td>85 mm[Hg]</td></tr></table></div>"
        },
        "status": "final",
        "code": {
          "coding": [
            {
              "code": "$8480-6",
              "system": "http://loinc.org",
              "display": "Systolic Blood Pressure"
            }
          ]
        },
        "subject": {
          "reference": "urn:uuid:bb0da509-ecca-4fc7-8780-563bab3717f0",
          "display": "Andrzej Frydrychowicz"
        },
        "effectiveDateTime": "2023-08-12"
      }
    },
    {
      "fullUrl": "urn:uuid:46a642f1-eb4d-4be9-a7a4-d400ae7393d2",
      "resource": {
        "resourceType": "Observation",
        "id": "46a642f1-eb4d-4be9-a7a4-d400ae7393d2",
        "meta": {
          "profile": [
            "http://hl7.org/fhir/StructureDefinition/vitalsigns"
          ]
        },
        "category": [
          {
            "coding": [
              {
                "system": "http://terminology.hl7.org/CodeSystem/observation-category",
                "code": "vital-signs",
                "display": "Vital Signs"
              }
            ]
          }
        ],
        "valueQuantity": {
          "value": 96,
          "code": "/min",
          "unit": "/min"
        },
        "text": {
          "status": "generated",
          "div": "<div xmlns=\"http://www.w3.org/1999/xhtml\"><table class=\"hl7__ips\"><tr><th>Vital Sign</th><th>Date</th><th>Measurement</th></tr><tr><td>Heart rate</td><td>12-Aug-2023</td><td>96 /min</td></tr></table></div>"
        },
        "status": "final",
        "code": {
          "coding": [
            {
              "code": "$8867-4",
              "system": "http://loinc.org",
              "display": "Heart rate"
            }
          ]
        },
        "subject": {
          "reference": "urn:uuid:bb0da509-ecca-4fc7-8780-563bab3717f0",
          "display": "Andrzej Frydrychowicz"
        },
        "effectiveDateTime": "2023-08-12"
      }
    },
    {
      "fullUrl": "urn:uuid:7fb40d77-bf61-4bb4-9250-2e76c6047247",
      "resource": {
        "resourceType": "Observation",
        "id": "7fb40d77-bf61-4bb4-9250-2e76c6047247",
        "meta": {
          "profile": [
            "http://hl7.org/fhir/StructureDefinition/vitalsigns"
          ]
        },
        "category": [
          {
            "coding": [
              {
                "system": "http://terminology.hl7.org/CodeSystem/observation-category",
                "code": "vital-signs",
                "display": "Vital Signs"
              }
            ]
          }
        ],
        "valueQuantity": {
          "value": 16,
          "code": "/min",
          "unit": "/min"
        },
        "text": {
          "status": "generated",
          "div": "<div xmlns=\"http://www.w3.org/1999/xhtml\"><table class=\"hl7__ips\"><tr><th>Vital Sign</th><th>Date</th><th>Measurement</th></tr><tr><td>Respiratory rate</td><td>12-Aug-2023</td><td>16 /min</td></tr></table></div>"
        },
        "status": "final",
        "code": {
          "coding": [
            {
              "code": "$9279-1",
              "system": "http://loinc.org",
              "display": "Respiratory rate"
            }
          ]
        },
        "subject": {
          "reference": "urn:uuid:bb0da509-ecca-4fc7-8780-563bab3717f0",
          "display": "Andrzej Frydrychowicz"
        },
        "effectiveDateTime": "2023-08-12"
      }
    },
    {
      "fullUrl": "urn:uuid:61afdcf0-485e-4118-aa61-8d96cb1dde56",
      "resource": {
        "resourceType": "Observation",
        "id": "61afdcf0-485e-4118-aa61-8d96cb1dde56",
        "meta": {
          "profile": [
            "http://hl7.eu/fhir/laboratory/StructureDefinition/Observation-resultslab-eu-lab"
          ]
        },
        "performer": [
          {
            "display": "The Central European Lab"
          }
        ],
        "category": [
          {
            "coding": [
              {
                "system": "http://terminology.hl7.org/CodeSystem/observation-category",
                "code": "laboratory"
              }
            ]
          }
        ],
        "code": {
          "coding": [
            {
              "code": "4548-4",
              "system": "http://loinc.org",
              "display": "Hemoglobin A1c/Hemoglobin.total in Blood"
            }
          ],
          "text": "Hemoglobin A1c/Hemoglobin.total in Blood"
        },
        "valueQuantity": {
          "system": "http://unitsofmeasure.org",
          "value": 5.9,
          "unit": "%",
          "code": "%"
        },
        "referenceRange": [
          {
            "low": {
              "value": 4.3,
              "code": "%",
              "system": "http://unitsofmeasure.org"
            }
          },
          {
            "high": {
              "value": 6.4,
              "code": "%",
              "system": "http://unitsofmeasure.org"
            }
          }
        ],
        "text": {
          "status": "generated",
          "div": "<div xmlns=\"http://www.w3.org/1999/xhtml\"><table class=\"hl7__eu__lab__report\"><tr><th>Test</th><th>17-Aug-2024</th><th>Reference&#xA0;Range</th><th>Unit</th></tr><tr><td>Hemoglobin A1c/Hemoglobin.total in Blood</td><td>5.9</td><td>4.3 - 6.4</td><td></td><td>%</td></tr></table></div>"
        },
        "status": "final",
        "subject": {
          "reference": "urn:uuid:bb0da509-ecca-4fc7-8780-563bab3717f0",
          "display": "Andrzej Frydrychowicz"
        },
        "effectiveDateTime": "2024-08-17T21:33:04Z"
      }
    },
    {
      "fullUrl": "urn:uuid:ddeca941-13b6-492d-a116-4f077503e743",
      "resource": {
        "resourceType": "Observation",
        "id": "ddeca941-13b6-492d-a116-4f077503e743",
        "meta": {
          "profile": [
            "http://hl7.eu/fhir/laboratory/StructureDefinition/Observation-resultslab-eu-lab"
          ]
        },
        "performer": [
          {
            "display": "The Central European Lab"
          }
        ],
        "category": [
          {
            "coding": [
              {
                "system": "http://terminology.hl7.org/CodeSystem/observation-category",
                "code": "laboratory"
              }
            ]
          }
        ],
        "code": {
          "coding": [
            {
              "code": "2339-0",
              "system": "http://loinc.org",
              "display": "Glucose [Mass/volume] in Blood"
            }
          ],
          "text": "Glucose [Mass/volume] in Blood"
        },
        "valueQuantity": {
          "system": "http://unitsofmeasure.org",
          "value": 90.3,
          "unit": "mg/dL",
          "code": "mg/dL"
        },
        "referenceRange": [
          {
            "low": {
              "value": 70,
              "code": "mg/dL",
              "system": "http://unitsofmeasure.org"
            }
          },
          {
            "high": {
              "value": 140,
              "code": "mg/dL",
              "system": "http://unitsofmeasure.org"
            }
          }
        ],
        "text": {
          "status": "generated",
          "div": "<div xmlns=\"http://www.w3.org/1999/xhtml\"><table class=\"hl7__eu__lab__report\"><tr><th>Test</th><th>17-Aug-2024</th><th>Reference&#xA0;Range</th><th>Unit</th></tr><tr><td>Glucose [Mass/volume] in Blood</td><td>90.3</td><td>70 - 140</td><td></td><td>mg/dL</td></tr></table></div>"
        },
        "status": "final",
        "subject": {
          "reference": "urn:uuid:bb0da509-ecca-4fc7-8780-563bab3717f0",
          "display": "Andrzej Frydrychowicz"
        },
        "effectiveDateTime": "2024-08-17T21:33:04Z"
      }
    },
    {
      "fullUrl": "urn:uuid:ec8312e6-8b60-42de-88a4-a7ca237772be",
      "resource": {
        "resourceType": "Observation",
        "id": "ec8312e6-8b60-42de-88a4-a7ca237772be",
        "meta": {
          "profile": [
            "http://hl7.eu/fhir/laboratory/StructureDefinition/Observation-resultslab-eu-lab"
          ]
        },
        "performer": [
          {
            "display": "The Central European Lab"
          }
        ],
        "category": [
          {
            "coding": [
              {
                "system": "http://terminology.hl7.org/CodeSystem/observation-category",
                "code": "laboratory"
              }
            ]
          }
        ],
        "code": {
          "coding": [
            {
              "code": "6299-2",
              "system": "http://loinc.org",
              "display": "Urea nitrogen [Mass/volume] in Blood"
            }
          ],
          "text": "Urea nitrogen [Mass/volume] in Blood"
        },
        "valueQuantity": {
          "system": "http://unitsofmeasure.org",
          "value": 7.2,
          "unit": "mg/dL",
          "code": "mg/dL"
        },
        "referenceRange": [
          {
            "low": {
              "value": 7,
              "code": "mg/dL",
              "system": "http://unitsofmeasure.org"
            }
          },
          {
            "high": {
              "value": 20,
              "code": "mg/dL",
              "system": "http://unitsofmeasure.org"
            }
          }
        ],
        "text": {
          "status": "generated",
          "div": "<div xmlns=\"http://www.w3.org/1999/xhtml\"><table class=\"hl7__eu__lab__report\"><tr><th>Test</th><th>17-Aug-2024</th><th>Reference&#xA0;Range</th><th>Unit</th></tr><tr><td>Urea nitrogen [Mass/volume] in Blood</td><td>7.2</td><td>7 - 20</td><td></td><td>mg/dL</td></tr></table></div>"
        },
        "status": "final",
        "subject": {
          "reference": "urn:uuid:bb0da509-ecca-4fc7-8780-563bab3717f0",
          "display": "Andrzej Frydrychowicz"
        },
        "effectiveDateTime": "2024-08-17T21:33:04Z"
      }
    },
    {
      "fullUrl": "urn:uuid:01cd8a96-afe5-46a2-a553-c114956e832e",
      "resource": {
        "resourceType": "Observation",
        "id": "01cd8a96-afe5-46a2-a553-c114956e832e",
        "meta": {
          "profile": [
            "http://hl7.eu/fhir/laboratory/StructureDefinition/Observation-resultslab-eu-lab"
          ]
        },
        "performer": [
          {
            "display": "The Central European Lab"
          }
        ],
        "category": [
          {
            "coding": [
              {
                "system": "http://terminology.hl7.org/CodeSystem/observation-category",
                "code": "laboratory"
              }
            ]
          }
        ],
        "code": {
          "coding": [
            {
              "code": "38483-4",
              "system": "http://loinc.org",
              "display": "Creatinine [Mass/volume] in Blood"
            }
          ],
          "text": "Creatinine [Mass/volume] in Blood"
        },
        "valueQuantity": {
          "system": "http://unitsofmeasure.org",
          "value": 1.4,
          "unit": "mg/dL",
          "code": "mg/dL"
        },
        "referenceRange": [
          {
            "low": {
              "value": 0.6,
              "code": "mg/dL",
              "system": "http://unitsofmeasure.org"
            }
          },
          {
            "high": {
              "value": 1.3,
              "code": "mg/dL",
              "system": "http://unitsofmeasure.org"
            }
          }
        ],
        "interpretation": [
          {
            "coding": [
              {
                "code": "H",
                "system": "http://terminology.hl7.org/CodeSystem/v3-ObservationInterpretation",
                "display": "High"
              }
            ]
          }
        ],
        "text": {
          "status": "generated",
          "div": "<div xmlns=\"http://www.w3.org/1999/xhtml\"><table class=\"hl7__eu__lab__report\"><tr><th>Test</th><th>17-Aug-2024</th><th>Reference&#xA0;Range</th><th>Unit</th></tr><tr><td>Creatinine [Mass/volume] in Blood</td><td>1.4</td><td>0.6 - 1.3</td><td>H</td><td>mg/dL</td></tr></table></div>"
        },
        "status": "final",
        "subject": {
          "reference": "urn:uuid:bb0da509-ecca-4fc7-8780-563bab3717f0",
          "display": "Andrzej Frydrychowicz"
        },
        "effectiveDateTime": "2024-08-17T21:33:04Z"
      }
    },
    {
      "fullUrl": "urn:uuid:57d722d2-abbc-428e-a817-3b9459f402db",
      "resource": {
        "resourceType": "Observation",
        "id": "57d722d2-abbc-428e-a817-3b9459f402db",
        "meta": {
          "profile": [
            "http://hl7.eu/fhir/laboratory/StructureDefinition/Observation-resultslab-eu-lab"
          ]
        },
        "performer": [
          {
            "display": "The Central European Lab"
          }
        ],
        "category": [
          {
            "coding": [
              {
                "system": "http://terminology.hl7.org/CodeSystem/observation-category",
                "code": "laboratory"
              }
            ]
          }
        ],
        "code": {
          "coding": [
            {
              "code": "49765-1",
              "system": "http://loinc.org",
              "display": "Calcium [Mass/volume] in Blood"
            }
          ],
          "text": "Calcium [Mass/volume] in Blood"
        },
        "valueQuantity": {
          "system": "http://unitsofmeasure.org",
          "value": 9,
          "unit": "mg/dL",
          "code": "mg/dL"
        },
        "referenceRange": [
          {
            "low": {
              "value": 8.5,
              "code": "mg/dL",
              "system": "http://unitsofmeasure.org"
            }
          },
          {
            "high": {
              "value": 10.5,
              "code": "mg/dL",
              "system": "http://unitsofmeasure.org"
            }
          }
        ],
        "text": {
          "status": "generated",
          "div": "<div xmlns=\"http://www.w3.org/1999/xhtml\"><table class=\"hl7__eu__lab__report\"><tr><th>Test</th><th>17-Aug-2024</th><th>Reference&#xA0;Range</th><th>Unit</th></tr><tr><td>Calcium [Mass/volume] in Blood</td><td>9.0</td><td>8.5 - 10.5</td><td></td><td>mg/dL</td></tr></table></div>"
        },
        "status": "final",
        "subject": {
          "reference": "urn:uuid:bb0da509-ecca-4fc7-8780-563bab3717f0",
          "display": "Andrzej Frydrychowicz"
        },
        "effectiveDateTime": "2024-08-17T21:33:04Z"
      }
    },
    {
      "fullUrl": "urn:uuid:113240d1-787b-4634-acfc-0d4826e5793f",
      "resource": {
        "resourceType": "Observation",
        "id": "113240d1-787b-4634-acfc-0d4826e5793f",
        "meta": {
          "profile": [
            "http://hl7.eu/fhir/laboratory/StructureDefinition/Observation-resultslab-eu-lab"
          ]
        },
        "performer": [
          {
            "display": "The Central European Lab"
          }
        ],
        "category": [
          {
            "coding": [
              {
                "system": "http://terminology.hl7.org/CodeSystem/observation-category",
                "code": "laboratory"
              }
            ]
          }
        ],
        "code": {
          "coding": [
            {
              "code": "2947-0",
              "system": "http://loinc.org",
              "display": "Sodium [Moles/volume] in Blood"
            }
          ],
          "text": "Sodium [Moles/volume] in Blood"
        },
        "valueQuantity": {
          "system": "http://unitsofmeasure.org",
          "value": 136.6,
          "unit": "mmol/L",
          "code": "mmol/L"
        },
        "referenceRange": [
          {
            "low": {
              "value": 135,
              "code": "mmol/L",
              "system": "http://unitsofmeasure.org"
            }
          },
          {
            "high": {
              "value": 145,
              "code": "mmol/L",
              "system": "http://unitsofmeasure.org"
            }
          }
        ],
        "text": {
          "status": "generated",
          "div": "<div xmlns=\"http://www.w3.org/1999/xhtml\"><table class=\"hl7__eu__lab__report\"><tr><th>Test</th><th>17-Aug-2024</th><th>Reference&#xA0;Range</th><th>Unit</th></tr><tr><td>Sodium [Moles/volume] in Blood</td><td>136.6</td><td>135 - 145</td><td></td><td>mmol/L</td></tr></table></div>"
        },
        "status": "final",
        "subject": {
          "reference": "urn:uuid:bb0da509-ecca-4fc7-8780-563bab3717f0",
          "display": "Andrzej Frydrychowicz"
        },
        "effectiveDateTime": "2024-08-17T21:33:04Z"
      }
    },
    {
      "fullUrl": "urn:uuid:f26cf333-34a2-4b23-809d-0d3461c15caf",
      "resource": {
        "resourceType": "Observation",
        "id": "f26cf333-34a2-4b23-809d-0d3461c15caf",
        "meta": {
          "profile": [
            "http://hl7.eu/fhir/laboratory/StructureDefinition/Observation-resultslab-eu-lab"
          ]
        },
        "performer": [
          {
            "display": "The Central European Lab"
          }
        ],
        "category": [
          {
            "coding": [
              {
                "system": "http://terminology.hl7.org/CodeSystem/observation-category",
                "code": "laboratory"
              }
            ]
          }
        ],
        "code": {
          "coding": [
            {
              "code": "6298-4",
              "system": "http://loinc.org",
              "display": "Potassium [Moles/volume] in Blood"
            }
          ],
          "text": "Potassium [Moles/volume] in Blood"
        },
        "valueQuantity": {
          "system": "http://unitsofmeasure.org",
          "value": 5.1,
          "unit": "mmol/L",
          "code": "mmol/L"
        },
        "referenceRange": [
          {
            "low": {
              "value": 3.5,
              "code": "mmol/L",
              "system": "http://unitsofmeasure.org"
            }
          },
          {
            "high": {
              "value": 5.3,
              "code": "mmol/L",
              "system": "http://unitsofmeasure.org"
            }
          }
        ],
        "text": {
          "status": "generated",
          "div": "<div xmlns=\"http://www.w3.org/1999/xhtml\"><table class=\"hl7__eu__lab__report\"><tr><th>Test</th><th>17-Aug-2024</th><th>Reference&#xA0;Range</th><th>Unit</th></tr><tr><td>Potassium [Moles/volume] in Blood</td><td>5.1</td><td>3.5 - 5.3</td><td></td><td>mmol/L</td></tr></table></div>"
        },
        "status": "final",
        "subject": {
          "reference": "urn:uuid:bb0da509-ecca-4fc7-8780-563bab3717f0",
          "display": "Andrzej Frydrychowicz"
        },
        "effectiveDateTime": "2024-08-17T21:33:04Z"
      }
    },
    {
      "fullUrl": "urn:uuid:b34a394f-7022-497f-9cfb-59826a4e6e99",
      "resource": {
        "resourceType": "Observation",
        "id": "b34a394f-7022-497f-9cfb-59826a4e6e99",
        "meta": {
          "profile": [
            "http://hl7.eu/fhir/laboratory/StructureDefinition/Observation-resultslab-eu-lab"
          ]
        },
        "performer": [
          {
            "display": "The Central European Lab"
          }
        ],
        "category": [
          {
            "coding": [
              {
                "system": "http://terminology.hl7.org/CodeSystem/observation-category",
                "code": "laboratory"
              }
            ]
          }
        ],
        "code": {
          "coding": [
            {
              "code": "2069-3",
              "system": "http://loinc.org",
              "display": "Chloride [Moles/volume] in Blood"
            }
          ],
          "text": "Chloride [Moles/volume] in Blood"
        },
        "valueQuantity": {
          "system": "http://unitsofmeasure.org",
          "value": 110,
          "unit": "mmol/L",
          "code": "mmol/L"
        },
        "referenceRange": [
          {
            "low": {
              "value": 98,
              "code": "mmol/L",
              "system": "http://unitsofmeasure.org"
            }
          },
          {
            "high": {
              "value": 110,
              "code": "mmol/L",
              "system": "http://unitsofmeasure.org"
            }
          }
        ],
        "text": {
          "status": "generated",
          "div": "<div xmlns=\"http://www.w3.org/1999/xhtml\"><table class=\"hl7__eu__lab__report\"><tr><th>Test</th><th>17-Aug-2024</th><th>Reference&#xA0;Range</th><th>Unit</th></tr><tr><td>Chloride [Moles/volume] in Blood</td><td>110.0</td><td>98 - 110</td><td></td><td>mmol/L</td></tr></table></div>"
        },
        "status": "final",
        "subject": {
          "reference": "urn:uuid:bb0da509-ecca-4fc7-8780-563bab3717f0",
          "display": "Andrzej Frydrychowicz"
        },
        "effectiveDateTime": "2024-08-17T21:33:04Z"
      }
    },
    {
      "fullUrl": "urn:uuid:809d5adc-0cd2-4ca1-93b6-fbeccbcaac44",
      "resource": {
        "resourceType": "Observation",
        "id": "809d5adc-0cd2-4ca1-93b6-fbeccbcaac44",
        "meta": {
          "profile": [
            "http://hl7.eu/fhir/laboratory/StructureDefinition/Observation-resultslab-eu-lab"
          ]
        },
        "performer": [
          {
            "display": "The Central European Lab"
          }
        ],
        "category": [
          {
            "coding": [
              {
                "system": "http://terminology.hl7.org/CodeSystem/observation-category",
                "code": "laboratory"
              }
            ]
          }
        ],
        "code": {
          "coding": [
            {
              "code": "20565-8",
              "system": "http://loinc.org",
              "display": "Carbon dioxide, total [Moles/volume] in Blood"
            }
          ],
          "text": "Carbon dioxide, total [Moles/volume] in Blood"
        },
        "valueQuantity": {
          "system": "http://unitsofmeasure.org",
          "value": 28.8,
          "unit": "mmol/L",
          "code": "mmol/L"
        },
        "referenceRange": [
          {
            "low": {
              "value": 22,
              "code": "mmol/L",
              "system": "http://unitsofmeasure.org"
            }
          },
          {
            "high": {
              "value": 29,
              "code": "mmol/L",
              "system": "http://unitsofmeasure.org"
            }
          }
        ],
        "text": {
          "status": "generated",
          "div": "<div xmlns=\"http://www.w3.org/1999/xhtml\"><table class=\"hl7__eu__lab__report\"><tr><th>Test</th><th>17-Aug-2024</th><th>Reference&#xA0;Range</th><th>Unit</th></tr><tr><td>Carbon dioxide, total [Moles/volume] in Blood</td><td>28.8</td><td>22 - 29</td><td></td><td>mmol/L</td></tr></table></div>"
        },
        "status": "final",
        "subject": {
          "reference": "urn:uuid:bb0da509-ecca-4fc7-8780-563bab3717f0",
          "display": "Andrzej Frydrychowicz"
        },
        "effectiveDateTime": "2024-08-17T21:33:04Z"
      }
    },
    {
      "fullUrl": "urn:uuid:be292361-dd54-4156-8bce-497964d0318a",
      "resource": {
        "resourceType": "DeviceUseStatement",
        "id": "be292361-dd54-4156-8bce-497964d0318a",
        "meta": {
          "profile": [
            "http://hl7.eu/fhir/eps/StructureDefinition/deviceUseStatement-eu-eps"
          ]
        },
        "timingPeriod": {
          "start": "2021-10-24"
        },
        "text": {
          "status": "generated",
          "div": "<div xmlns=\"http://www.w3.org/1999/xhtml\"><table class=\"hl7__ips\"><tr><td>Wheelchair accessory (physical object)</td><td><span class=\"nb\">24-Oct-2021</span></td></tr></table></div>"
        },
        "status": "active",
        "device": {
          "reference": "urn:uuid:7ea78a05-420d-4ec7-9b6a-472f7f06b7ae",
          "display": "Wheelchair accessory (physical object)"
        },
        "subject": {
          "reference": "urn:uuid:bb0da509-ecca-4fc7-8780-563bab3717f0",
          "display": "Andrzej Frydrychowicz"
        }
      }
    },
    {
      "fullUrl": "urn:uuid:7ea78a05-420d-4ec7-9b6a-472f7f06b7ae",
      "resource": {
        "resourceType": "Device",
        "id": "7ea78a05-420d-4ec7-9b6a-472f7f06b7ae",
        "meta": {
          "profile": [
            "http://hl7.eu/fhir/eps/StructureDefinition/device-eu-eps"
          ]
        },
        "udiCarrier": [
          {
            "id": "(01)81265102470879(11)211003(17)461018(10)23969033933(21)2428600875783264"
          }
        ],
        "status": "active",
        "patient": {
          "reference": "urn:uuid:bb0da509-ecca-4fc7-8780-563bab3717f0",
          "display": "Andrzej Frydrychowicz"
        },
        "type": {
          "coding": [
            {
              "code": "705417005",
              "system": "http://snomed.info/sct",
              "display": "Wheelchair accessory (physical object)"
            }
          ]
        }
      }
    },
    {
      "fullUrl": "urn:uuid:7851e28c-cdd0-4b2c-9104-4013ac1a2d81",
      "resource": {
        "resourceType": "DeviceUseStatement",
        "id": "7851e28c-cdd0-4b2c-9104-4013ac1a2d81",
        "meta": {
          "profile": [
            "http://hl7.eu/fhir/eps/StructureDefinition/deviceUseStatement-eu-eps"
          ]
        },
        "timingPeriod": {
          "start": "2021-10-24"
        },
        "text": {
          "status": "generated",
          "div": "<div xmlns=\"http://www.w3.org/1999/xhtml\"><table class=\"hl7__ips\"><tr><td>Power-assisted wheelchair (physical object)</td><td><span class=\"nb\">24-Oct-2021</span></td></tr></table></div>"
        },
        "status": "active",
        "device": {
          "reference": "urn:uuid:52cec3e3-b462-47f2-9c7c-419064cc76b3",
          "display": "Power-assisted wheelchair (physical object)"
        },
        "subject": {
          "reference": "urn:uuid:bb0da509-ecca-4fc7-8780-563bab3717f0",
          "display": "Andrzej Frydrychowicz"
        }
      }
    },
    {
      "fullUrl": "urn:uuid:52cec3e3-b462-47f2-9c7c-419064cc76b3",
      "resource": {
        "resourceType": "Device",
        "id": "52cec3e3-b462-47f2-9c7c-419064cc76b3",
        "meta": {
          "profile": [
            "http://hl7.eu/fhir/eps/StructureDefinition/device-eu-eps"
          ]
        },
        "udiCarrier": [
          {
            "id": "(01)83104191389405(11)211003(17)461018(10)60647274056(21)23526"
          }
        ],
        "status": "active",
        "patient": {
          "reference": "urn:uuid:bb0da509-ecca-4fc7-8780-563bab3717f0",
          "display": "Andrzej Frydrychowicz"
        },
        "type": {
          "coding": [
            {
              "code": "705427004",
              "system": "http://snomed.info/sct",
              "display": "Power-assisted wheelchair (physical object)"
            }
          ]
        }
      }
    },
    {
      "fullUrl": "urn:uuid:21683fa6-0c60-48f9-8878-883ef15b31ee",
      "resource": {
        "resourceType": "DeviceUseStatement",
        "id": "21683fa6-0c60-48f9-8878-883ef15b31ee",
        "meta": {
          "profile": [
            "http://hl7.eu/fhir/eps/StructureDefinition/deviceUseStatement-eu-eps"
          ]
        },
        "timingPeriod": {
          "start": "2005-08-20"
        },
        "text": {
          "status": "generated",
          "div": "<div xmlns=\"http://www.w3.org/1999/xhtml\"><table class=\"hl7__ips\"><tr><td>Blood glucose meter (physical object)</td><td><span class=\"nb\">20-Aug-2005</span></td></tr></table></div>"
        },
        "status": "active",
        "device": {
          "reference": "urn:uuid:296df97a-7fef-4cf2-8281-c3681522c401",
          "display": "Blood glucose meter (physical object)"
        },
        "subject": {
          "reference": "urn:uuid:bb0da509-ecca-4fc7-8780-563bab3717f0",
          "display": "Andrzej Frydrychowicz"
        }
      }
    },
    {
      "fullUrl": "urn:uuid:296df97a-7fef-4cf2-8281-c3681522c401",
      "resource": {
        "resourceType": "Device",
        "id": "296df97a-7fef-4cf2-8281-c3681522c401",
        "meta": {
          "profile": [
            "http://hl7.eu/fhir/eps/StructureDefinition/device-eu-eps"
          ]
        },
        "udiCarrier": [
          {
            "id": "(01)64628332550125(11)050730(17)300814(10)25650(21)91846314019"
          }
        ],
        "status": "active",
        "patient": {
          "reference": "urn:uuid:bb0da509-ecca-4fc7-8780-563bab3717f0",
          "display": "Andrzej Frydrychowicz"
        },
        "type": {
          "coding": [
            {
              "code": "337414009",
              "system": "http://snomed.info/sct",
              "display": "Blood glucose meter (physical object)"
            }
          ]
        }
      }
    },
    {
      "fullUrl": "urn:uuid:47f66ae9-7dbf-4103-8404-8557ddf431c1",
      "resource": {
        "resourceType": "Device",
        "id": "47f66ae9-7dbf-4103-8404-8557ddf431c1",
        "deviceName": [
          {
            "name": "SYNDERAI Synthetic Generator",
            "type": "manufacturer-name"
          }
        ],
        "version": [
          {
            "value": "5.0"
          }
        ],
        "text": {
          "status": "generated",
          "div": "<div xmlns=\"http://www.w3.org/1999/xhtml\">SYNDERAI Synthetic Generator v5.0</div>"
        },
        "status": "active\"",
        "distinctIdentifier": "synderai-generator-50",
        "manufacturer": "SYNDERAI Project"
      }
    },
    {
      "fullUrl": "urn:uuid:7bc7a774-36fe-4633-a022-14fe4af571e5",
      "resource": {
        "resourceType": "Provenance",
        "id": "7bc7a774-36fe-4633-a022-14fe4af571e5",
        "target": [
          {
            "reference": "Patient/bb0da509-ecca-4fc7-8780-563bab3717f0"
          },
          {
            "reference": "Bundle/966c1135-058f-43b1-9de2-d7d3c2e486ab"
          },
          {
            "reference": "Composition/2174c262-cbd5-4677-96a8-e5f2218573d0"
          },
          {
            "reference": "PractitionerRole/9b8efac9-6231-45ea-a244-982a2796e2d4"
          },
          {
            "reference": "Organization/216a1394-ed04-48ff-a3b0-249e8d9de0e5"
          },
          {
            "reference": "Practitioner/aca8bed2-ba82-4f00-afa9-c013901ab202"
          }
        ],
        "activity": {
          "text": "Synthetic Example Data Generation"
        },
        "policy": [
          "https://synderai.net/synderai-synthetic-data-policy"
        ],
        "agent": [
          {
            "type": {
              "text": "author"
            },
            "who": {
              "reference": "Device/47f66ae9-7dbf-4103-8404-8557ddf431c1"
            }
          }
        ],
        "reason": [
          {
            "text": "Interoperability Testing and Training (non-clinical use)"
          }
        ],
        "text": {
          "status": "generated",
          "div": "<div xmlns=\"http://www.w3.org/1999/xhtml\">Provenance for SYNDERAI Synthetic Example Data Resource</div>"
        },
        "recorded": "2024-08-17T21:33:04Z"
      }
    }
  ],
  "type": "document",
  "timestamp": "2024-08-17T21:33:04Z"
}
