{
  "resourceType": "Bundle",
  "id": "f11f96aa-703a-4523-816f-aa99552a3287",
  "meta": {
    "profile": [
      "http://hl7.eu/fhir/eps/StructureDefinition/bundle-eu-eps"
    ]
  },
  "identifier": {
    "assigner": {
      "display": "HL7 Europe"
    },
    "system": "urn:oid:2.16.840.1.113883.2.51.999",
    "value": "648774cf-80f1-4c9d-88e6-8c0cd8325712"
  },
  "entry": [
    {
      "fullUrl": "urn:uuid:2d9f2afa-d860-4629-97a5-417e233b1f41",
      "resource": {
        "resourceType": "Composition",
        "id": "2d9f2afa-d860-4629-97a5-417e233b1f41",
        "meta": {
          "security": [
            {
              "system": "http://terminology.hl7.org/CodeSystem/v3-ActReason",
              "code": "HTEST"
            },
            {
              "system": "http://terminology.hl7.org/CodeSystem/v3-ActReason",
              "code": "TRAIN"
            }
          ],
          "tag": [
            {
              "system": "https://synderai.net/fhir/CodeSystem/tags",
              "code": "synthetic",
              "display": "SYNDERAI Synthetic data"
            }
          ],
          "profile": [
            "http://hl7.eu/fhir/eps/StructureDefinition/composition-eu-eps"
          ]
        },
        "identifier": {
          "assigner": {
            "display": "HL7 Europe"
          },
          "system": "urn:oid:2.16.840.1.113883.2.51.999",
          "value": "5ce0fbfc-ab6e-46d6-bffb-8477c77c1721"
        },
        "type": {
          "coding": [
            {
              "system": "http://loinc.org",
              "code": "60591-5",
              "display": "Patient summary Document"
            }
          ],
          "text": "Patient summary Document"
        },
        "author": [
          {
            "reference": "urn:uuid:7c0c77b1-3593-495a-984b-cd192e06088d"
          }
        ],
        "section": [
          {
            "text": {
              "status": "generated",
              "div": "<div xmlns=\"http://www.w3.org/1999/xhtml\"><table class=\"hl7__ips\"><tr><th>Condition</th><th>Onset Date</th><th>Status</th></tr><tr><td>Hypertriglyceridemia</td><td><span class=\"nb\">11-Dec-2001</span></td><td>active</td></tr><tr><td>Type 2 diabetes mellitus</td><td><span class=\"nb\">05-Dec-2000</span></td><td>active</td></tr><tr><td>Essential hypertension</td><td><span class=\"nb\">05-Dec-2000</span></td><td>active</td></tr><tr><td>Metabolic syndrome X</td><td><span class=\"nb\">05-Dec-2000</span></td><td>active</td></tr><tr><td>Anemia</td><td><span class=\"nb\">05-Dec-2000</span></td><td>active</td></tr><tr><td>Gout</td><td><span class=\"nb\">09-Mar-1994</span></td><td>active</td></tr></table></div>"
            },
            "entry": [
              {
                "reference": "urn:uuid:3c69c551-9f9b-435a-a1bc-b23a1eb871d9"
              },
              {
                "reference": "urn:uuid:e9877ee2-c358-4148-b3ac-afc7b8ea06ea"
              },
              {
                "reference": "urn:uuid:64240b9b-ee2f-428d-9708-c63d647d076f"
              },
              {
                "reference": "urn:uuid:49691131-c9ca-43b6-946b-678ec16e2031"
              },
              {
                "reference": "urn:uuid:c6a03846-fa9a-42bf-be85-986eca84650f"
              },
              {
                "reference": "urn:uuid:9aceb1a0-ba8f-404b-9069-bc8b19b35666"
              }
            ],
            "code": {
              "coding": [
                {
                  "system": "http://loinc.org",
                  "code": "11450-4",
                  "display": "Problem list - Reported"
                }
              ]
            },
            "title": "Problem list"
          },
          {
            "text": {
              "status": "generated",
              "div": "<div xmlns=\"http://www.w3.org/1999/xhtml\"><table class=\"hl7__ips\"><tr><th>Medication</th><th>Since</th><th>Form</th><th>Dosage</th><th>Reason</th></tr><tr><td>Lisinopril 10 mg oral tablet</td><td><span class=\"nb\">2025-04-22</span></td><td>-</td><td>1 tablet (10 mg) by mouth once daily</td><td>Essential hypertension (disorder)</td></tr></table></div>"
            },
            "entry": [
              {
                "reference": "urn:uuid:6c8281c5-f50a-464d-b812-460b67603ae6"
              }
            ],
            "code": {
              "coding": [
                {
                  "system": "http://loinc.org",
                  "code": "10160-0",
                  "display": "History of Medication use Narrative"
                }
              ]
            },
            "title": "Medication list"
          },
          {
            "text": {
              "status": "generated",
              "div": "<div xmlns=\"http://www.w3.org/1999/xhtml\"><table class=\"hl7__ips\"><tr><th>Vaccine</th><th>Date</th></tr><tr><td>Influenza virus antigen only vaccine product</td><td><span class=\"nb\">22-Apr-2025</span></td></tr><tr><td>SARS-CoV-2 mRNA vaccine</td><td><span class=\"nb\">23-Mar-2021</span></td></tr><tr><td>Clostridium tetani toxoid antigen adsorbed only vaccine product</td><td><span class=\"nb\">13-Mar-2018</span></td></tr><tr><td>Live attenuated Human alphaherpesvirus 3 only vaccine product</td><td><span class=\"nb\">13-Mar-2018</span></td></tr></table></div>"
            },
            "entry": [
              {
                "reference": "urn:uuid:5a68d8b6-865d-4046-9678-649c85071c22"
              },
              {
                "reference": "urn:uuid:52546e62-1d54-4fb4-a1b7-ed380413a24e"
              },
              {
                "reference": "urn:uuid:0ea97572-e73f-4a74-93e0-5bf5746aa395"
              },
              {
                "reference": "urn:uuid:68885718-712b-4187-a20c-1fd0ed7398cf"
              }
            ],
            "code": {
              "coding": [
                {
                  "system": "http://loinc.org",
                  "code": "11369-6",
                  "display": "History of Immunization note"
                }
              ]
            },
            "title": "Immunizations list"
          },
          {
            "text": {
              "status": "generated",
              "div": "<div xmlns=\"http://www.w3.org/1999/xhtml\"><table class=\"hl7__ips\"><tr><th>Procedure</th><th>Date</th><th>Reason</th></tr><tr><td>Pre-discharge assessment</td><td><span class=\"nb\">13-Jun-2022</span></td><td>-</td></tr><tr><td>Discharge from skilled nursing facility (procedure)</td><td><span class=\"nb\">13-Jun-2022</span></td><td>-</td></tr><tr><td>Nursing care/supplementary surveillance</td><td><span class=\"nb\">12-Jun-2022</span></td><td>-</td></tr><tr><td>Occupational therapy</td><td><span class=\"nb\">10-Jun-2022</span></td><td>-</td></tr><tr><td>Care regimes assessment</td><td><span class=\"nb\">08-Jun-2022</span></td><td>-</td></tr><tr><td>Professional / ancillary services care</td><td><span class=\"nb\">07-Jun-2022</span></td><td>-</td></tr><tr><td>Speech and language therapy regime</td><td><span class=\"nb\">15-May-2022</span></td><td>-</td></tr><tr><td>Physical therapy procedure</td><td><span class=\"nb\">02-May-2022</span></td><td>-</td></tr><tr><td>History AND physical examination</td><td><span class=\"nb\">20-Apr-2022</span></td><td>-</td></tr><tr><td>Initial patient assessment</td><td><span class=\"nb\">20-Apr-2022</span></td><td>-</td></tr><tr><td>Development of individualized plan of care</td><td><span class=\"nb\">20-Apr-2022</span></td><td>-</td></tr><tr><td>Radiography of ankle</td><td><span class=\"nb\">10-Mar-2016</span></td><td>-</td></tr><tr><td>Bone immobilization</td><td><span class=\"nb\">10-Mar-2016</span></td><td>Fracture of ankle</td></tr></table></div>"
            },
            "entry": [
              {
                "reference": "urn:uuid:b2d06ef3-dbb7-4d56-bdf5-f9b7d6130fdd"
              },
              {
                "reference": "urn:uuid:323fedd5-dfc0-409f-8a6e-9bab989a3b5c"
              },
              {
                "reference": "urn:uuid:60ca922f-6a40-4c2a-82fc-d47def2e7b0d"
              },
              {
                "reference": "urn:uuid:873de8e4-83ad-4bcd-8d80-a14b83e7d8eb"
              },
              {
                "reference": "urn:uuid:11ab18f8-b7a6-4d82-9905-ddaa3c3b0718"
              },
              {
                "reference": "urn:uuid:639d66aa-8f96-4f2b-b4c1-ea953f340d04"
              },
              {
                "reference": "urn:uuid:ac4d406b-446f-4f06-9511-6dba9718a879"
              },
              {
                "reference": "urn:uuid:a0fa4f6b-bb9d-4f28-afa1-a90a3b32e779"
              },
              {
                "reference": "urn:uuid:fa0ea2e0-a6e5-4a25-bda8-4d9a0ba4755e"
              },
              {
                "reference": "urn:uuid:188f0441-48df-4338-b6e2-33127653521f"
              },
              {
                "reference": "urn:uuid:42005c5f-6539-488d-854f-94c305253485"
              },
              {
                "reference": "urn:uuid:9cd1e1d0-72bf-424f-99c2-f0a8b6085762"
              },
              {
                "reference": "urn:uuid:ad99e929-b9b1-47c1-9b60-910fce2f5466"
              }
            ],
            "code": {
              "coding": [
                {
                  "system": "http://loinc.org",
                  "code": "47519-4",
                  "display": "History of Procedures Document"
                }
              ]
            },
            "title": "Procedure History list"
          },
          {
            "text": {
              "status": "generated",
              "div": "<div xmlns=\"http://www.w3.org/1999/xhtml\"><table class=\"hl7__ips\"><tr><th>Allergy/Intolerance</th><th>Onset Date</th><th>Status</th><th>Type</th><th>Reaction</th></tr><tr><td></td><td>?</td><td>active</td><td>?</td><td></td></tr></table></div>"
            },
            "entry": [
              {
                "reference": "urn:uuid:4daecb10-f9b4-455f-a8a2-e246fde0ab9b"
              }
            ],
            "code": {
              "coding": [
                {
                  "system": "http://loinc.org",
                  "code": "48765-2",
                  "display": "Allergies and adverse reactions Document"
                }
              ]
            },
            "title": "Allergies and Intolerances"
          },
          {
            "text": {
              "status": "generated",
              "div": "<div xmlns=\"http://www.w3.org/1999/xhtml\"><table class=\"hl7__ips\"><tr><th>Active Planned Care / Goals</th><th>Start Date</th><th>Reason</th></tr><tr><td>Lifestyle education regarding hypertension</td><td><span class=\"nb\">05-Dec-2000</span></td><td>Essential hypertension (disorder)</td></tr><tr><td><ul><li>Maintain blood pressure below 130/80 mmHg through lifestyle modifications.</li><li>Reduce body weight by 5% to improve blood pressure control.</li><li>Limit sodium intake to less than 2.3 grams per day to help control blood pressure.</li><li>Engage in at least 150 minutes of moderate-intensity aerobic physical activity per week.</li></ul></td><td></td><td></td></tr><tr><td>Diabetes self management plan</td><td><span class=\"nb\">05-Dec-2000</span></td><td>Diabetes mellitus type 2 (disorder)</td></tr><tr><td><ul><li>Maintain or reduce hemoglobin A1c to individualized target to optimize glycemic control.</li><li>Maintain fasting blood glucose within recommended range to support diabetes control.</li><li>Maintain blood pressure below recommended threshold to reduce cardiovascular risk in diabetes.</li><li>Maintain LDL cholesterol below recommended threshold to reduce cardiovascular risk.</li><li>Achieve and maintain weight reduction to support glycemic control and overall health.</li></ul></td><td></td><td></td></tr><tr><td>Musculoskeletal care</td><td><span class=\"nb\">09-Mar-1994</span></td><td>-</td></tr></table></div>"
            },
            "entry": [
              {
                "reference": "urn:uuid:771206c5-39c1-4cff-aabe-cab6134535fc"
              },
              {
                "reference": "urn:uuid:c425f9ed-a511-45b7-8024-35f18455f9c5"
              },
              {
                "reference": "urn:uuid:e466e2c1-8024-4214-83b0-a7532280cf41"
              }
            ],
            "code": {
              "coding": [
                {
                  "system": "http://loinc.org",
                  "code": "18776-5",
                  "display": "Plan of care note"
                }
              ]
            },
            "title": "Care Plan"
          },
          {
            "text": {
              "status": "generated",
              "div": "<div xmlns=\"http://www.w3.org/1999/xhtml\"><table class=\"hl7__ips\"><tr><th>Vital Signs</th><th>2025-04-22</th><th>2024-04-16</th></tr><tr><td>Body Height</td><td>180.6 cm</td><td>180.6 cm</td></tr><tr><td>Pain severity - 0-10 verbal numeric rating [Score] - Reported</td><td>1 {score}</td><td>3 {score}</td></tr><tr><td>Body Weight</td><td>91.2 kg</td><td>91.2 kg</td></tr><tr><td>Body mass index (BMI) [Ratio]</td><td>28 kg/m2</td><td>28 kg/m2</td></tr><tr><td>Diastolic Blood Pressure</td><td>94 mm[Hg]</td><td>94 mm[Hg]</td></tr><tr><td>Systolic Blood Pressure</td><td>129 mm[Hg]</td><td>131 mm[Hg]</td></tr><tr><td>Heart rate</td><td>65 /min</td><td>81 /min</td></tr><tr><td>Respiratory rate</td><td>13 /min</td><td>14 /min</td></tr></table></div>"
            },
            "entry": [
              {
                "reference": "urn:uuid:eb859592-562b-4e52-847e-715fde166cd2"
              },
              {
                "reference": "urn:uuid:a0df9a6e-4840-44ac-8a85-ab9e2239d2cf"
              },
              {
                "reference": "urn:uuid:b059a088-76c6-43ed-829e-95cdcb5d41ab"
              },
              {
                "reference": "urn:uuid:338e63c2-c3e7-4927-8f8d-14bb9019bf6a"
              },
              {
                "reference": "urn:uuid:b7b645f6-9db4-4e57-bb9d-910f3efb284b"
              },
              {
                "reference": "urn:uuid:a180761f-5675-40b8-8fac-084d4f2551a4"
              },
              {
                "reference": "urn:uuid:f636e7be-b977-4bf5-b316-b49bf71ee372"
              },
              {
                "reference": "urn:uuid:7bbd254f-9f11-454a-9fbe-e7e3d98456d4"
              },
              {
                "reference": "urn:uuid:70ec58dc-3c3f-4624-9c28-e3bfff7aaa40"
              },
              {
                "reference": "urn:uuid:ab969e41-5ccb-48be-aea5-5b371c220292"
              },
              {
                "reference": "urn:uuid:648c05a0-b3bd-40b2-a01e-0b003340118a"
              },
              {
                "reference": "urn:uuid:00d730d2-ee8b-4265-bbaa-c6dc15822c14"
              },
              {
                "reference": "urn:uuid:2a5feb51-0e50-40ec-ad62-3d327e2c11e9"
              },
              {
                "reference": "urn:uuid:0b6a2a0c-37b6-4c17-a13c-caf7cb2f3068"
              },
              {
                "reference": "urn:uuid:c6f5bfe2-16a1-44c5-9d03-660334263122"
              },
              {
                "reference": "urn:uuid:45581e7b-ee26-4445-9d38-50c9dcae72c3"
              }
            ],
            "code": {
              "coding": [
                {
                  "system": "http://loinc.org",
                  "code": "8716-3",
                  "display": "Vital signs note"
                }
              ]
            },
            "title": "Vital Signs"
          },
          {
            "text": {
              "status": "generated",
              "div": "<div xmlns=\"http://www.w3.org/1999/xhtml\"><table class=\"hl7__ips\"><table class=\"hl7__ips\"><thead><tr><th>Recent Lab Observations</th><th>22-APR-2025</th><th>Reference&#xA0;Range</th><th>Unit</th></tr></thead><tbody><tr><td>Hemoglobin A1c/Hemoglobin.total in Blood</td><td><strong>7.0 H</strong></td><td>4.6 - 6</td><td>%</td></tr><tr><td>Glucose [Mass/volume] in Blood</td><td><strong>114.5 H</strong></td><td>70 - 99</td><td>mg/dL</td></tr><tr><td>Urea nitrogen [Mass/volume] in Blood</td><td>15.6</td><td>7 - 50</td><td>mg/dL</td></tr><tr><td>Creatinine [Mass/volume] in Blood</td><td>1.0</td><td>0.9 - 1.3</td><td>mg/dL</td></tr><tr><td>Calcium [Mass/volume] in Blood</td><td>8.6</td><td>8.5 - 10.5</td><td>mg/dL</td></tr><tr><td>Sodium [Moles/volume] in Blood</td><td>137.9</td><td>135 - 145</td><td>mmol/L</td></tr><tr><td>Potassium [Moles/volume] in Blood</td><td>5.0</td><td>3.5 - 5.1</td><td>mmol/L</td></tr><tr><td>Chloride [Moles/volume] in Blood</td><td>102.3</td><td>98 - 114</td><td>mmol/L</td></tr><tr><td>Carbon dioxide, total [Moles/volume] in Blood</td><td>25.5</td><td>22 - 32</td><td>mmol/L</td></tr><tr><td>Cholesterol [Mass/volume] in Serum or Plasma</td><td><strong>215.3 H</strong></td><td>125 - 200</td><td>mg/dL</td></tr><tr><td>Triglyceride [Mass/volume] in Serum or Plasma</td><td><strong>183.1 H</strong></td><td>0 - 150</td><td>mg/dL</td></tr><tr><td>Cholesterol in LDL [Mass/volume] in Serum or Plasma by Direct assay</td><td><strong>134.9 H</strong></td><td>0 - 130</td><td>mg/dL</td></tr><tr><td>Cholesterol in HDL [Mass/volume] in Serum or Plasma</td><td>43.8</td><td>40 - 60</td><td>mg/dL</td></tr><tr><td>Microalbumin/Creatinine [Mass Ratio] in Urine</td><td>8.3</td><td>0 - 30</td><td>mg/g</td></tr></tbody></table></table></div>"
            },
            "entry": [
              {
                "reference": "urn:uuid:54953c49-310c-4264-9cb9-3643fc38793d"
              },
              {
                "reference": "urn:uuid:66de5714-1dfe-45d2-abfe-39f4bbe00765"
              },
              {
                "reference": "urn:uuid:e6a972a9-d816-4cff-ac0a-4e8694dadb63"
              },
              {
                "reference": "urn:uuid:5208a3d2-ebba-47de-a8f6-7f9b88afe256"
              },
              {
                "reference": "urn:uuid:3d5753ca-c7ce-45d8-a95b-2ad85b182f49"
              },
              {
                "reference": "urn:uuid:fa954540-dbf0-4755-a9e7-008856e0c426"
              },
              {
                "reference": "urn:uuid:5aba2e4c-17c4-4fe1-b961-6e88a63a2c88"
              },
              {
                "reference": "urn:uuid:0fe102c4-4cf6-471b-ba74-e788e4c37275"
              },
              {
                "reference": "urn:uuid:1f5f65df-6272-4f9c-8689-270988d70cd0"
              },
              {
                "reference": "urn:uuid:354f6143-ada3-495b-9e1e-af7b474337b1"
              },
              {
                "reference": "urn:uuid:35f0d447-54d3-45e6-9fb6-e971ef0f3937"
              },
              {
                "reference": "urn:uuid:8571743a-388f-46d3-b315-1dca11c513a1"
              },
              {
                "reference": "urn:uuid:ce295b25-4ed9-4b53-97e4-579ef0b7d623"
              },
              {
                "reference": "urn:uuid:5dfd16d7-41e6-4f27-81f8-1fd846adc9e1"
              }
            ],
            "code": {
              "coding": [
                {
                  "system": "http://loinc.org",
                  "code": "30954-2",
                  "display": "Relevant diagnostic tests/laboratory data note"
                }
              ]
            },
            "title": "Relevant diagnostic tests/laboratory data"
          },
          {
            "text": {
              "status": "generated",
              "div": "<div xmlns=\"http://www.w3.org/1999/xhtml\"><table class=\"hl7__ips\"><tr><th>Device</th><th>Date (since)</th></tr><tr><td>Blood glucose meter (physical object)</td><td><span class=\"nb\">05-Dec-2000</span></td></tr></table></div>"
            },
            "entry": [
              {
                "reference": "urn:uuid:c667d56f-9aea-485d-bc38-efa031e4c1e6"
              }
            ],
            "code": {
              "coding": [
                {
                  "system": "http://loinc.org",
                  "code": "46264-8",
                  "display": "History of medical device use"
                }
              ]
            },
            "title": "Device Use"
          }
        ],
        "title": "European Patient Summary",
        "status": "final",
        "subject": {
          "reference": "urn:uuid:67c3ba28-c25a-4b97-9eef-e80f5cad2359",
          "display": "Roy Harrison"
        },
        "custodian": {
          "reference": "urn:uuid:7d738262-13bf-4201-acad-4b464134d095"
        },
        "date": "2025-04-22",
        "confidentiality": "N"
      }
    },
    {
      "fullUrl": "urn:uuid:67c3ba28-c25a-4b97-9eef-e80f5cad2359",
      "resource": {
        "resourceType": "Patient",
        "id": "67c3ba28-c25a-4b97-9eef-e80f5cad2359",
        "meta": {
          "security": [
            {
              "system": "http://terminology.hl7.org/CodeSystem/v3-ActReason",
              "code": "HTEST"
            },
            {
              "system": "http://terminology.hl7.org/CodeSystem/v3-ActReason",
              "code": "TRAIN"
            }
          ],
          "tag": [
            {
              "system": "https://synderai.net/fhir/CodeSystem/tags",
              "code": "synthetic",
              "display": "SYNDERAI Synthetic data"
            }
          ],
          "profile": [
            "http://hl7.eu/fhir/eps/StructureDefinition/patient-eu-eps"
          ]
        },
        "identifier": [
          {
            "type": {
              "coding": [
                {
                  "code": "PT",
                  "system": "http://terminology.hl7.org/CodeSystem/v2-0203"
                }
              ]
            },
            "system": "http://ec.europa.eu/identifier/eci",
            "value": "7093-553922-4"
          },
          {
            "type": {
              "coding": [
                {
                  "code": "MR",
                  "system": "http://terminology.hl7.org/CodeSystem/v2-0203"
                }
              ]
            },
            "system": "http://local.setting.eu/identifier",
            "value": "42633ccd-9ef5-6a00-b7c9-353a9679bf2b"
          }
        ],
        "name": [
          {
            "family": "Harrison"
          },
          {
            "given": [
              "Roy"
            ]
          },
          {
            "text": "Roy Harrison"
          }
        ],
        "address": [
          {
            "line": [
              "Flat 4",
              "Dyer route"
            ],
            "use": "home",
            "type": "physical",
            "postalCode": "BA1",
            "city": "Baileyville",
            "country": "United Kingdom"
          }
        ],
        "telecom": [
          {
            "system": "phone",
            "value": "01632960974"
          }
        ],
        "extension": [
          {
            "url": "http://hl7.org/fhir/StructureDefinition/patient-nationality",
            "valueCodeableConcept": {
              "coding": [
                {
                  "code": "GB",
                  "system": "http://hl7.org/fhir/ValueSet/country"
                }
              ]
            }
          }
        ],
        "text": {
          "status": "generated",
          "div": "<div xmlns=\"http://www.w3.org/1999/xhtml\"><table class=\"hl7__ips\"><tr><td>Roy Harrison</td><td>male</td><td>02-Oct-1969</td></tr></table></div>"
        },
        "gender": "male",
        "birthDate": "1969-10-02"
      }
    },
    {
      "fullUrl": "urn:uuid:7c0c77b1-3593-495a-984b-cd192e06088d",
      "resource": {
        "resourceType": "PractitionerRole",
        "id": "7c0c77b1-3593-495a-984b-cd192e06088d",
        "meta": {
          "profile": [
            "http://hl7.eu/fhir/base/StructureDefinition/practitionerRole-eu"
          ]
        },
        "text": {
          "status": "generated",
          "div": "<div xmlns=\"http://www.w3.org/1999/xhtml\"><table class=\"hl7__ips\">Provider Role Id 7c0c77b1-3593-495a-984b-cd192e06088d</table></div>"
        },
        "practitioner": {
          "reference": "urn:uuid:d7b4ed99-b15e-4288-81be-b32e877e2dd0"
        },
        "organization": {
          "reference": "urn:uuid:7d738262-13bf-4201-acad-4b464134d095"
        }
      }
    },
    {
      "fullUrl": "urn:uuid:d7b4ed99-b15e-4288-81be-b32e877e2dd0",
      "resource": {
        "resourceType": "Practitioner",
        "id": "d7b4ed99-b15e-4288-81be-b32e877e2dd0",
        "meta": {
          "profile": [
            "http://hl7.eu/fhir/base/StructureDefinition/practitioner-eu"
          ]
        },
        "name": [
          {
            "prefix": [
              "Dr."
            ],
            "given": [
              "Hel"
            ],
            "family": "Ping"
          }
        ],
        "text": {
          "status": "generated",
          "div": "<div xmlns=\"http://www.w3.org/1999/xhtml\"><table class=\"hl7__ips\">Dr. Hel Ping</table></div>"
        }
      }
    },
    {
      "fullUrl": "urn:uuid:7d738262-13bf-4201-acad-4b464134d095",
      "resource": {
        "resourceType": "Organization",
        "id": "7d738262-13bf-4201-acad-4b464134d095",
        "meta": {
          "profile": [
            "http://hl7.eu/fhir/base/StructureDefinition/organization-eu"
          ]
        },
        "identifier": [
          {
            "assigner": {
              "display": "HL7 Europe"
            },
            "system": "urn:oid:2.16.840.1.113883.2.51.999",
            "value": "24c30b20-abf4-4ea7-bd83-b3b37947b385"
          }
        ],
        "address": [
          {
            "city": "London",
            "postalCode": "SE1 7",
            "country": "United Kingdom"
          }
        ],
        "text": {
          "status": "generated",
          "div": "<div xmlns=\"http://www.w3.org/1999/xhtml\"><table class=\"hl7__ips\">Evelina Children&#039;s Hospital</table></div>"
        },
        "name": "Evelina Children&#039;s Hospital"
      }
    },
    {
      "fullUrl": "urn:uuid:3c69c551-9f9b-435a-a1bc-b23a1eb871d9",
      "resource": {
        "resourceType": "Condition",
        "id": "3c69c551-9f9b-435a-a1bc-b23a1eb871d9",
        "meta": {
          "profile": [
            "http://hl7.org/fhir/uv/ips/StructureDefinition/Condition-uv-ips"
          ]
        },
        "category": [
          {
            "coding": [
              {
                "code": "problem-list-item",
                "system": "http://terminology.hl7.org/CodeSystem/condition-category",
                "display": "Problem List Item"
              }
            ]
          }
        ],
        "code": {
          "coding": [
            {
              "code": "302870006",
              "system": "http://snomed.info/sct",
              "display": "Hypertriglyceridemia (disorder)"
            }
          ],
          "text": "Hypertriglyceridemia"
        },
        "text": {
          "status": "generated",
          "div": "<div xmlns=\"http://www.w3.org/1999/xhtml\"><table class=\"hl7__ips\"><tr><td>Hypertriglyceridemia</td><td><span class=\"nb\">11-Dec-2001</span></td><td>active</td></tr></table></div>"
        },
        "onsetDateTime": "2001-12-11",
        "subject": {
          "reference": "urn:uuid:",
          "display": "Roy Harrison"
        },
        "asserter": {
          "reference": "urn:uuid:",
          "display": "Evelina Children&#039;s Hospital"
        }
      }
    },
    {
      "fullUrl": "urn:uuid:e9877ee2-c358-4148-b3ac-afc7b8ea06ea",
      "resource": {
        "resourceType": "Condition",
        "id": "e9877ee2-c358-4148-b3ac-afc7b8ea06ea",
        "meta": {
          "profile": [
            "http://hl7.org/fhir/uv/ips/StructureDefinition/Condition-uv-ips"
          ]
        },
        "category": [
          {
            "coding": [
              {
                "code": "problem-list-item",
                "system": "http://terminology.hl7.org/CodeSystem/condition-category",
                "display": "Problem List Item"
              }
            ]
          }
        ],
        "code": {
          "coding": [
            {
              "code": "44054006",
              "system": "http://snomed.info/sct",
              "display": "Diabetes mellitus type 2 (disorder)"
            }
          ],
          "text": "Type 2 diabetes mellitus"
        },
        "text": {
          "status": "generated",
          "div": "<div xmlns=\"http://www.w3.org/1999/xhtml\"><table class=\"hl7__ips\"><tr><td>Type 2 diabetes mellitus</td><td><span class=\"nb\">05-Dec-2000</span></td><td>active</td></tr></table></div>"
        },
        "onsetDateTime": "2000-12-05",
        "subject": {
          "reference": "urn:uuid:",
          "display": "Roy Harrison"
        },
        "asserter": {
          "reference": "urn:uuid:",
          "display": "Evelina Children&#039;s Hospital"
        }
      }
    },
    {
      "fullUrl": "urn:uuid:64240b9b-ee2f-428d-9708-c63d647d076f",
      "resource": {
        "resourceType": "Condition",
        "id": "64240b9b-ee2f-428d-9708-c63d647d076f",
        "meta": {
          "profile": [
            "http://hl7.org/fhir/uv/ips/StructureDefinition/Condition-uv-ips"
          ]
        },
        "category": [
          {
            "coding": [
              {
                "code": "problem-list-item",
                "system": "http://terminology.hl7.org/CodeSystem/condition-category",
                "display": "Problem List Item"
              }
            ]
          }
        ],
        "code": {
          "coding": [
            {
              "code": "59621000",
              "system": "http://snomed.info/sct",
              "display": "Essential hypertension (disorder)"
            }
          ],
          "text": "Essential hypertension"
        },
        "text": {
          "status": "generated",
          "div": "<div xmlns=\"http://www.w3.org/1999/xhtml\"><table class=\"hl7__ips\"><tr><td>Essential hypertension</td><td><span class=\"nb\">05-Dec-2000</span></td><td>active</td></tr></table></div>"
        },
        "onsetDateTime": "2000-12-05",
        "subject": {
          "reference": "urn:uuid:",
          "display": "Roy Harrison"
        },
        "asserter": {
          "reference": "urn:uuid:",
          "display": "Evelina Children&#039;s Hospital"
        }
      }
    },
    {
      "fullUrl": "urn:uuid:49691131-c9ca-43b6-946b-678ec16e2031",
      "resource": {
        "resourceType": "Condition",
        "id": "49691131-c9ca-43b6-946b-678ec16e2031",
        "meta": {
          "profile": [
            "http://hl7.org/fhir/uv/ips/StructureDefinition/Condition-uv-ips"
          ]
        },
        "category": [
          {
            "coding": [
              {
                "code": "problem-list-item",
                "system": "http://terminology.hl7.org/CodeSystem/condition-category",
                "display": "Problem List Item"
              }
            ]
          }
        ],
        "code": {
          "coding": [
            {
              "code": "237602007",
              "system": "http://snomed.info/sct",
              "display": "Metabolic syndrome X (disorder)"
            }
          ],
          "text": "Metabolic syndrome X"
        },
        "text": {
          "status": "generated",
          "div": "<div xmlns=\"http://www.w3.org/1999/xhtml\"><table class=\"hl7__ips\"><tr><td>Metabolic syndrome X</td><td><span class=\"nb\">05-Dec-2000</span></td><td>active</td></tr></table></div>"
        },
        "onsetDateTime": "2000-12-05",
        "subject": {
          "reference": "urn:uuid:",
          "display": "Roy Harrison"
        },
        "asserter": {
          "reference": "urn:uuid:",
          "display": "Evelina Children&#039;s Hospital"
        }
      }
    },
    {
      "fullUrl": "urn:uuid:c6a03846-fa9a-42bf-be85-986eca84650f",
      "resource": {
        "resourceType": "Condition",
        "id": "c6a03846-fa9a-42bf-be85-986eca84650f",
        "meta": {
          "profile": [
            "http://hl7.org/fhir/uv/ips/StructureDefinition/Condition-uv-ips"
          ]
        },
        "category": [
          {
            "coding": [
              {
                "code": "problem-list-item",
                "system": "http://terminology.hl7.org/CodeSystem/condition-category",
                "display": "Problem List Item"
              }
            ]
          }
        ],
        "code": {
          "coding": [
            {
              "code": "271737000",
              "system": "http://snomed.info/sct",
              "display": "Anemia (disorder)"
            }
          ],
          "text": "Anemia"
        },
        "text": {
          "status": "generated",
          "div": "<div xmlns=\"http://www.w3.org/1999/xhtml\"><table class=\"hl7__ips\"><tr><td>Anemia</td><td><span class=\"nb\">05-Dec-2000</span></td><td>active</td></tr></table></div>"
        },
        "onsetDateTime": "2000-12-05",
        "subject": {
          "reference": "urn:uuid:",
          "display": "Roy Harrison"
        },
        "asserter": {
          "reference": "urn:uuid:",
          "display": "Evelina Children&#039;s Hospital"
        }
      }
    },
    {
      "fullUrl": "urn:uuid:9aceb1a0-ba8f-404b-9069-bc8b19b35666",
      "resource": {
        "resourceType": "Condition",
        "id": "9aceb1a0-ba8f-404b-9069-bc8b19b35666",
        "meta": {
          "profile": [
            "http://hl7.org/fhir/uv/ips/StructureDefinition/Condition-uv-ips"
          ]
        },
        "category": [
          {
            "coding": [
              {
                "code": "problem-list-item",
                "system": "http://terminology.hl7.org/CodeSystem/condition-category",
                "display": "Problem List Item"
              }
            ]
          }
        ],
        "code": {
          "coding": [
            {
              "code": "90560007",
              "system": "http://snomed.info/sct",
              "display": "Gout (disorder)"
            }
          ],
          "text": "Gout"
        },
        "text": {
          "status": "generated",
          "div": "<div xmlns=\"http://www.w3.org/1999/xhtml\"><table class=\"hl7__ips\"><tr><td>Gout</td><td><span class=\"nb\">09-Mar-1994</span></td><td>active</td></tr></table></div>"
        },
        "onsetDateTime": "1994-03-09",
        "subject": {
          "reference": "urn:uuid:",
          "display": "Roy Harrison"
        },
        "asserter": {
          "reference": "urn:uuid:",
          "display": "Evelina Children&#039;s Hospital"
        }
      }
    },
    {
      "fullUrl": "urn:uuid:e9c09c4a-5294-461e-87c1-687480ff2cae",
      "resource": {
        "resourceType": "Condition",
        "id": "e9c09c4a-5294-461e-87c1-687480ff2cae",
        "meta": {
          "profile": [
            "http://hl7.org/fhir/uv/ips/StructureDefinition/Condition-uv-ips"
          ]
        },
        "category": [
          {
            "coding": [
              {
                "code": "problem-list-item",
                "system": "http://terminology.hl7.org/CodeSystem/condition-category",
                "display": "Problem List Item"
              }
            ]
          }
        ],
        "code": {
          "coding": [
            {
              "code": "44465007",
              "system": "http://snomed.info/sct",
              "display": "Sprain of ankle (disorder)"
            }
          ],
          "text": "Sprain of ankle"
        },
        "text": {
          "status": "generated",
          "div": "<div xmlns=\"http://www.w3.org/1999/xhtml\"><table class=\"hl7__ips\"><tr><td><span class=\"grayedout\">Sprain of ankle</span></td><td><span class=\"nb\">09-Jun-2025 - 23-Jun-2025</span></td><td><span class=\"grayedout\">inactive</span></td></tr></table></div>"
        },
        "onsetDateTime": "2025-06-09",
        "abatementDateTime": "2025-06-23",
        "subject": {
          "reference": "urn:uuid:",
          "display": "Roy Harrison"
        },
        "asserter": {
          "reference": "urn:uuid:",
          "display": "Evelina Children&#039;s Hospital"
        }
      }
    },
    {
      "fullUrl": "urn:uuid:f71211be-8d56-4cb0-a82c-913b96a0c127",
      "resource": {
        "resourceType": "Condition",
        "id": "f71211be-8d56-4cb0-a82c-913b96a0c127",
        "meta": {
          "profile": [
            "http://hl7.org/fhir/uv/ips/StructureDefinition/Condition-uv-ips"
          ]
        },
        "category": [
          {
            "coding": [
              {
                "code": "problem-list-item",
                "system": "http://terminology.hl7.org/CodeSystem/condition-category",
                "display": "Problem List Item"
              }
            ]
          }
        ],
        "code": {
          "coding": [
            {
              "code": "403190006",
              "system": "http://snomed.info/sct",
              "display": "Epidermal burn of skin (disorder)"
            }
          ],
          "text": "Epidermal burn of skin"
        },
        "text": {
          "status": "generated",
          "div": "<div xmlns=\"http://www.w3.org/1999/xhtml\"><table class=\"hl7__ips\"><tr><td><span class=\"grayedout\">Epidermal burn of skin</span></td><td><span class=\"nb\">20-Apr-2022 - 28-Jun-2022</span></td><td><span class=\"grayedout\">inactive</span></td></tr></table></div>"
        },
        "onsetDateTime": "2022-04-20",
        "abatementDateTime": "2022-06-28",
        "subject": {
          "reference": "urn:uuid:",
          "display": "Roy Harrison"
        },
        "asserter": {
          "reference": "urn:uuid:",
          "display": "Evelina Children&#039;s Hospital"
        }
      }
    },
    {
      "fullUrl": "urn:uuid:04cb43db-9af6-40f6-88aa-2a5a4cc04638",
      "resource": {
        "resourceType": "Condition",
        "id": "04cb43db-9af6-40f6-88aa-2a5a4cc04638",
        "meta": {
          "profile": [
            "http://hl7.org/fhir/uv/ips/StructureDefinition/Condition-uv-ips"
          ]
        },
        "category": [
          {
            "coding": [
              {
                "code": "problem-list-item",
                "system": "http://terminology.hl7.org/CodeSystem/condition-category",
                "display": "Problem List Item"
              }
            ]
          }
        ],
        "code": {
          "coding": [
            {
              "code": "16114001",
              "system": "http://snomed.info/sct",
              "display": "Fracture of ankle (disorder)"
            }
          ],
          "text": "Fracture of ankle"
        },
        "text": {
          "status": "generated",
          "div": "<div xmlns=\"http://www.w3.org/1999/xhtml\"><table class=\"hl7__ips\"><tr><td><span class=\"grayedout\">Fracture of ankle</span></td><td><span class=\"nb\">10-Mar-2016 - 26-Jun-2016</span></td><td><span class=\"grayedout\">inactive</span></td></tr></table></div>"
        },
        "onsetDateTime": "2016-03-10",
        "abatementDateTime": "2016-06-26",
        "subject": {
          "reference": "urn:uuid:",
          "display": "Roy Harrison"
        },
        "asserter": {
          "reference": "urn:uuid:",
          "display": "Evelina Children&#039;s Hospital"
        }
      }
    },
    {
      "fullUrl": "urn:uuid:96e86518-5cc0-4210-875a-930b13c8219e",
      "resource": {
        "resourceType": "Condition",
        "id": "96e86518-5cc0-4210-875a-930b13c8219e",
        "meta": {
          "profile": [
            "http://hl7.org/fhir/uv/ips/StructureDefinition/Condition-uv-ips"
          ]
        },
        "category": [
          {
            "coding": [
              {
                "code": "problem-list-item",
                "system": "http://terminology.hl7.org/CodeSystem/condition-category",
                "display": "Problem List Item"
              }
            ]
          }
        ],
        "code": {
          "coding": [
            {
              "code": "125605004",
              "system": "http://snomed.info/sct",
              "display": "Fracture of bone (disorder)"
            }
          ],
          "text": "Fracture of bone"
        },
        "text": {
          "status": "generated",
          "div": "<div xmlns=\"http://www.w3.org/1999/xhtml\"><table class=\"hl7__ips\"><tr><td><span class=\"grayedout\">Fracture of bone</span></td><td><span class=\"nb\">10-Mar-2016 - 26-Jun-2016</span></td><td><span class=\"grayedout\">inactive</span></td></tr></table></div>"
        },
        "onsetDateTime": "2016-03-10",
        "abatementDateTime": "2016-06-26",
        "subject": {
          "reference": "urn:uuid:",
          "display": "Roy Harrison"
        },
        "asserter": {
          "reference": "urn:uuid:",
          "display": "Evelina Children&#039;s Hospital"
        }
      }
    },
    {
      "fullUrl": "urn:uuid:0d71bd54-d3c7-43b4-b5d7-36456f52a7a0",
      "resource": {
        "resourceType": "Medication",
        "id": "0d71bd54-d3c7-43b4-b5d7-36456f52a7a0",
        "meta": {
          "profile": [
            "http://hl7.eu/fhir/eps/StructureDefinition/Medication-eu-eps"
          ]
        },
        "code": {
          "coding": [
            {
              "code": "318859000",
              "system": "http://snomed.info/sct",
              "display": "Lisinopril 10 mg oral tablet"
            }
          ],
          "text": "Lisinopril 10 mg oral tablet"
        },
        "text": {
          "status": "generated",
          "div": "<div xmlns=\"http://www.w3.org/1999/xhtml\">Lisinopril 10 mg oral tablet</div>"
        }
      }
    },
    {
      "fullUrl": "urn:uuid:6c8281c5-f50a-464d-b812-460b67603ae6",
      "resource": {
        "resourceType": "MedicationStatement",
        "id": "6c8281c5-f50a-464d-b812-460b67603ae6",
        "meta": {
          "profile": [
            "http://hl7.eu/fhir/eps/StructureDefinition/MedicationStatement-eu-eps"
          ]
        },
        "effectivePeriod": {
          "start": "2025-04-22"
        },
        "dosage": [
          {
            "doseAndRate": [
              {
                "doseQuantity": {
                  "value": 1,
                  "unit": "{tbl}",
                  "code": "{tbl}"
                }
              }
            ],
            "timing": {
              "repeat": {
                "frequency": 1,
                "period": 1,
                "periodUnit": "d"
              }
            },
            "text": "1 tablet (10 mg) by mouth once daily",
            "asNeededBoolean": false
          }
        ],
        "reasonCode": [
          {
            "coding": [
              {
                "code": "59621000",
                "system": "http://snomed.info/sct",
                "display": "Essential hypertension (disorder)"
              }
            ]
          }
        ],
        "text": {
          "status": "generated",
          "div": "<div xmlns=\"http://www.w3.org/1999/xhtml\"><table class=\"hl7__ips first25\"><tr><th>Medication</th><th>Since</th><th>Form</th><th>Dosage</th><th>Reason</th></tr><tr><td>Lisinopril 10 mg oral tablet</td><td><span class=\"nb\">2025-04-22</span></td><td>-</td><td>1 tablet (10 mg) by mouth once daily</td><td>Essential hypertension (disorder)</td></tr></table></div>"
        },
        "status": "active",
        "medicationReference": {
          "reference": "urn:uuid:0d71bd54-d3c7-43b4-b5d7-36456f52a7a0",
          "display": "Lisinopril 10 mg oral tablet"
        },
        "subject": {
          "reference": "urn:uuid:67c3ba28-c25a-4b97-9eef-e80f5cad2359",
          "display": "Roy Harrison"
        }
      }
    },
    {
      "fullUrl": "urn:uuid:5a68d8b6-865d-4046-9678-649c85071c22",
      "resource": {
        "resourceType": "Immunization",
        "id": "5a68d8b6-865d-4046-9678-649c85071c22",
        "meta": {
          "profile": [
            "http://hl7.org/fhir/uv/ips/StructureDefinition/Immunization-uv-ips"
          ]
        },
        "vaccineCode": {
          "coding": [
            {
              "code": "1181000221105",
              "system": "http://snomed.info/sct",
              "display": "Vaccine product containing Influenza virus antigen"
            },
            {
              "code": "J07BB02",
              "system": "http://www.whocc.no/atc",
              "display": "Influenza, inactivated, split virus"
            }
          ],
          "text": "Influenza virus antigen only vaccine product"
        },
        "site": {
          "coding": [
            {
              "code": "244979005",
              "system": "http://snomed.info/sct",
              "display": "Entire muscle of upper arm"
            }
          ],
          "text": "Entire muscle of upper arm"
        },
        "route": {
          "coding": [
            {
              "code": "78421000",
              "system": "http://snomed.info/sct",
              "display": "Intramuscular route"
            }
          ],
          "text": "Intramuscular route"
        },
        "text": {
          "status": "generated",
          "div": "<div xmlns=\"http://www.w3.org/1999/xhtml\"><table class=\"hl7__ips\"><tr><td>Influenza virus antigen only vaccine product</td><td><span class=\"nb\">22-Apr-2025</span></td></tr></table></div>"
        },
        "status": "completed",
        "patient": {
          "reference": "urn:uuid:67c3ba28-c25a-4b97-9eef-e80f5cad2359",
          "display": "Roy Harrison"
        },
        "occurrenceDateTime": "2025-04-22",
        "lotNumber": "YC-gPDndCj",
        "expirationDate": "2025-12-29"
      }
    },
    {
      "fullUrl": "urn:uuid:52546e62-1d54-4fb4-a1b7-ed380413a24e",
      "resource": {
        "resourceType": "Immunization",
        "id": "52546e62-1d54-4fb4-a1b7-ed380413a24e",
        "meta": {
          "profile": [
            "http://hl7.org/fhir/uv/ips/StructureDefinition/Immunization-uv-ips"
          ]
        },
        "vaccineCode": {
          "coding": [
            {
              "code": "1119349007",
              "system": "http://snomed.info/sct",
              "display": "Vaccine product containing SARS-CoV-2 mRNA"
            },
            {
              "code": "J07BX03",
              "system": "http://www.whocc.no/atc",
              "display": "COVID-19 mRNA vaccines"
            }
          ],
          "text": "SARS-CoV-2 mRNA vaccine"
        },
        "site": {
          "coding": [
            {
              "code": "244979005",
              "system": "http://snomed.info/sct",
              "display": "Entire muscle of upper arm"
            }
          ],
          "text": "Entire muscle of upper arm"
        },
        "route": {
          "coding": [
            {
              "code": "78421000",
              "system": "http://snomed.info/sct",
              "display": "Intramuscular route"
            }
          ],
          "text": "Intramuscular route"
        },
        "text": {
          "status": "generated",
          "div": "<div xmlns=\"http://www.w3.org/1999/xhtml\"><table class=\"hl7__ips\"><tr><td>SARS-CoV-2 mRNA vaccine</td><td><span class=\"nb\">23-Mar-2021</span></td></tr></table></div>"
        },
        "status": "completed",
        "patient": {
          "reference": "urn:uuid:67c3ba28-c25a-4b97-9eef-e80f5cad2359",
          "display": "Roy Harrison"
        },
        "occurrenceDateTime": "2021-03-23",
        "lotNumber": "GK-MGqe743L",
        "expirationDate": "2021-10-28"
      }
    },
    {
      "fullUrl": "urn:uuid:0ea97572-e73f-4a74-93e0-5bf5746aa395",
      "resource": {
        "resourceType": "Immunization",
        "id": "0ea97572-e73f-4a74-93e0-5bf5746aa395",
        "meta": {
          "profile": [
            "http://hl7.org/fhir/uv/ips/StructureDefinition/Immunization-uv-ips"
          ]
        },
        "vaccineCode": {
          "coding": [
            {
              "code": "777725002",
              "system": "http://snomed.info/sct",
              "display": "Vaccine product containing only Clostridium tetani toxoid antigen adsorbed"
            },
            {
              "code": "J07AM51",
              "system": "http://www.whocc.no/atc",
              "display": "Diphtheria-tetanus vaccines, adult type"
            }
          ],
          "text": "Clostridium tetani toxoid antigen adsorbed only vaccine product"
        },
        "site": {
          "coding": [
            {
              "code": "244979005",
              "system": "http://snomed.info/sct",
              "display": "Entire muscle of upper arm"
            }
          ],
          "text": "Entire muscle of upper arm"
        },
        "route": {
          "coding": [
            {
              "code": "78421000",
              "system": "http://snomed.info/sct",
              "display": "Intramuscular route"
            }
          ],
          "text": "Intramuscular route"
        },
        "text": {
          "status": "generated",
          "div": "<div xmlns=\"http://www.w3.org/1999/xhtml\"><table class=\"hl7__ips\"><tr><td>Clostridium tetani toxoid antigen adsorbed only vaccine product</td><td><span class=\"nb\">13-Mar-2018</span></td></tr></table></div>"
        },
        "status": "completed",
        "patient": {
          "reference": "urn:uuid:67c3ba28-c25a-4b97-9eef-e80f5cad2359",
          "display": "Roy Harrison"
        },
        "occurrenceDateTime": "2018-03-13",
        "lotNumber": "HJ-QeQVKDmEy",
        "expirationDate": "2018-10-06"
      }
    },
    {
      "fullUrl": "urn:uuid:68885718-712b-4187-a20c-1fd0ed7398cf",
      "resource": {
        "resourceType": "Immunization",
        "id": "68885718-712b-4187-a20c-1fd0ed7398cf",
        "meta": {
          "profile": [
            "http://hl7.org/fhir/uv/ips/StructureDefinition/Immunization-uv-ips"
          ]
        },
        "vaccineCode": {
          "coding": [
            {
              "code": "2221000221107",
              "system": "http://snomed.info/sct",
              "display": "Live attenuated Varicella-zoster vaccine"
            },
            {
              "code": "J07BK02",
              "system": "http://www.whocc.no/atc",
              "display": "Varicella-zoster vaccines"
            }
          ],
          "text": "Live attenuated Human alphaherpesvirus 3 only vaccine product"
        },
        "site": {
          "coding": [
            {
              "code": "368208006",
              "system": "http://snomed.info/sct",
              "display": "Left upper arm structure"
            }
          ],
          "text": "Left upper arm structure"
        },
        "route": {
          "coding": [
            {
              "code": "34206005",
              "system": "http://snomed.info/sct",
              "display": "Subcutaneous route"
            }
          ],
          "text": "Subcutaneous route"
        },
        "text": {
          "status": "generated",
          "div": "<div xmlns=\"http://www.w3.org/1999/xhtml\"><table class=\"hl7__ips\"><tr><td>Live attenuated Human alphaherpesvirus 3 only vaccine product</td><td><span class=\"nb\">13-Mar-2018</span></td></tr></table></div>"
        },
        "status": "completed",
        "patient": {
          "reference": "urn:uuid:67c3ba28-c25a-4b97-9eef-e80f5cad2359",
          "display": "Roy Harrison"
        },
        "occurrenceDateTime": "2018-03-13",
        "lotNumber": "RO-0jIua49",
        "expirationDate": "2018-12-30"
      }
    },
    {
      "fullUrl": "urn:uuid:b2d06ef3-dbb7-4d56-bdf5-f9b7d6130fdd",
      "resource": {
        "resourceType": "Procedure",
        "id": "b2d06ef3-dbb7-4d56-bdf5-f9b7d6130fdd",
        "meta": {
          "profile": [
            "http://hl7.org/fhir/uv/ips/StructureDefinition/Procedure-uv-ips"
          ]
        },
        "code": {
          "coding": [
            {
              "code": "225386006",
              "system": "http://snomed.info/sct",
              "display": "Pre-discharge assessment (procedure)"
            }
          ],
          "text": "Pre-discharge assessment"
        },
        "text": {
          "status": "generated",
          "div": "<div xmlns=\"http://www.w3.org/1999/xhtml\"><table class=\"hl7__ips\"><tr><td>Pre-discharge assessment</td><td><span class=\"nb\">13-Jun-2022</span></td><td>-</td></tr></table></div>"
        },
        "status": "completed",
        "performedDateTime": "2022-06-13",
        "subject": {
          "reference": "urn:uuid:",
          "display": "Roy Harrison"
        }
      }
    },
    {
      "fullUrl": "urn:uuid:323fedd5-dfc0-409f-8a6e-9bab989a3b5c",
      "resource": {
        "resourceType": "Procedure",
        "id": "323fedd5-dfc0-409f-8a6e-9bab989a3b5c",
        "meta": {
          "profile": [
            "http://hl7.org/fhir/uv/ips/StructureDefinition/Procedure-uv-ips"
          ]
        },
        "code": {
          "coding": [
            {
              "code": "449381000124108",
              "system": "http://snomed.info/sct",
              "display": "Discharge from skilled nursing facility (procedure)"
            }
          ]
        },
        "text": {
          "status": "generated",
          "div": "<div xmlns=\"http://www.w3.org/1999/xhtml\"><table class=\"hl7__ips\"><tr><td>Discharge from skilled nursing facility (procedure)</td><td><span class=\"nb\">13-Jun-2022</span></td><td>-</td></tr></table></div>"
        },
        "status": "completed",
        "performedDateTime": "2022-06-13",
        "subject": {
          "reference": "urn:uuid:",
          "display": "Roy Harrison"
        }
      }
    },
    {
      "fullUrl": "urn:uuid:60ca922f-6a40-4c2a-82fc-d47def2e7b0d",
      "resource": {
        "resourceType": "Procedure",
        "id": "60ca922f-6a40-4c2a-82fc-d47def2e7b0d",
        "meta": {
          "profile": [
            "http://hl7.org/fhir/uv/ips/StructureDefinition/Procedure-uv-ips"
          ]
        },
        "code": {
          "coding": [
            {
              "code": "410401003",
              "system": "http://snomed.info/sct",
              "display": "Nursing care/supplementary surveillance (regime/therapy)"
            }
          ],
          "text": "Nursing care/supplementary surveillance"
        },
        "text": {
          "status": "generated",
          "div": "<div xmlns=\"http://www.w3.org/1999/xhtml\"><table class=\"hl7__ips\"><tr><td>Nursing care/supplementary surveillance</td><td><span class=\"nb\">12-Jun-2022</span></td><td>-</td></tr></table></div>"
        },
        "status": "completed",
        "performedDateTime": "2022-06-12",
        "subject": {
          "reference": "urn:uuid:",
          "display": "Roy Harrison"
        }
      }
    },
    {
      "fullUrl": "urn:uuid:873de8e4-83ad-4bcd-8d80-a14b83e7d8eb",
      "resource": {
        "resourceType": "Procedure",
        "id": "873de8e4-83ad-4bcd-8d80-a14b83e7d8eb",
        "meta": {
          "profile": [
            "http://hl7.org/fhir/uv/ips/StructureDefinition/Procedure-uv-ips"
          ]
        },
        "code": {
          "coding": [
            {
              "code": "84478008",
              "system": "http://snomed.info/sct",
              "display": "Occupational therapy (regime/therapy)"
            }
          ],
          "text": "Occupational therapy"
        },
        "text": {
          "status": "generated",
          "div": "<div xmlns=\"http://www.w3.org/1999/xhtml\"><table class=\"hl7__ips\"><tr><td>Occupational therapy</td><td><span class=\"nb\">10-Jun-2022</span></td><td>-</td></tr></table></div>"
        },
        "status": "completed",
        "performedDateTime": "2022-06-10",
        "subject": {
          "reference": "urn:uuid:",
          "display": "Roy Harrison"
        }
      }
    },
    {
      "fullUrl": "urn:uuid:11ab18f8-b7a6-4d82-9905-ddaa3c3b0718",
      "resource": {
        "resourceType": "Procedure",
        "id": "11ab18f8-b7a6-4d82-9905-ddaa3c3b0718",
        "meta": {
          "profile": [
            "http://hl7.org/fhir/uv/ips/StructureDefinition/Procedure-uv-ips"
          ]
        },
        "code": {
          "coding": [
            {
              "code": "392091000",
              "system": "http://snomed.info/sct",
              "display": "Care regimes assessment (procedure)"
            }
          ],
          "text": "Care regimes assessment"
        },
        "text": {
          "status": "generated",
          "div": "<div xmlns=\"http://www.w3.org/1999/xhtml\"><table class=\"hl7__ips\"><tr><td>Care regimes assessment</td><td><span class=\"nb\">08-Jun-2022</span></td><td>-</td></tr></table></div>"
        },
        "status": "completed",
        "performedDateTime": "2022-06-08",
        "subject": {
          "reference": "urn:uuid:",
          "display": "Roy Harrison"
        }
      }
    },
    {
      "fullUrl": "urn:uuid:639d66aa-8f96-4f2b-b4c1-ea953f340d04",
      "resource": {
        "resourceType": "Procedure",
        "id": "639d66aa-8f96-4f2b-b4c1-ea953f340d04",
        "meta": {
          "profile": [
            "http://hl7.org/fhir/uv/ips/StructureDefinition/Procedure-uv-ips"
          ]
        },
        "code": {
          "coding": [
            {
              "code": "409023009",
              "system": "http://snomed.info/sct",
              "display": "Professional / ancillary services care (regime/therapy)"
            }
          ],
          "text": "Professional / ancillary services care"
        },
        "text": {
          "status": "generated",
          "div": "<div xmlns=\"http://www.w3.org/1999/xhtml\"><table class=\"hl7__ips\"><tr><td>Professional / ancillary services care</td><td><span class=\"nb\">07-Jun-2022</span></td><td>-</td></tr></table></div>"
        },
        "status": "completed",
        "performedDateTime": "2022-06-07",
        "subject": {
          "reference": "urn:uuid:",
          "display": "Roy Harrison"
        }
      }
    },
    {
      "fullUrl": "urn:uuid:ac4d406b-446f-4f06-9511-6dba9718a879",
      "resource": {
        "resourceType": "Procedure",
        "id": "ac4d406b-446f-4f06-9511-6dba9718a879",
        "meta": {
          "profile": [
            "http://hl7.org/fhir/uv/ips/StructureDefinition/Procedure-uv-ips"
          ]
        },
        "code": {
          "coding": [
            {
              "code": "311555007",
              "system": "http://snomed.info/sct",
              "display": "Speech and language therapy regime (regime/therapy)"
            }
          ],
          "text": "Speech and language therapy regime"
        },
        "text": {
          "status": "generated",
          "div": "<div xmlns=\"http://www.w3.org/1999/xhtml\"><table class=\"hl7__ips\"><tr><td>Speech and language therapy regime</td><td><span class=\"nb\">15-May-2022</span></td><td>-</td></tr></table></div>"
        },
        "status": "completed",
        "performedDateTime": "2022-05-15",
        "subject": {
          "reference": "urn:uuid:",
          "display": "Roy Harrison"
        }
      }
    },
    {
      "fullUrl": "urn:uuid:a0fa4f6b-bb9d-4f28-afa1-a90a3b32e779",
      "resource": {
        "resourceType": "Procedure",
        "id": "a0fa4f6b-bb9d-4f28-afa1-a90a3b32e779",
        "meta": {
          "profile": [
            "http://hl7.org/fhir/uv/ips/StructureDefinition/Procedure-uv-ips"
          ]
        },
        "code": {
          "coding": [
            {
              "code": "91251008",
              "system": "http://snomed.info/sct",
              "display": "Physical therapy procedure (regime/therapy)"
            }
          ],
          "text": "Physical therapy procedure"
        },
        "text": {
          "status": "generated",
          "div": "<div xmlns=\"http://www.w3.org/1999/xhtml\"><table class=\"hl7__ips\"><tr><td>Physical therapy procedure</td><td><span class=\"nb\">02-May-2022</span></td><td>-</td></tr></table></div>"
        },
        "status": "completed",
        "performedDateTime": "2022-05-02",
        "subject": {
          "reference": "urn:uuid:",
          "display": "Roy Harrison"
        }
      }
    },
    {
      "fullUrl": "urn:uuid:fa0ea2e0-a6e5-4a25-bda8-4d9a0ba4755e",
      "resource": {
        "resourceType": "Procedure",
        "id": "fa0ea2e0-a6e5-4a25-bda8-4d9a0ba4755e",
        "meta": {
          "profile": [
            "http://hl7.org/fhir/uv/ips/StructureDefinition/Procedure-uv-ips"
          ]
        },
        "code": {
          "coding": [
            {
              "code": "63332003",
              "system": "http://snomed.info/sct",
              "display": "History AND physical examination (procedure)"
            }
          ],
          "text": "History AND physical examination"
        },
        "text": {
          "status": "generated",
          "div": "<div xmlns=\"http://www.w3.org/1999/xhtml\"><table class=\"hl7__ips\"><tr><td>History AND physical examination</td><td><span class=\"nb\">20-Apr-2022</span></td><td>-</td></tr></table></div>"
        },
        "status": "completed",
        "performedDateTime": "2022-04-20",
        "subject": {
          "reference": "urn:uuid:",
          "display": "Roy Harrison"
        }
      }
    },
    {
      "fullUrl": "urn:uuid:188f0441-48df-4338-b6e2-33127653521f",
      "resource": {
        "resourceType": "Procedure",
        "id": "188f0441-48df-4338-b6e2-33127653521f",
        "meta": {
          "profile": [
            "http://hl7.org/fhir/uv/ips/StructureDefinition/Procedure-uv-ips"
          ]
        },
        "code": {
          "coding": [
            {
              "code": "315639002",
              "system": "http://snomed.info/sct",
              "display": "Initial patient assessment (procedure)"
            }
          ],
          "text": "Initial patient assessment"
        },
        "text": {
          "status": "generated",
          "div": "<div xmlns=\"http://www.w3.org/1999/xhtml\"><table class=\"hl7__ips\"><tr><td>Initial patient assessment</td><td><span class=\"nb\">20-Apr-2022</span></td><td>-</td></tr></table></div>"
        },
        "status": "completed",
        "performedDateTime": "2022-04-20",
        "subject": {
          "reference": "urn:uuid:",
          "display": "Roy Harrison"
        }
      }
    },
    {
      "fullUrl": "urn:uuid:42005c5f-6539-488d-854f-94c305253485",
      "resource": {
        "resourceType": "Procedure",
        "id": "42005c5f-6539-488d-854f-94c305253485",
        "meta": {
          "profile": [
            "http://hl7.org/fhir/uv/ips/StructureDefinition/Procedure-uv-ips"
          ]
        },
        "code": {
          "coding": [
            {
              "code": "370789001",
              "system": "http://snomed.info/sct",
              "display": "Development of individualized plan of care (procedure)"
            }
          ],
          "text": "Development of individualized plan of care"
        },
        "text": {
          "status": "generated",
          "div": "<div xmlns=\"http://www.w3.org/1999/xhtml\"><table class=\"hl7__ips\"><tr><td>Development of individualized plan of care</td><td><span class=\"nb\">20-Apr-2022</span></td><td>-</td></tr></table></div>"
        },
        "status": "completed",
        "performedDateTime": "2022-04-20",
        "subject": {
          "reference": "urn:uuid:",
          "display": "Roy Harrison"
        }
      }
    },
    {
      "fullUrl": "urn:uuid:9cd1e1d0-72bf-424f-99c2-f0a8b6085762",
      "resource": {
        "resourceType": "Procedure",
        "id": "9cd1e1d0-72bf-424f-99c2-f0a8b6085762",
        "meta": {
          "profile": [
            "http://hl7.org/fhir/uv/ips/StructureDefinition/Procedure-uv-ips"
          ]
        },
        "code": {
          "coding": [
            {
              "code": "19490002",
              "system": "http://snomed.info/sct",
              "display": "Ankle X-ray"
            }
          ],
          "text": "Radiography of ankle"
        },
        "text": {
          "status": "generated",
          "div": "<div xmlns=\"http://www.w3.org/1999/xhtml\"><table class=\"hl7__ips\"><tr><td>Radiography of ankle</td><td><span class=\"nb\">10-Mar-2016</span></td><td>-</td></tr></table></div>"
        },
        "status": "completed",
        "performedDateTime": "2016-03-10",
        "subject": {
          "reference": "urn:uuid:",
          "display": "Roy Harrison"
        }
      }
    },
    {
      "fullUrl": "urn:uuid:ad99e929-b9b1-47c1-9b60-910fce2f5466",
      "resource": {
        "resourceType": "Procedure",
        "id": "ad99e929-b9b1-47c1-9b60-910fce2f5466",
        "meta": {
          "profile": [
            "http://hl7.org/fhir/uv/ips/StructureDefinition/Procedure-uv-ips"
          ]
        },
        "code": {
          "coding": [
            {
              "code": "274474001",
              "system": "http://snomed.info/sct",
              "display": "Bone immobilization"
            }
          ],
          "text": "Bone immobilization"
        },
        "reasonCode": [
          {
            "coding": [
              {
                "code": "16114001",
                "system": "http://snomed.info/sct",
                "display": "Fracture of ankle"
              }
            ]
          }
        ],
        "text": {
          "status": "generated",
          "div": "<div xmlns=\"http://www.w3.org/1999/xhtml\"><table class=\"hl7__ips\"><tr><td>Bone immobilization</td><td><span class=\"nb\">10-Mar-2016</span></td><td>Fracture of ankle</td></tr></table></div>"
        },
        "status": "completed",
        "performedDateTime": "2016-03-10",
        "subject": {
          "reference": "urn:uuid:",
          "display": "Roy Harrison"
        }
      }
    },
    {
      "fullUrl": "urn:uuid:4daecb10-f9b4-455f-a8a2-e246fde0ab9b",
      "resource": {
        "resourceType": "AllergyIntolerance",
        "id": "4daecb10-f9b4-455f-a8a2-e246fde0ab9b",
        "meta": {
          "profile": [
            "http://hl7.eu/fhir/eps/StructureDefinition/allergyIntolerance-eu-eps"
          ]
        },
        "code": {
          "text": ""
        },
        "clinicalStatus": {
          "coding": [
            {
              "code": "active",
              "system": "http://terminology.hl7.org/CodeSystem/allergyintolerance-clinical"
            }
          ]
        },
        "text": {
          "status": "generated",
          "div": "<div xmlns=\"http://www.w3.org/1999/xhtml\"><table class=\"hl7__ips\"><tr><th>Allergy/Intolerance</th><th>Onset Date</th><th>Status</th><th>Type</th><th>Reaction</th></tr><tr><td></td><td>?</td><td>active</td><td>?</td><td></td></tr></table></div>"
        },
        "verificationStatus": {
          "coding": [
            {
              "code": "confirmed",
              "system": "http://terminology.hl7.org/CodeSystem/allergyintolerance-verification"
            }
          ]
        },
        "patient": {
          "reference": "urn:uuid:67c3ba28-c25a-4b97-9eef-e80f5cad2359",
          "display": "Roy Harrison"
        },
        "_onsetDateTime": {
          "extension": [
            {
              "url": "http://hl7.org/fhir/StructureDefinition/data-absent-reason",
              "valueCode": "unknown"
            }
          ]
        }
      }
    },
    {
      "fullUrl": "urn:uuid:771206c5-39c1-4cff-aabe-cab6134535fc",
      "resource": {
        "resourceType": "CarePlan",
        "id": "771206c5-39c1-4cff-aabe-cab6134535fc",
        "category": [
          {
            "coding": [
              {
                "code": "assess-plan",
                "system": "http://terminology.hl7.org/CodeSystem/care-plan-category",
                "display": "Assessment and Plan"
              }
            ]
          }
        ],
        "activity": [
          {
            "detail": {
              "code": {
                "coding": [
                  {
                    "code": "443402002",
                    "system": "http://snomed.info/sct",
                    "display": "Lifestyle education regarding hypertension (procedure)"
                  }
                ]
              },
              "reasonCode": [
                {
                  "coding": [
                    {
                      "code": "59621000",
                      "system": "http://snomed.info/sct",
                      "display": "Essential hypertension (disorder)"
                    }
                  ]
                }
              ],
              "status": "unknown",
              "description": "Lifestyle education regarding hypertension",
              "kind": "Appointment"
            }
          }
        ],
        "period": {
          "start": "2000-12-05"
        },
        "goal": [
          {
            "reference": "urn:uuid:e25dccd2-c6e3-458b-91a0-78f1144e5090"
          },
          {
            "reference": "urn:uuid:c6c61815-947a-49ad-8beb-951885f9303d"
          },
          {
            "reference": "urn:uuid:fcf684fc-ad4b-484d-b386-3830cecc16be"
          },
          {
            "reference": "urn:uuid:21ddacd0-a531-4fe5-a0cb-b947ae0d4c0e"
          }
        ],
        "text": {
          "status": "generated",
          "div": "<div xmlns=\"http://www.w3.org/1999/xhtml\"><table class=\"hl7__ips first25\"><tr><th>Active Planned Care / Goals</th><th>Start Date</th><th>Reason</th></tr><tr><td>Lifestyle education regarding hypertension</td><td><span class=\"nb\">05-Dec-2000</span></td><td>Essential hypertension (disorder)</td></tr><tr><td><ul><li>Maintain blood pressure below 130/80 mmHg through lifestyle modifications.</li><li>Reduce body weight by 5% to improve blood pressure control.</li><li>Limit sodium intake to less than 2.3 grams per day to help control blood pressure.</li><li>Engage in at least 150 minutes of moderate-intensity aerobic physical activity per week.</li></ul></td><td></td><td></td></tr></table></div>"
        },
        "status": "active",
        "intent": "plan",
        "subject": {
          "reference": "urn:uuid:67c3ba28-c25a-4b97-9eef-e80f5cad2359",
          "display": "Roy Harrison"
        }
      }
    },
    {
      "fullUrl": "urn:uuid:c425f9ed-a511-45b7-8024-35f18455f9c5",
      "resource": {
        "resourceType": "CarePlan",
        "id": "c425f9ed-a511-45b7-8024-35f18455f9c5",
        "category": [
          {
            "coding": [
              {
                "code": "assess-plan",
                "system": "http://terminology.hl7.org/CodeSystem/care-plan-category",
                "display": "Assessment and Plan"
              }
            ]
          }
        ],
        "activity": [
          {
            "detail": {
              "code": {
                "coding": [
                  {
                    "code": "698360004",
                    "system": "http://snomed.info/sct",
                    "display": "Diabetes self management plan (qualifier value)"
                  }
                ]
              },
              "reasonCode": [
                {
                  "coding": [
                    {
                      "code": "44054006",
                      "system": "http://snomed.info/sct",
                      "display": "Diabetes mellitus type 2 (disorder)"
                    }
                  ]
                }
              ],
              "status": "unknown",
              "description": "Diabetes self management plan",
              "kind": "Appointment"
            }
          }
        ],
        "period": {
          "start": "2000-12-05"
        },
        "goal": [
          {
            "reference": "urn:uuid:b658924c-e556-485e-8b34-a8a6e915cf54"
          },
          {
            "reference": "urn:uuid:4c0748c1-3952-4168-a597-cd9e1686d681"
          },
          {
            "reference": "urn:uuid:ab6ddc23-bfab-44f5-85c7-2b5fdb09f68e"
          },
          {
            "reference": "urn:uuid:5bda2c1a-ec53-40b7-b6a1-d0d63aabaed1"
          },
          {
            "reference": "urn:uuid:fff145ef-4cd3-4c8d-bed5-1d543b6b2c0f"
          }
        ],
        "text": {
          "status": "generated",
          "div": "<div xmlns=\"http://www.w3.org/1999/xhtml\"><table class=\"hl7__ips first25\"><tr><th>Active Planned Care / Goals</th><th>Start Date</th><th>Reason</th></tr><tr><td>Diabetes self management plan</td><td><span class=\"nb\">05-Dec-2000</span></td><td>Diabetes mellitus type 2 (disorder)</td></tr><tr><td><ul><li>Maintain or reduce hemoglobin A1c to individualized target to optimize glycemic control.</li><li>Maintain fasting blood glucose within recommended range to support diabetes control.</li><li>Maintain blood pressure below recommended threshold to reduce cardiovascular risk in diabetes.</li><li>Maintain LDL cholesterol below recommended threshold to reduce cardiovascular risk.</li><li>Achieve and maintain weight reduction to support glycemic control and overall health.</li></ul></td><td></td><td></td></tr></table></div>"
        },
        "status": "active",
        "intent": "plan",
        "subject": {
          "reference": "urn:uuid:67c3ba28-c25a-4b97-9eef-e80f5cad2359",
          "display": "Roy Harrison"
        }
      }
    },
    {
      "fullUrl": "urn:uuid:e466e2c1-8024-4214-83b0-a7532280cf41",
      "resource": {
        "resourceType": "CarePlan",
        "id": "e466e2c1-8024-4214-83b0-a7532280cf41",
        "category": [
          {
            "coding": [
              {
                "code": "assess-plan",
                "system": "http://terminology.hl7.org/CodeSystem/care-plan-category",
                "display": "Assessment and Plan"
              }
            ]
          }
        ],
        "activity": [
          {
            "detail": {
              "code": {
                "coding": [
                  {
                    "code": "408869004",
                    "system": "http://snomed.info/sct",
                    "display": "Musculoskeletal care (regime/therapy)"
                  }
                ]
              },
              "status": "unknown",
              "description": "Musculoskeletal care",
              "kind": "Appointment"
            }
          }
        ],
        "period": {
          "start": "1994-03-09"
        },
        "text": {
          "status": "generated",
          "div": "<div xmlns=\"http://www.w3.org/1999/xhtml\"><table class=\"hl7__ips first25\"><tr><th>Active Planned Care / Goals</th><th>Start Date</th><th>Reason</th></tr><tr><td>Musculoskeletal care</td><td><span class=\"nb\">09-Mar-1994</span></td><td>-</td></tr></table></div>"
        },
        "status": "active",
        "intent": "plan",
        "subject": {
          "reference": "urn:uuid:67c3ba28-c25a-4b97-9eef-e80f5cad2359",
          "display": "Roy Harrison"
        }
      }
    },
    {
      "fullUrl": "urn:uuid:eb859592-562b-4e52-847e-715fde166cd2",
      "resource": {
        "resourceType": "Observation",
        "id": "eb859592-562b-4e52-847e-715fde166cd2",
        "meta": {
          "profile": [
            "http://hl7.org/fhir/StructureDefinition/vitalsigns"
          ]
        },
        "category": [
          {
            "coding": [
              {
                "system": "http://terminology.hl7.org/CodeSystem/observation-category",
                "code": "vital-signs",
                "display": "Vital Signs"
              }
            ]
          }
        ],
        "valueQuantity": {
          "value": 180.6,
          "code": "cm",
          "unit": "cm"
        },
        "text": {
          "status": "generated",
          "div": "<div xmlns=\"http://www.w3.org/1999/xhtml\"><table class=\"hl7__ips\"><tr><th>Vital Sign</th><th>Date</th><th>Measurement</th></tr><tr><td>Body Height</td><td>22-Apr-2025</td><td>180.6 cm</td></tr></table></div>"
        },
        "status": "final",
        "code": {
          "coding": [
            {
              "code": "$8302-2",
              "system": "http://loinc.org",
              "display": "Body Height"
            }
          ]
        },
        "subject": {
          "reference": "urn:uuid:67c3ba28-c25a-4b97-9eef-e80f5cad2359",
          "display": "Roy Harrison"
        },
        "effectiveDateTime": "2025-04-22"
      }
    },
    {
      "fullUrl": "urn:uuid:a0df9a6e-4840-44ac-8a85-ab9e2239d2cf",
      "resource": {
        "resourceType": "Observation",
        "id": "a0df9a6e-4840-44ac-8a85-ab9e2239d2cf",
        "meta": {
          "profile": [
            "http://hl7.org/fhir/StructureDefinition/vitalsigns"
          ]
        },
        "category": [
          {
            "coding": [
              {
                "system": "http://terminology.hl7.org/CodeSystem/observation-category",
                "code": "vital-signs",
                "display": "Vital Signs"
              }
            ]
          }
        ],
        "valueQuantity": {
          "value": 1,
          "code": "{score}",
          "unit": "{score}"
        },
        "text": {
          "status": "generated",
          "div": "<div xmlns=\"http://www.w3.org/1999/xhtml\"><table class=\"hl7__ips\"><tr><th>Vital Sign</th><th>Date</th><th>Measurement</th></tr><tr><td>Pain severity - 0-10 verbal numeric rating [Score] - Reported</td><td>22-Apr-2025</td><td>1 {score}</td></tr></table></div>"
        },
        "status": "final",
        "code": {
          "coding": [
            {
              "code": "$72514-3",
              "system": "http://loinc.org",
              "display": "Pain severity - 0-10 verbal numeric rating [Score] - Reported"
            }
          ]
        },
        "subject": {
          "reference": "urn:uuid:67c3ba28-c25a-4b97-9eef-e80f5cad2359",
          "display": "Roy Harrison"
        },
        "effectiveDateTime": "2025-04-22"
      }
    },
    {
      "fullUrl": "urn:uuid:b059a088-76c6-43ed-829e-95cdcb5d41ab",
      "resource": {
        "resourceType": "Observation",
        "id": "b059a088-76c6-43ed-829e-95cdcb5d41ab",
        "meta": {
          "profile": [
            "http://hl7.org/fhir/StructureDefinition/vitalsigns"
          ]
        },
        "category": [
          {
            "coding": [
              {
                "system": "http://terminology.hl7.org/CodeSystem/observation-category",
                "code": "vital-signs",
                "display": "Vital Signs"
              }
            ]
          }
        ],
        "valueQuantity": {
          "value": 91.2,
          "code": "kg",
          "unit": "kg"
        },
        "text": {
          "status": "generated",
          "div": "<div xmlns=\"http://www.w3.org/1999/xhtml\"><table class=\"hl7__ips\"><tr><th>Vital Sign</th><th>Date</th><th>Measurement</th></tr><tr><td>Body Weight</td><td>22-Apr-2025</td><td>91.2 kg</td></tr></table></div>"
        },
        "status": "final",
        "code": {
          "coding": [
            {
              "code": "$29463-7",
              "system": "http://loinc.org",
              "display": "Body Weight"
            }
          ]
        },
        "subject": {
          "reference": "urn:uuid:67c3ba28-c25a-4b97-9eef-e80f5cad2359",
          "display": "Roy Harrison"
        },
        "effectiveDateTime": "2025-04-22"
      }
    },
    {
      "fullUrl": "urn:uuid:338e63c2-c3e7-4927-8f8d-14bb9019bf6a",
      "resource": {
        "resourceType": "Observation",
        "id": "338e63c2-c3e7-4927-8f8d-14bb9019bf6a",
        "meta": {
          "profile": [
            "http://hl7.org/fhir/StructureDefinition/vitalsigns"
          ]
        },
        "category": [
          {
            "coding": [
              {
                "system": "http://terminology.hl7.org/CodeSystem/observation-category",
                "code": "vital-signs",
                "display": "Vital Signs"
              }
            ]
          }
        ],
        "valueQuantity": {
          "value": 28,
          "code": "kg/m2",
          "unit": "kg/m2"
        },
        "text": {
          "status": "generated",
          "div": "<div xmlns=\"http://www.w3.org/1999/xhtml\"><table class=\"hl7__ips\"><tr><th>Vital Sign</th><th>Date</th><th>Measurement</th></tr><tr><td>Body mass index (BMI) [Ratio]</td><td>22-Apr-2025</td><td>28 kg/m2</td></tr></table></div>"
        },
        "status": "final",
        "code": {
          "coding": [
            {
              "code": "$39156-5",
              "system": "http://loinc.org",
              "display": "Body mass index (BMI) [Ratio]"
            }
          ]
        },
        "subject": {
          "reference": "urn:uuid:67c3ba28-c25a-4b97-9eef-e80f5cad2359",
          "display": "Roy Harrison"
        },
        "effectiveDateTime": "2025-04-22"
      }
    },
    {
      "fullUrl": "urn:uuid:b7b645f6-9db4-4e57-bb9d-910f3efb284b",
      "resource": {
        "resourceType": "Observation",
        "id": "b7b645f6-9db4-4e57-bb9d-910f3efb284b",
        "meta": {
          "profile": [
            "http://hl7.org/fhir/StructureDefinition/vitalsigns"
          ]
        },
        "category": [
          {
            "coding": [
              {
                "system": "http://terminology.hl7.org/CodeSystem/observation-category",
                "code": "vital-signs",
                "display": "Vital Signs"
              }
            ]
          }
        ],
        "valueQuantity": {
          "value": 94,
          "code": "mm[Hg]",
          "unit": "mm[Hg]"
        },
        "text": {
          "status": "generated",
          "div": "<div xmlns=\"http://www.w3.org/1999/xhtml\"><table class=\"hl7__ips\"><tr><th>Vital Sign</th><th>Date</th><th>Measurement</th></tr><tr><td>Diastolic Blood Pressure</td><td>22-Apr-2025</td><td>94 mm[Hg]</td></tr></table></div>"
        },
        "status": "final",
        "code": {
          "coding": [
            {
              "code": "$8462-4",
              "system": "http://loinc.org",
              "display": "Diastolic Blood Pressure"
            }
          ]
        },
        "subject": {
          "reference": "urn:uuid:67c3ba28-c25a-4b97-9eef-e80f5cad2359",
          "display": "Roy Harrison"
        },
        "effectiveDateTime": "2025-04-22"
      }
    },
    {
      "fullUrl": "urn:uuid:a180761f-5675-40b8-8fac-084d4f2551a4",
      "resource": {
        "resourceType": "Observation",
        "id": "a180761f-5675-40b8-8fac-084d4f2551a4",
        "meta": {
          "profile": [
            "http://hl7.org/fhir/StructureDefinition/vitalsigns"
          ]
        },
        "category": [
          {
            "coding": [
              {
                "system": "http://terminology.hl7.org/CodeSystem/observation-category",
                "code": "vital-signs",
                "display": "Vital Signs"
              }
            ]
          }
        ],
        "valueQuantity": {
          "value": 129,
          "code": "mm[Hg]",
          "unit": "mm[Hg]"
        },
        "text": {
          "status": "generated",
          "div": "<div xmlns=\"http://www.w3.org/1999/xhtml\"><table class=\"hl7__ips\"><tr><th>Vital Sign</th><th>Date</th><th>Measurement</th></tr><tr><td>Systolic Blood Pressure</td><td>22-Apr-2025</td><td>129 mm[Hg]</td></tr></table></div>"
        },
        "status": "final",
        "code": {
          "coding": [
            {
              "code": "$8480-6",
              "system": "http://loinc.org",
              "display": "Systolic Blood Pressure"
            }
          ]
        },
        "subject": {
          "reference": "urn:uuid:67c3ba28-c25a-4b97-9eef-e80f5cad2359",
          "display": "Roy Harrison"
        },
        "effectiveDateTime": "2025-04-22"
      }
    },
    {
      "fullUrl": "urn:uuid:f636e7be-b977-4bf5-b316-b49bf71ee372",
      "resource": {
        "resourceType": "Observation",
        "id": "f636e7be-b977-4bf5-b316-b49bf71ee372",
        "meta": {
          "profile": [
            "http://hl7.org/fhir/StructureDefinition/vitalsigns"
          ]
        },
        "category": [
          {
            "coding": [
              {
                "system": "http://terminology.hl7.org/CodeSystem/observation-category",
                "code": "vital-signs",
                "display": "Vital Signs"
              }
            ]
          }
        ],
        "valueQuantity": {
          "value": 65,
          "code": "/min",
          "unit": "/min"
        },
        "text": {
          "status": "generated",
          "div": "<div xmlns=\"http://www.w3.org/1999/xhtml\"><table class=\"hl7__ips\"><tr><th>Vital Sign</th><th>Date</th><th>Measurement</th></tr><tr><td>Heart rate</td><td>22-Apr-2025</td><td>65 /min</td></tr></table></div>"
        },
        "status": "final",
        "code": {
          "coding": [
            {
              "code": "$8867-4",
              "system": "http://loinc.org",
              "display": "Heart rate"
            }
          ]
        },
        "subject": {
          "reference": "urn:uuid:67c3ba28-c25a-4b97-9eef-e80f5cad2359",
          "display": "Roy Harrison"
        },
        "effectiveDateTime": "2025-04-22"
      }
    },
    {
      "fullUrl": "urn:uuid:7bbd254f-9f11-454a-9fbe-e7e3d98456d4",
      "resource": {
        "resourceType": "Observation",
        "id": "7bbd254f-9f11-454a-9fbe-e7e3d98456d4",
        "meta": {
          "profile": [
            "http://hl7.org/fhir/StructureDefinition/vitalsigns"
          ]
        },
        "category": [
          {
            "coding": [
              {
                "system": "http://terminology.hl7.org/CodeSystem/observation-category",
                "code": "vital-signs",
                "display": "Vital Signs"
              }
            ]
          }
        ],
        "valueQuantity": {
          "value": 13,
          "code": "/min",
          "unit": "/min"
        },
        "text": {
          "status": "generated",
          "div": "<div xmlns=\"http://www.w3.org/1999/xhtml\"><table class=\"hl7__ips\"><tr><th>Vital Sign</th><th>Date</th><th>Measurement</th></tr><tr><td>Respiratory rate</td><td>22-Apr-2025</td><td>13 /min</td></tr></table></div>"
        },
        "status": "final",
        "code": {
          "coding": [
            {
              "code": "$9279-1",
              "system": "http://loinc.org",
              "display": "Respiratory rate"
            }
          ]
        },
        "subject": {
          "reference": "urn:uuid:67c3ba28-c25a-4b97-9eef-e80f5cad2359",
          "display": "Roy Harrison"
        },
        "effectiveDateTime": "2025-04-22"
      }
    },
    {
      "fullUrl": "urn:uuid:70ec58dc-3c3f-4624-9c28-e3bfff7aaa40",
      "resource": {
        "resourceType": "Observation",
        "id": "70ec58dc-3c3f-4624-9c28-e3bfff7aaa40",
        "meta": {
          "profile": [
            "http://hl7.org/fhir/StructureDefinition/vitalsigns"
          ]
        },
        "category": [
          {
            "coding": [
              {
                "system": "http://terminology.hl7.org/CodeSystem/observation-category",
                "code": "vital-signs",
                "display": "Vital Signs"
              }
            ]
          }
        ],
        "valueQuantity": {
          "value": 180.6,
          "code": "cm",
          "unit": "cm"
        },
        "text": {
          "status": "generated",
          "div": "<div xmlns=\"http://www.w3.org/1999/xhtml\"><table class=\"hl7__ips\"><tr><th>Vital Sign</th><th>Date</th><th>Measurement</th></tr><tr><td>Body Height</td><td>16-Apr-2024</td><td>180.6 cm</td></tr></table></div>"
        },
        "status": "final",
        "code": {
          "coding": [
            {
              "code": "$8302-2",
              "system": "http://loinc.org",
              "display": "Body Height"
            }
          ]
        },
        "subject": {
          "reference": "urn:uuid:67c3ba28-c25a-4b97-9eef-e80f5cad2359",
          "display": "Roy Harrison"
        },
        "effectiveDateTime": "2024-04-16"
      }
    },
    {
      "fullUrl": "urn:uuid:ab969e41-5ccb-48be-aea5-5b371c220292",
      "resource": {
        "resourceType": "Observation",
        "id": "ab969e41-5ccb-48be-aea5-5b371c220292",
        "meta": {
          "profile": [
            "http://hl7.org/fhir/StructureDefinition/vitalsigns"
          ]
        },
        "category": [
          {
            "coding": [
              {
                "system": "http://terminology.hl7.org/CodeSystem/observation-category",
                "code": "vital-signs",
                "display": "Vital Signs"
              }
            ]
          }
        ],
        "valueQuantity": {
          "value": 3,
          "code": "{score}",
          "unit": "{score}"
        },
        "text": {
          "status": "generated",
          "div": "<div xmlns=\"http://www.w3.org/1999/xhtml\"><table class=\"hl7__ips\"><tr><th>Vital Sign</th><th>Date</th><th>Measurement</th></tr><tr><td>Pain severity - 0-10 verbal numeric rating [Score] - Reported</td><td>16-Apr-2024</td><td>3 {score}</td></tr></table></div>"
        },
        "status": "final",
        "code": {
          "coding": [
            {
              "code": "$72514-3",
              "system": "http://loinc.org",
              "display": "Pain severity - 0-10 verbal numeric rating [Score] - Reported"
            }
          ]
        },
        "subject": {
          "reference": "urn:uuid:67c3ba28-c25a-4b97-9eef-e80f5cad2359",
          "display": "Roy Harrison"
        },
        "effectiveDateTime": "2024-04-16"
      }
    },
    {
      "fullUrl": "urn:uuid:648c05a0-b3bd-40b2-a01e-0b003340118a",
      "resource": {
        "resourceType": "Observation",
        "id": "648c05a0-b3bd-40b2-a01e-0b003340118a",
        "meta": {
          "profile": [
            "http://hl7.org/fhir/StructureDefinition/vitalsigns"
          ]
        },
        "category": [
          {
            "coding": [
              {
                "system": "http://terminology.hl7.org/CodeSystem/observation-category",
                "code": "vital-signs",
                "display": "Vital Signs"
              }
            ]
          }
        ],
        "valueQuantity": {
          "value": 91.2,
          "code": "kg",
          "unit": "kg"
        },
        "text": {
          "status": "generated",
          "div": "<div xmlns=\"http://www.w3.org/1999/xhtml\"><table class=\"hl7__ips\"><tr><th>Vital Sign</th><th>Date</th><th>Measurement</th></tr><tr><td>Body Weight</td><td>16-Apr-2024</td><td>91.2 kg</td></tr></table></div>"
        },
        "status": "final",
        "code": {
          "coding": [
            {
              "code": "$29463-7",
              "system": "http://loinc.org",
              "display": "Body Weight"
            }
          ]
        },
        "subject": {
          "reference": "urn:uuid:67c3ba28-c25a-4b97-9eef-e80f5cad2359",
          "display": "Roy Harrison"
        },
        "effectiveDateTime": "2024-04-16"
      }
    },
    {
      "fullUrl": "urn:uuid:00d730d2-ee8b-4265-bbaa-c6dc15822c14",
      "resource": {
        "resourceType": "Observation",
        "id": "00d730d2-ee8b-4265-bbaa-c6dc15822c14",
        "meta": {
          "profile": [
            "http://hl7.org/fhir/StructureDefinition/vitalsigns"
          ]
        },
        "category": [
          {
            "coding": [
              {
                "system": "http://terminology.hl7.org/CodeSystem/observation-category",
                "code": "vital-signs",
                "display": "Vital Signs"
              }
            ]
          }
        ],
        "valueQuantity": {
          "value": 28,
          "code": "kg/m2",
          "unit": "kg/m2"
        },
        "text": {
          "status": "generated",
          "div": "<div xmlns=\"http://www.w3.org/1999/xhtml\"><table class=\"hl7__ips\"><tr><th>Vital Sign</th><th>Date</th><th>Measurement</th></tr><tr><td>Body mass index (BMI) [Ratio]</td><td>16-Apr-2024</td><td>28 kg/m2</td></tr></table></div>"
        },
        "status": "final",
        "code": {
          "coding": [
            {
              "code": "$39156-5",
              "system": "http://loinc.org",
              "display": "Body mass index (BMI) [Ratio]"
            }
          ]
        },
        "subject": {
          "reference": "urn:uuid:67c3ba28-c25a-4b97-9eef-e80f5cad2359",
          "display": "Roy Harrison"
        },
        "effectiveDateTime": "2024-04-16"
      }
    },
    {
      "fullUrl": "urn:uuid:2a5feb51-0e50-40ec-ad62-3d327e2c11e9",
      "resource": {
        "resourceType": "Observation",
        "id": "2a5feb51-0e50-40ec-ad62-3d327e2c11e9",
        "meta": {
          "profile": [
            "http://hl7.org/fhir/StructureDefinition/vitalsigns"
          ]
        },
        "category": [
          {
            "coding": [
              {
                "system": "http://terminology.hl7.org/CodeSystem/observation-category",
                "code": "vital-signs",
                "display": "Vital Signs"
              }
            ]
          }
        ],
        "valueQuantity": {
          "value": 94,
          "code": "mm[Hg]",
          "unit": "mm[Hg]"
        },
        "text": {
          "status": "generated",
          "div": "<div xmlns=\"http://www.w3.org/1999/xhtml\"><table class=\"hl7__ips\"><tr><th>Vital Sign</th><th>Date</th><th>Measurement</th></tr><tr><td>Diastolic Blood Pressure</td><td>16-Apr-2024</td><td>94 mm[Hg]</td></tr></table></div>"
        },
        "status": "final",
        "code": {
          "coding": [
            {
              "code": "$8462-4",
              "system": "http://loinc.org",
              "display": "Diastolic Blood Pressure"
            }
          ]
        },
        "subject": {
          "reference": "urn:uuid:67c3ba28-c25a-4b97-9eef-e80f5cad2359",
          "display": "Roy Harrison"
        },
        "effectiveDateTime": "2024-04-16"
      }
    },
    {
      "fullUrl": "urn:uuid:0b6a2a0c-37b6-4c17-a13c-caf7cb2f3068",
      "resource": {
        "resourceType": "Observation",
        "id": "0b6a2a0c-37b6-4c17-a13c-caf7cb2f3068",
        "meta": {
          "profile": [
            "http://hl7.org/fhir/StructureDefinition/vitalsigns"
          ]
        },
        "category": [
          {
            "coding": [
              {
                "system": "http://terminology.hl7.org/CodeSystem/observation-category",
                "code": "vital-signs",
                "display": "Vital Signs"
              }
            ]
          }
        ],
        "valueQuantity": {
          "value": 131,
          "code": "mm[Hg]",
          "unit": "mm[Hg]"
        },
        "text": {
          "status": "generated",
          "div": "<div xmlns=\"http://www.w3.org/1999/xhtml\"><table class=\"hl7__ips\"><tr><th>Vital Sign</th><th>Date</th><th>Measurement</th></tr><tr><td>Systolic Blood Pressure</td><td>16-Apr-2024</td><td>131 mm[Hg]</td></tr></table></div>"
        },
        "status": "final",
        "code": {
          "coding": [
            {
              "code": "$8480-6",
              "system": "http://loinc.org",
              "display": "Systolic Blood Pressure"
            }
          ]
        },
        "subject": {
          "reference": "urn:uuid:67c3ba28-c25a-4b97-9eef-e80f5cad2359",
          "display": "Roy Harrison"
        },
        "effectiveDateTime": "2024-04-16"
      }
    },
    {
      "fullUrl": "urn:uuid:c6f5bfe2-16a1-44c5-9d03-660334263122",
      "resource": {
        "resourceType": "Observation",
        "id": "c6f5bfe2-16a1-44c5-9d03-660334263122",
        "meta": {
          "profile": [
            "http://hl7.org/fhir/StructureDefinition/vitalsigns"
          ]
        },
        "category": [
          {
            "coding": [
              {
                "system": "http://terminology.hl7.org/CodeSystem/observation-category",
                "code": "vital-signs",
                "display": "Vital Signs"
              }
            ]
          }
        ],
        "valueQuantity": {
          "value": 81,
          "code": "/min",
          "unit": "/min"
        },
        "text": {
          "status": "generated",
          "div": "<div xmlns=\"http://www.w3.org/1999/xhtml\"><table class=\"hl7__ips\"><tr><th>Vital Sign</th><th>Date</th><th>Measurement</th></tr><tr><td>Heart rate</td><td>16-Apr-2024</td><td>81 /min</td></tr></table></div>"
        },
        "status": "final",
        "code": {
          "coding": [
            {
              "code": "$8867-4",
              "system": "http://loinc.org",
              "display": "Heart rate"
            }
          ]
        },
        "subject": {
          "reference": "urn:uuid:67c3ba28-c25a-4b97-9eef-e80f5cad2359",
          "display": "Roy Harrison"
        },
        "effectiveDateTime": "2024-04-16"
      }
    },
    {
      "fullUrl": "urn:uuid:45581e7b-ee26-4445-9d38-50c9dcae72c3",
      "resource": {
        "resourceType": "Observation",
        "id": "45581e7b-ee26-4445-9d38-50c9dcae72c3",
        "meta": {
          "profile": [
            "http://hl7.org/fhir/StructureDefinition/vitalsigns"
          ]
        },
        "category": [
          {
            "coding": [
              {
                "system": "http://terminology.hl7.org/CodeSystem/observation-category",
                "code": "vital-signs",
                "display": "Vital Signs"
              }
            ]
          }
        ],
        "valueQuantity": {
          "value": 14,
          "code": "/min",
          "unit": "/min"
        },
        "text": {
          "status": "generated",
          "div": "<div xmlns=\"http://www.w3.org/1999/xhtml\"><table class=\"hl7__ips\"><tr><th>Vital Sign</th><th>Date</th><th>Measurement</th></tr><tr><td>Respiratory rate</td><td>16-Apr-2024</td><td>14 /min</td></tr></table></div>"
        },
        "status": "final",
        "code": {
          "coding": [
            {
              "code": "$9279-1",
              "system": "http://loinc.org",
              "display": "Respiratory rate"
            }
          ]
        },
        "subject": {
          "reference": "urn:uuid:67c3ba28-c25a-4b97-9eef-e80f5cad2359",
          "display": "Roy Harrison"
        },
        "effectiveDateTime": "2024-04-16"
      }
    },
    {
      "fullUrl": "urn:uuid:54953c49-310c-4264-9cb9-3643fc38793d",
      "resource": {
        "resourceType": "Observation",
        "id": "54953c49-310c-4264-9cb9-3643fc38793d",
        "meta": {
          "profile": [
            "http://hl7.eu/fhir/laboratory/StructureDefinition/Observation-resultslab-eu-lab"
          ]
        },
        "performer": [
          {
            "display": "The Central European Lab"
          }
        ],
        "category": [
          {
            "coding": [
              {
                "system": "http://terminology.hl7.org/CodeSystem/observation-category",
                "code": "laboratory"
              }
            ]
          }
        ],
        "code": {
          "coding": [
            {
              "code": "4548-4",
              "system": "http://loinc.org",
              "display": "Hemoglobin A1c/Hemoglobin.total in Blood"
            }
          ],
          "text": "Hemoglobin A1c/Hemoglobin.total in Blood"
        },
        "valueQuantity": {
          "system": "http://unitsofmeasure.org",
          "value": 7,
          "unit": "%",
          "code": "%"
        },
        "referenceRange": [
          {
            "low": {
              "value": 4.6,
              "code": "%",
              "system": "http://unitsofmeasure.org"
            }
          },
          {
            "high": {
              "value": 6,
              "code": "%",
              "system": "http://unitsofmeasure.org"
            }
          }
        ],
        "interpretation": [
          {
            "coding": [
              {
                "code": "H",
                "system": "http://terminology.hl7.org/CodeSystem/v3-ObservationInterpretation",
                "display": "High"
              }
            ]
          }
        ],
        "text": {
          "status": "generated",
          "div": "<div xmlns=\"http://www.w3.org/1999/xhtml\"><table class=\"hl7__eu__lab__report\"><tr><th>Test</th><th>22-Apr-2025</th><th>Reference&#xA0;Range</th><th>Unit</th></tr><tr><td>Hemoglobin A1c/Hemoglobin.total in Blood</td><td>7.0</td><td>4.6 - 6</td><td>H</td><td>%</td></tr></table></div>"
        },
        "status": "final",
        "subject": {
          "reference": "urn:uuid:67c3ba28-c25a-4b97-9eef-e80f5cad2359",
          "display": "Roy Harrison"
        },
        "effectiveDateTime": "2025-04-22T02:49:43Z"
      }
    },
    {
      "fullUrl": "urn:uuid:66de5714-1dfe-45d2-abfe-39f4bbe00765",
      "resource": {
        "resourceType": "Observation",
        "id": "66de5714-1dfe-45d2-abfe-39f4bbe00765",
        "meta": {
          "profile": [
            "http://hl7.eu/fhir/laboratory/StructureDefinition/Observation-resultslab-eu-lab"
          ]
        },
        "performer": [
          {
            "display": "The Central European Lab"
          }
        ],
        "category": [
          {
            "coding": [
              {
                "system": "http://terminology.hl7.org/CodeSystem/observation-category",
                "code": "laboratory"
              }
            ]
          }
        ],
        "code": {
          "coding": [
            {
              "code": "2339-0",
              "system": "http://loinc.org",
              "display": "Glucose [Mass/volume] in Blood"
            }
          ],
          "text": "Glucose [Mass/volume] in Blood"
        },
        "valueQuantity": {
          "system": "http://unitsofmeasure.org",
          "value": 114.5,
          "unit": "mg/dL",
          "code": "mg/dL"
        },
        "referenceRange": [
          {
            "low": {
              "value": 70,
              "code": "mg/dL",
              "system": "http://unitsofmeasure.org"
            }
          },
          {
            "high": {
              "value": 99,
              "code": "mg/dL",
              "system": "http://unitsofmeasure.org"
            }
          }
        ],
        "interpretation": [
          {
            "coding": [
              {
                "code": "H",
                "system": "http://terminology.hl7.org/CodeSystem/v3-ObservationInterpretation",
                "display": "High"
              }
            ]
          }
        ],
        "text": {
          "status": "generated",
          "div": "<div xmlns=\"http://www.w3.org/1999/xhtml\"><table class=\"hl7__eu__lab__report\"><tr><th>Test</th><th>22-Apr-2025</th><th>Reference&#xA0;Range</th><th>Unit</th></tr><tr><td>Glucose [Mass/volume] in Blood</td><td>114.5</td><td>70 - 99</td><td>H</td><td>mg/dL</td></tr></table></div>"
        },
        "status": "final",
        "subject": {
          "reference": "urn:uuid:67c3ba28-c25a-4b97-9eef-e80f5cad2359",
          "display": "Roy Harrison"
        },
        "effectiveDateTime": "2025-04-22T02:49:43Z"
      }
    },
    {
      "fullUrl": "urn:uuid:e6a972a9-d816-4cff-ac0a-4e8694dadb63",
      "resource": {
        "resourceType": "Observation",
        "id": "e6a972a9-d816-4cff-ac0a-4e8694dadb63",
        "meta": {
          "profile": [
            "http://hl7.eu/fhir/laboratory/StructureDefinition/Observation-resultslab-eu-lab"
          ]
        },
        "performer": [
          {
            "display": "The Central European Lab"
          }
        ],
        "category": [
          {
            "coding": [
              {
                "system": "http://terminology.hl7.org/CodeSystem/observation-category",
                "code": "laboratory"
              }
            ]
          }
        ],
        "code": {
          "coding": [
            {
              "code": "6299-2",
              "system": "http://loinc.org",
              "display": "Urea nitrogen [Mass/volume] in Blood"
            }
          ],
          "text": "Urea nitrogen [Mass/volume] in Blood"
        },
        "valueQuantity": {
          "system": "http://unitsofmeasure.org",
          "value": 15.6,
          "unit": "mg/dL",
          "code": "mg/dL"
        },
        "referenceRange": [
          {
            "low": {
              "value": 7,
              "code": "mg/dL",
              "system": "http://unitsofmeasure.org"
            }
          },
          {
            "high": {
              "value": 50,
              "code": "mg/dL",
              "system": "http://unitsofmeasure.org"
            }
          }
        ],
        "text": {
          "status": "generated",
          "div": "<div xmlns=\"http://www.w3.org/1999/xhtml\"><table class=\"hl7__eu__lab__report\"><tr><th>Test</th><th>22-Apr-2025</th><th>Reference&#xA0;Range</th><th>Unit</th></tr><tr><td>Urea nitrogen [Mass/volume] in Blood</td><td>15.6</td><td>7 - 50</td><td></td><td>mg/dL</td></tr></table></div>"
        },
        "status": "final",
        "subject": {
          "reference": "urn:uuid:67c3ba28-c25a-4b97-9eef-e80f5cad2359",
          "display": "Roy Harrison"
        },
        "effectiveDateTime": "2025-04-22T02:49:43Z"
      }
    },
    {
      "fullUrl": "urn:uuid:5208a3d2-ebba-47de-a8f6-7f9b88afe256",
      "resource": {
        "resourceType": "Observation",
        "id": "5208a3d2-ebba-47de-a8f6-7f9b88afe256",
        "meta": {
          "profile": [
            "http://hl7.eu/fhir/laboratory/StructureDefinition/Observation-resultslab-eu-lab"
          ]
        },
        "performer": [
          {
            "display": "The Central European Lab"
          }
        ],
        "category": [
          {
            "coding": [
              {
                "system": "http://terminology.hl7.org/CodeSystem/observation-category",
                "code": "laboratory"
              }
            ]
          }
        ],
        "code": {
          "coding": [
            {
              "code": "38483-4",
              "system": "http://loinc.org",
              "display": "Creatinine [Mass/volume] in Blood"
            }
          ],
          "text": "Creatinine [Mass/volume] in Blood"
        },
        "valueQuantity": {
          "system": "http://unitsofmeasure.org",
          "value": 1,
          "unit": "mg/dL",
          "code": "mg/dL"
        },
        "referenceRange": [
          {
            "low": {
              "value": 0.9,
              "code": "mg/dL",
              "system": "http://unitsofmeasure.org"
            }
          },
          {
            "high": {
              "value": 1.3,
              "code": "mg/dL",
              "system": "http://unitsofmeasure.org"
            }
          }
        ],
        "text": {
          "status": "generated",
          "div": "<div xmlns=\"http://www.w3.org/1999/xhtml\"><table class=\"hl7__eu__lab__report\"><tr><th>Test</th><th>22-Apr-2025</th><th>Reference&#xA0;Range</th><th>Unit</th></tr><tr><td>Creatinine [Mass/volume] in Blood</td><td>1.0</td><td>0.9 - 1.3</td><td></td><td>mg/dL</td></tr></table></div>"
        },
        "status": "final",
        "subject": {
          "reference": "urn:uuid:67c3ba28-c25a-4b97-9eef-e80f5cad2359",
          "display": "Roy Harrison"
        },
        "effectiveDateTime": "2025-04-22T02:49:43Z"
      }
    },
    {
      "fullUrl": "urn:uuid:3d5753ca-c7ce-45d8-a95b-2ad85b182f49",
      "resource": {
        "resourceType": "Observation",
        "id": "3d5753ca-c7ce-45d8-a95b-2ad85b182f49",
        "meta": {
          "profile": [
            "http://hl7.eu/fhir/laboratory/StructureDefinition/Observation-resultslab-eu-lab"
          ]
        },
        "performer": [
          {
            "display": "The Central European Lab"
          }
        ],
        "category": [
          {
            "coding": [
              {
                "system": "http://terminology.hl7.org/CodeSystem/observation-category",
                "code": "laboratory"
              }
            ]
          }
        ],
        "code": {
          "coding": [
            {
              "code": "49765-1",
              "system": "http://loinc.org",
              "display": "Calcium [Mass/volume] in Blood"
            }
          ],
          "text": "Calcium [Mass/volume] in Blood"
        },
        "valueQuantity": {
          "system": "http://unitsofmeasure.org",
          "value": 8.6,
          "unit": "mg/dL",
          "code": "mg/dL"
        },
        "referenceRange": [
          {
            "low": {
              "value": 8.5,
              "code": "mg/dL",
              "system": "http://unitsofmeasure.org"
            }
          },
          {
            "high": {
              "value": 10.5,
              "code": "mg/dL",
              "system": "http://unitsofmeasure.org"
            }
          }
        ],
        "text": {
          "status": "generated",
          "div": "<div xmlns=\"http://www.w3.org/1999/xhtml\"><table class=\"hl7__eu__lab__report\"><tr><th>Test</th><th>22-Apr-2025</th><th>Reference&#xA0;Range</th><th>Unit</th></tr><tr><td>Calcium [Mass/volume] in Blood</td><td>8.6</td><td>8.5 - 10.5</td><td></td><td>mg/dL</td></tr></table></div>"
        },
        "status": "final",
        "subject": {
          "reference": "urn:uuid:67c3ba28-c25a-4b97-9eef-e80f5cad2359",
          "display": "Roy Harrison"
        },
        "effectiveDateTime": "2025-04-22T02:49:43Z"
      }
    },
    {
      "fullUrl": "urn:uuid:fa954540-dbf0-4755-a9e7-008856e0c426",
      "resource": {
        "resourceType": "Observation",
        "id": "fa954540-dbf0-4755-a9e7-008856e0c426",
        "meta": {
          "profile": [
            "http://hl7.eu/fhir/laboratory/StructureDefinition/Observation-resultslab-eu-lab"
          ]
        },
        "performer": [
          {
            "display": "The Central European Lab"
          }
        ],
        "category": [
          {
            "coding": [
              {
                "system": "http://terminology.hl7.org/CodeSystem/observation-category",
                "code": "laboratory"
              }
            ]
          }
        ],
        "code": {
          "coding": [
            {
              "code": "2947-0",
              "system": "http://loinc.org",
              "display": "Sodium [Moles/volume] in Blood"
            }
          ],
          "text": "Sodium [Moles/volume] in Blood"
        },
        "valueQuantity": {
          "system": "http://unitsofmeasure.org",
          "value": 137.9,
          "unit": "mmol/L",
          "code": "mmol/L"
        },
        "referenceRange": [
          {
            "low": {
              "value": 135,
              "code": "mmol/L",
              "system": "http://unitsofmeasure.org"
            }
          },
          {
            "high": {
              "value": 145,
              "code": "mmol/L",
              "system": "http://unitsofmeasure.org"
            }
          }
        ],
        "text": {
          "status": "generated",
          "div": "<div xmlns=\"http://www.w3.org/1999/xhtml\"><table class=\"hl7__eu__lab__report\"><tr><th>Test</th><th>22-Apr-2025</th><th>Reference&#xA0;Range</th><th>Unit</th></tr><tr><td>Sodium [Moles/volume] in Blood</td><td>137.9</td><td>135 - 145</td><td></td><td>mmol/L</td></tr></table></div>"
        },
        "status": "final",
        "subject": {
          "reference": "urn:uuid:67c3ba28-c25a-4b97-9eef-e80f5cad2359",
          "display": "Roy Harrison"
        },
        "effectiveDateTime": "2025-04-22T02:49:43Z"
      }
    },
    {
      "fullUrl": "urn:uuid:5aba2e4c-17c4-4fe1-b961-6e88a63a2c88",
      "resource": {
        "resourceType": "Observation",
        "id": "5aba2e4c-17c4-4fe1-b961-6e88a63a2c88",
        "meta": {
          "profile": [
            "http://hl7.eu/fhir/laboratory/StructureDefinition/Observation-resultslab-eu-lab"
          ]
        },
        "performer": [
          {
            "display": "The Central European Lab"
          }
        ],
        "category": [
          {
            "coding": [
              {
                "system": "http://terminology.hl7.org/CodeSystem/observation-category",
                "code": "laboratory"
              }
            ]
          }
        ],
        "code": {
          "coding": [
            {
              "code": "6298-4",
              "system": "http://loinc.org",
              "display": "Potassium [Moles/volume] in Blood"
            }
          ],
          "text": "Potassium [Moles/volume] in Blood"
        },
        "valueQuantity": {
          "system": "http://unitsofmeasure.org",
          "value": 5,
          "unit": "mmol/L",
          "code": "mmol/L"
        },
        "referenceRange": [
          {
            "low": {
              "value": 3.5,
              "code": "mmol/L",
              "system": "http://unitsofmeasure.org"
            }
          },
          {
            "high": {
              "value": 5.1,
              "code": "mmol/L",
              "system": "http://unitsofmeasure.org"
            }
          }
        ],
        "text": {
          "status": "generated",
          "div": "<div xmlns=\"http://www.w3.org/1999/xhtml\"><table class=\"hl7__eu__lab__report\"><tr><th>Test</th><th>22-Apr-2025</th><th>Reference&#xA0;Range</th><th>Unit</th></tr><tr><td>Potassium [Moles/volume] in Blood</td><td>5.0</td><td>3.5 - 5.1</td><td></td><td>mmol/L</td></tr></table></div>"
        },
        "status": "final",
        "subject": {
          "reference": "urn:uuid:67c3ba28-c25a-4b97-9eef-e80f5cad2359",
          "display": "Roy Harrison"
        },
        "effectiveDateTime": "2025-04-22T02:49:43Z"
      }
    },
    {
      "fullUrl": "urn:uuid:0fe102c4-4cf6-471b-ba74-e788e4c37275",
      "resource": {
        "resourceType": "Observation",
        "id": "0fe102c4-4cf6-471b-ba74-e788e4c37275",
        "meta": {
          "profile": [
            "http://hl7.eu/fhir/laboratory/StructureDefinition/Observation-resultslab-eu-lab"
          ]
        },
        "performer": [
          {
            "display": "The Central European Lab"
          }
        ],
        "category": [
          {
            "coding": [
              {
                "system": "http://terminology.hl7.org/CodeSystem/observation-category",
                "code": "laboratory"
              }
            ]
          }
        ],
        "code": {
          "coding": [
            {
              "code": "2069-3",
              "system": "http://loinc.org",
              "display": "Chloride [Moles/volume] in Blood"
            }
          ],
          "text": "Chloride [Moles/volume] in Blood"
        },
        "valueQuantity": {
          "system": "http://unitsofmeasure.org",
          "value": 102.3,
          "unit": "mmol/L",
          "code": "mmol/L"
        },
        "referenceRange": [
          {
            "low": {
              "value": 98,
              "code": "mmol/L",
              "system": "http://unitsofmeasure.org"
            }
          },
          {
            "high": {
              "value": 114,
              "code": "mmol/L",
              "system": "http://unitsofmeasure.org"
            }
          }
        ],
        "text": {
          "status": "generated",
          "div": "<div xmlns=\"http://www.w3.org/1999/xhtml\"><table class=\"hl7__eu__lab__report\"><tr><th>Test</th><th>22-Apr-2025</th><th>Reference&#xA0;Range</th><th>Unit</th></tr><tr><td>Chloride [Moles/volume] in Blood</td><td>102.3</td><td>98 - 114</td><td></td><td>mmol/L</td></tr></table></div>"
        },
        "status": "final",
        "subject": {
          "reference": "urn:uuid:67c3ba28-c25a-4b97-9eef-e80f5cad2359",
          "display": "Roy Harrison"
        },
        "effectiveDateTime": "2025-04-22T02:49:43Z"
      }
    },
    {
      "fullUrl": "urn:uuid:1f5f65df-6272-4f9c-8689-270988d70cd0",
      "resource": {
        "resourceType": "Observation",
        "id": "1f5f65df-6272-4f9c-8689-270988d70cd0",
        "meta": {
          "profile": [
            "http://hl7.eu/fhir/laboratory/StructureDefinition/Observation-resultslab-eu-lab"
          ]
        },
        "performer": [
          {
            "display": "The Central European Lab"
          }
        ],
        "category": [
          {
            "coding": [
              {
                "system": "http://terminology.hl7.org/CodeSystem/observation-category",
                "code": "laboratory"
              }
            ]
          }
        ],
        "code": {
          "coding": [
            {
              "code": "20565-8",
              "system": "http://loinc.org",
              "display": "Carbon dioxide, total [Moles/volume] in Blood"
            }
          ],
          "text": "Carbon dioxide, total [Moles/volume] in Blood"
        },
        "valueQuantity": {
          "system": "http://unitsofmeasure.org",
          "value": 25.5,
          "unit": "mmol/L",
          "code": "mmol/L"
        },
        "referenceRange": [
          {
            "low": {
              "value": 22,
              "code": "mmol/L",
              "system": "http://unitsofmeasure.org"
            }
          },
          {
            "high": {
              "value": 32,
              "code": "mmol/L",
              "system": "http://unitsofmeasure.org"
            }
          }
        ],
        "text": {
          "status": "generated",
          "div": "<div xmlns=\"http://www.w3.org/1999/xhtml\"><table class=\"hl7__eu__lab__report\"><tr><th>Test</th><th>22-Apr-2025</th><th>Reference&#xA0;Range</th><th>Unit</th></tr><tr><td>Carbon dioxide, total [Moles/volume] in Blood</td><td>25.5</td><td>22 - 32</td><td></td><td>mmol/L</td></tr></table></div>"
        },
        "status": "final",
        "subject": {
          "reference": "urn:uuid:67c3ba28-c25a-4b97-9eef-e80f5cad2359",
          "display": "Roy Harrison"
        },
        "effectiveDateTime": "2025-04-22T02:49:43Z"
      }
    },
    {
      "fullUrl": "urn:uuid:354f6143-ada3-495b-9e1e-af7b474337b1",
      "resource": {
        "resourceType": "Observation",
        "id": "354f6143-ada3-495b-9e1e-af7b474337b1",
        "meta": {
          "profile": [
            "http://hl7.eu/fhir/laboratory/StructureDefinition/Observation-resultslab-eu-lab"
          ]
        },
        "performer": [
          {
            "display": "The Central European Lab"
          }
        ],
        "category": [
          {
            "coding": [
              {
                "system": "http://terminology.hl7.org/CodeSystem/observation-category",
                "code": "laboratory"
              }
            ]
          }
        ],
        "code": {
          "coding": [
            {
              "code": "2093-3",
              "system": "http://loinc.org",
              "display": "Cholesterol [Mass/volume] in Serum or Plasma"
            }
          ],
          "text": "Cholesterol [Mass/volume] in Serum or Plasma"
        },
        "valueQuantity": {
          "system": "http://unitsofmeasure.org",
          "value": 215.3,
          "unit": "mg/dL",
          "code": "mg/dL"
        },
        "referenceRange": [
          {
            "low": {
              "value": 125,
              "code": "mg/dL",
              "system": "http://unitsofmeasure.org"
            }
          },
          {
            "high": {
              "value": 200,
              "code": "mg/dL",
              "system": "http://unitsofmeasure.org"
            }
          }
        ],
        "interpretation": [
          {
            "coding": [
              {
                "code": "H",
                "system": "http://terminology.hl7.org/CodeSystem/v3-ObservationInterpretation",
                "display": "High"
              }
            ]
          }
        ],
        "text": {
          "status": "generated",
          "div": "<div xmlns=\"http://www.w3.org/1999/xhtml\"><table class=\"hl7__eu__lab__report\"><tr><th>Test</th><th>22-Apr-2025</th><th>Reference&#xA0;Range</th><th>Unit</th></tr><tr><td>Cholesterol [Mass/volume] in Serum or Plasma</td><td>215.3</td><td>125 - 200</td><td>H</td><td>mg/dL</td></tr></table></div>"
        },
        "status": "final",
        "subject": {
          "reference": "urn:uuid:67c3ba28-c25a-4b97-9eef-e80f5cad2359",
          "display": "Roy Harrison"
        },
        "effectiveDateTime": "2025-04-22T02:49:43Z"
      }
    },
    {
      "fullUrl": "urn:uuid:35f0d447-54d3-45e6-9fb6-e971ef0f3937",
      "resource": {
        "resourceType": "Observation",
        "id": "35f0d447-54d3-45e6-9fb6-e971ef0f3937",
        "meta": {
          "profile": [
            "http://hl7.eu/fhir/laboratory/StructureDefinition/Observation-resultslab-eu-lab"
          ]
        },
        "performer": [
          {
            "display": "The Central European Lab"
          }
        ],
        "category": [
          {
            "coding": [
              {
                "system": "http://terminology.hl7.org/CodeSystem/observation-category",
                "code": "laboratory"
              }
            ]
          }
        ],
        "code": {
          "coding": [
            {
              "code": "2571-8",
              "system": "http://loinc.org",
              "display": "Triglyceride [Mass/volume] in Serum or Plasma"
            }
          ],
          "text": "Triglyceride [Mass/volume] in Serum or Plasma"
        },
        "valueQuantity": {
          "system": "http://unitsofmeasure.org",
          "value": 183.1,
          "unit": "mg/dL",
          "code": "mg/dL"
        },
        "referenceRange": [
          {
            "low": {
              "value": 0,
              "code": "mg/dL",
              "system": "http://unitsofmeasure.org"
            }
          },
          {
            "high": {
              "value": 150,
              "code": "mg/dL",
              "system": "http://unitsofmeasure.org"
            }
          }
        ],
        "interpretation": [
          {
            "coding": [
              {
                "code": "H",
                "system": "http://terminology.hl7.org/CodeSystem/v3-ObservationInterpretation",
                "display": "High"
              }
            ]
          }
        ],
        "text": {
          "status": "generated",
          "div": "<div xmlns=\"http://www.w3.org/1999/xhtml\"><table class=\"hl7__eu__lab__report\"><tr><th>Test</th><th>22-Apr-2025</th><th>Reference&#xA0;Range</th><th>Unit</th></tr><tr><td>Triglyceride [Mass/volume] in Serum or Plasma</td><td>183.1</td><td>0 - 150</td><td>H</td><td>mg/dL</td></tr></table></div>"
        },
        "status": "final",
        "subject": {
          "reference": "urn:uuid:67c3ba28-c25a-4b97-9eef-e80f5cad2359",
          "display": "Roy Harrison"
        },
        "effectiveDateTime": "2025-04-22T02:49:43Z"
      }
    },
    {
      "fullUrl": "urn:uuid:8571743a-388f-46d3-b315-1dca11c513a1",
      "resource": {
        "resourceType": "Observation",
        "id": "8571743a-388f-46d3-b315-1dca11c513a1",
        "meta": {
          "profile": [
            "http://hl7.eu/fhir/laboratory/StructureDefinition/Observation-resultslab-eu-lab"
          ]
        },
        "performer": [
          {
            "display": "The Central European Lab"
          }
        ],
        "category": [
          {
            "coding": [
              {
                "system": "http://terminology.hl7.org/CodeSystem/observation-category",
                "code": "laboratory"
              }
            ]
          }
        ],
        "code": {
          "coding": [
            {
              "code": "18262-6",
              "system": "http://loinc.org",
              "display": "Cholesterol in LDL [Mass/volume] in Serum or Plasma by Direct assay"
            }
          ],
          "text": "Cholesterol in LDL [Mass/volume] in Serum or Plasma by Direct assay"
        },
        "valueQuantity": {
          "system": "http://unitsofmeasure.org",
          "value": 134.9,
          "unit": "mg/dL",
          "code": "mg/dL"
        },
        "referenceRange": [
          {
            "low": {
              "value": 0,
              "code": "mg/dL",
              "system": "http://unitsofmeasure.org"
            }
          },
          {
            "high": {
              "value": 130,
              "code": "mg/dL",
              "system": "http://unitsofmeasure.org"
            }
          }
        ],
        "interpretation": [
          {
            "coding": [
              {
                "code": "H",
                "system": "http://terminology.hl7.org/CodeSystem/v3-ObservationInterpretation",
                "display": "High"
              }
            ]
          }
        ],
        "text": {
          "status": "generated",
          "div": "<div xmlns=\"http://www.w3.org/1999/xhtml\"><table class=\"hl7__eu__lab__report\"><tr><th>Test</th><th>22-Apr-2025</th><th>Reference&#xA0;Range</th><th>Unit</th></tr><tr><td>Cholesterol in LDL [Mass/volume] in Serum or Plasma by Direct assay</td><td>134.9</td><td>0 - 130</td><td>H</td><td>mg/dL</td></tr></table></div>"
        },
        "status": "final",
        "subject": {
          "reference": "urn:uuid:67c3ba28-c25a-4b97-9eef-e80f5cad2359",
          "display": "Roy Harrison"
        },
        "effectiveDateTime": "2025-04-22T02:49:43Z"
      }
    },
    {
      "fullUrl": "urn:uuid:ce295b25-4ed9-4b53-97e4-579ef0b7d623",
      "resource": {
        "resourceType": "Observation",
        "id": "ce295b25-4ed9-4b53-97e4-579ef0b7d623",
        "meta": {
          "profile": [
            "http://hl7.eu/fhir/laboratory/StructureDefinition/Observation-resultslab-eu-lab"
          ]
        },
        "performer": [
          {
            "display": "The Central European Lab"
          }
        ],
        "category": [
          {
            "coding": [
              {
                "system": "http://terminology.hl7.org/CodeSystem/observation-category",
                "code": "laboratory"
              }
            ]
          }
        ],
        "code": {
          "coding": [
            {
              "code": "2085-9",
              "system": "http://loinc.org",
              "display": "Cholesterol in HDL [Mass/volume] in Serum or Plasma"
            }
          ],
          "text": "Cholesterol in HDL [Mass/volume] in Serum or Plasma"
        },
        "valueQuantity": {
          "system": "http://unitsofmeasure.org",
          "value": 43.8,
          "unit": "mg/dL",
          "code": "mg/dL"
        },
        "referenceRange": [
          {
            "low": {
              "value": 40,
              "code": "mg/dL",
              "system": "http://unitsofmeasure.org"
            }
          },
          {
            "high": {
              "value": 60,
              "code": "mg/dL",
              "system": "http://unitsofmeasure.org"
            }
          }
        ],
        "text": {
          "status": "generated",
          "div": "<div xmlns=\"http://www.w3.org/1999/xhtml\"><table class=\"hl7__eu__lab__report\"><tr><th>Test</th><th>22-Apr-2025</th><th>Reference&#xA0;Range</th><th>Unit</th></tr><tr><td>Cholesterol in HDL [Mass/volume] in Serum or Plasma</td><td>43.8</td><td>40 - 60</td><td></td><td>mg/dL</td></tr></table></div>"
        },
        "status": "final",
        "subject": {
          "reference": "urn:uuid:67c3ba28-c25a-4b97-9eef-e80f5cad2359",
          "display": "Roy Harrison"
        },
        "effectiveDateTime": "2025-04-22T02:49:43Z"
      }
    },
    {
      "fullUrl": "urn:uuid:5dfd16d7-41e6-4f27-81f8-1fd846adc9e1",
      "resource": {
        "resourceType": "Observation",
        "id": "5dfd16d7-41e6-4f27-81f8-1fd846adc9e1",
        "meta": {
          "profile": [
            "http://hl7.eu/fhir/laboratory/StructureDefinition/Observation-resultslab-eu-lab"
          ]
        },
        "performer": [
          {
            "display": "The Central European Lab"
          }
        ],
        "category": [
          {
            "coding": [
              {
                "system": "http://terminology.hl7.org/CodeSystem/observation-category",
                "code": "laboratory"
              }
            ]
          }
        ],
        "code": {
          "coding": [
            {
              "code": "14959-1",
              "system": "http://loinc.org",
              "display": "Microalbumin/Creatinine [Mass Ratio] in Urine"
            }
          ],
          "text": "Microalbumin/Creatinine [Mass Ratio] in Urine"
        },
        "valueQuantity": {
          "system": "http://unitsofmeasure.org",
          "value": 8.3,
          "unit": "mg/g",
          "code": "mg/g"
        },
        "referenceRange": [
          {
            "low": {
              "value": 0,
              "code": "mg/g",
              "system": "http://unitsofmeasure.org"
            }
          },
          {
            "high": {
              "value": 30,
              "code": "mg/g",
              "system": "http://unitsofmeasure.org"
            }
          }
        ],
        "text": {
          "status": "generated",
          "div": "<div xmlns=\"http://www.w3.org/1999/xhtml\"><table class=\"hl7__eu__lab__report\"><tr><th>Test</th><th>22-Apr-2025</th><th>Reference&#xA0;Range</th><th>Unit</th></tr><tr><td>Microalbumin/Creatinine [Mass Ratio] in Urine</td><td>8.3</td><td>0 - 30</td><td></td><td>mg/g</td></tr></table></div>"
        },
        "status": "final",
        "subject": {
          "reference": "urn:uuid:67c3ba28-c25a-4b97-9eef-e80f5cad2359",
          "display": "Roy Harrison"
        },
        "effectiveDateTime": "2025-04-22T02:49:43Z"
      }
    },
    {
      "fullUrl": "urn:uuid:c667d56f-9aea-485d-bc38-efa031e4c1e6",
      "resource": {
        "resourceType": "DeviceUseStatement",
        "id": "c667d56f-9aea-485d-bc38-efa031e4c1e6",
        "meta": {
          "profile": [
            "http://hl7.eu/fhir/eps/StructureDefinition/deviceUseStatement-eu-eps"
          ]
        },
        "timingPeriod": {
          "start": "2000-12-05"
        },
        "text": {
          "status": "generated",
          "div": "<div xmlns=\"http://www.w3.org/1999/xhtml\"><table class=\"hl7__ips\"><tr><td>Blood glucose meter (physical object)</td><td><span class=\"nb\">05-Dec-2000</span></td></tr></table></div>"
        },
        "status": "active",
        "device": {
          "reference": "urn:uuid:d92c65e3-04a1-4c0a-81b7-138004977fd3",
          "display": "Blood glucose meter (physical object)"
        },
        "subject": {
          "reference": "urn:uuid:67c3ba28-c25a-4b97-9eef-e80f5cad2359",
          "display": "Roy Harrison"
        }
      }
    },
    {
      "fullUrl": "urn:uuid:d92c65e3-04a1-4c0a-81b7-138004977fd3",
      "resource": {
        "resourceType": "Device",
        "id": "d92c65e3-04a1-4c0a-81b7-138004977fd3",
        "meta": {
          "profile": [
            "http://hl7.eu/fhir/eps/StructureDefinition/device-eu-eps"
          ]
        },
        "udiCarrier": [
          {
            "id": "(01)18773424422491(11)001114(17)251129(10)74531879871370(21)68125890088005"
          }
        ],
        "status": "active",
        "patient": {
          "reference": "urn:uuid:67c3ba28-c25a-4b97-9eef-e80f5cad2359",
          "display": "Roy Harrison"
        },
        "type": {
          "coding": [
            {
              "code": "337414009",
              "system": "http://snomed.info/sct",
              "display": "Blood glucose meter (physical object)"
            }
          ]
        }
      }
    },
    {
      "fullUrl": "urn:uuid:6a6c490c-7fca-4a81-8cb4-0f440cdf607e",
      "resource": {
        "resourceType": "Device",
        "id": "6a6c490c-7fca-4a81-8cb4-0f440cdf607e",
        "deviceName": [
          {
            "name": "SYNDERAI Synthetic Generator",
            "type": "manufacturer-name"
          }
        ],
        "version": [
          {
            "value": "5.0"
          }
        ],
        "text": {
          "status": "generated",
          "div": "<div xmlns=\"http://www.w3.org/1999/xhtml\">SYNDERAI Synthetic Generator v5.0</div>"
        },
        "status": "active\"",
        "distinctIdentifier": "synderai-generator-50",
        "manufacturer": "SYNDERAI Project"
      }
    },
    {
      "fullUrl": "urn:uuid:e6ba6e36-fd7c-4c34-b661-1f6882f54417",
      "resource": {
        "resourceType": "Provenance",
        "id": "e6ba6e36-fd7c-4c34-b661-1f6882f54417",
        "target": [
          {
            "reference": "Patient/67c3ba28-c25a-4b97-9eef-e80f5cad2359"
          },
          {
            "reference": "Bundle/f11f96aa-703a-4523-816f-aa99552a3287"
          },
          {
            "reference": "Composition/2d9f2afa-d860-4629-97a5-417e233b1f41"
          },
          {
            "reference": "PractitionerRole/7c0c77b1-3593-495a-984b-cd192e06088d"
          },
          {
            "reference": "Organization/7d738262-13bf-4201-acad-4b464134d095"
          },
          {
            "reference": "Practitioner/d7b4ed99-b15e-4288-81be-b32e877e2dd0"
          }
        ],
        "activity": {
          "text": "Synthetic Example Data Generation"
        },
        "policy": [
          "https://synderai.net/synderai-synthetic-data-policy"
        ],
        "agent": [
          {
            "type": {
              "text": "author"
            },
            "who": {
              "reference": "Device/6a6c490c-7fca-4a81-8cb4-0f440cdf607e"
            }
          }
        ],
        "reason": [
          {
            "text": "Interoperability Testing and Training (non-clinical use)"
          }
        ],
        "text": {
          "status": "generated",
          "div": "<div xmlns=\"http://www.w3.org/1999/xhtml\">Provenance for SYNDERAI Synthetic Example Data Resource</div>"
        },
        "recorded": "2025-04-22T02:49:43Z"
      }
    }
  ],
  "type": "document",
  "timestamp": "2025-04-22T02:49:43Z"
}
