{
  "resourceType": "Bundle",
  "id": "5643b57b-d9a5-4d4c-a7eb-4b7f574f8de4",
  "meta": {
    "profile": [
      "http://hl7.eu/fhir/eps/StructureDefinition/bundle-eu-eps"
    ]
  },
  "identifier": {
    "assigner": {
      "display": "HL7 Europe"
    },
    "system": "urn:oid:2.16.840.1.113883.2.51.999",
    "value": "bd23149a-db4b-403a-b088-bb5972af18a6"
  },
  "entry": [
    {
      "fullUrl": "urn:uuid:47eda489-dd51-4977-93ee-68af296a8bec",
      "resource": {
        "resourceType": "Composition",
        "id": "47eda489-dd51-4977-93ee-68af296a8bec",
        "meta": {
          "security": [
            {
              "system": "http://terminology.hl7.org/CodeSystem/v3-ActReason",
              "code": "HTEST"
            },
            {
              "system": "http://terminology.hl7.org/CodeSystem/v3-ActReason",
              "code": "TRAIN"
            }
          ],
          "tag": [
            {
              "system": "https://synderai.net/fhir/CodeSystem/tags",
              "code": "synthetic",
              "display": "SYNDERAI Synthetic data"
            }
          ],
          "profile": [
            "http://hl7.eu/fhir/eps/StructureDefinition/composition-eu-eps"
          ]
        },
        "identifier": {
          "assigner": {
            "display": "HL7 Europe"
          },
          "system": "urn:oid:2.16.840.1.113883.2.51.999",
          "value": "233b9569-eb6a-46cc-8350-b794ebd0d8fa"
        },
        "type": {
          "coding": [
            {
              "system": "http://loinc.org",
              "code": "60591-5",
              "display": "Patient summary Document"
            }
          ],
          "text": "Patient summary Document"
        },
        "author": [
          {
            "reference": "urn:uuid:cfea9a97-e881-4589-9c3b-3b32ab6bf174"
          }
        ],
        "section": [
          {
            "text": {
              "status": "generated",
              "div": "<div xmlns=\"http://www.w3.org/1999/xhtml\"><table class=\"hl7__ips\"><tr><th>Condition</th><th>Onset Date</th><th>Status</th></tr><tr><td>Anemia</td><td><span class=\"nb\">22-May-2023</span></td><td>active</td></tr><tr><td>Prediabetes</td><td><span class=\"nb\">16-May-2022</span></td><td>active</td></tr><tr><td>Recurrent rectal polyp</td><td><span class=\"nb\">03-Jun-2020</span></td><td>active</td></tr><tr><td>Polyp of colon</td><td><span class=\"nb\">06-May-2019</span></td><td>active</td></tr><tr><td>Hyperlipidemia</td><td><span class=\"nb\">22-May-2017</span></td><td>active</td></tr><tr><td>Chronic intractable migraine without aura</td><td><span class=\"nb\">20-Apr-1993</span></td><td>active</td></tr></table></div>"
            },
            "entry": [
              {
                "reference": "urn:uuid:95a51e27-c249-4656-85bd-f0a83bedc897"
              },
              {
                "reference": "urn:uuid:aee4326d-e50a-4402-8b49-46668ed928b0"
              },
              {
                "reference": "urn:uuid:fea9d9cf-989e-4a2a-b9e4-abfd8a0d441d"
              },
              {
                "reference": "urn:uuid:fbf539a4-7831-42e2-b45d-cffd6b22799d"
              },
              {
                "reference": "urn:uuid:d1aa187f-fc4c-418e-8154-2bf479faa9af"
              },
              {
                "reference": "urn:uuid:cc553223-db44-4871-8871-53ddd6e62d40"
              }
            ],
            "code": {
              "coding": [
                {
                  "system": "http://loinc.org",
                  "code": "11450-4",
                  "display": "Problem list - Reported"
                }
              ]
            },
            "title": "Problem list"
          },
          {
            "text": {
              "status": "generated",
              "div": "<div xmlns=\"http://www.w3.org/1999/xhtml\"><table class=\"hl7__ips\"><tr><th>Medication</th><th>Since</th><th>Form</th><th>Dosage</th><th>Reason</th></tr><tr><td>Simvastatin 10 mg oral tablet</td><td><span class=\"nb\">2025-06-10</span></td><td>-</td><td>1 tablet (10 mg) by mouth once daily</td><td>Hyperlipidemia</td></tr></table></div>"
            },
            "entry": [
              {
                "reference": "urn:uuid:9f870d5d-2d66-41b5-866d-32abde043e39"
              }
            ],
            "code": {
              "coding": [
                {
                  "system": "http://loinc.org",
                  "code": "10160-0",
                  "display": "History of Medication use Narrative"
                }
              ]
            },
            "title": "Medication list"
          },
          {
            "text": {
              "status": "generated",
              "div": "<div xmlns=\"http://www.w3.org/1999/xhtml\"><table class=\"hl7__ips\"><tr><th>Vaccine</th><th>Date</th></tr><tr><td>Influenza virus antigen only vaccine product</td><td><span class=\"nb\">02-Jun-2025</span></td></tr><tr><td>SARS-CoV-2 mRNA vaccine</td><td><span class=\"nb\">03-May-2021</span></td></tr><tr><td>Clostridium tetani toxoid antigen adsorbed only vaccine product</td><td><span class=\"nb\">04-May-2020</span></td></tr><tr><td>Live attenuated Human alphaherpesvirus 3 only vaccine product</td><td><span class=\"nb\">04-May-2020</span></td></tr></table></div>"
            },
            "entry": [
              {
                "reference": "urn:uuid:0e949468-4fff-42bb-832a-82d146a8932e"
              },
              {
                "reference": "urn:uuid:356f0a93-f21d-40fb-9b19-79f40ac67cea"
              },
              {
                "reference": "urn:uuid:e6ad6aa8-067a-4fd0-af96-f409d5113cba"
              },
              {
                "reference": "urn:uuid:f92bf7a7-5783-4645-9144-60db0d26b021"
              }
            ],
            "code": {
              "coding": [
                {
                  "system": "http://loinc.org",
                  "code": "11369-6",
                  "display": "History of Immunization note"
                }
              ]
            },
            "title": "Immunizations list"
          },
          {
            "text": {
              "status": "generated",
              "div": "<div xmlns=\"http://www.w3.org/1999/xhtml\"><table class=\"hl7__ips\"><tr><th>Procedure</th><th>Date</th><th>Reason</th></tr><tr><td>Postoperative care</td><td><span class=\"nb\">26-Jun-2020</span></td><td>Overlapping malignant neoplasm of colon</td></tr><tr><td>Partial resection of colon</td><td><span class=\"nb\">20-Jun-2020</span></td><td>Overlapping malignant neoplasm of colon</td></tr><tr><td>Assessment of health and social care needs</td><td><span class=\"nb\">24-Sep-2018</span></td><td>-</td></tr><tr><td>Assessment of anxiety</td><td><span class=\"nb\">24-Sep-2018</span></td><td>-</td></tr><tr><td>Assessment using AUDIT-C (Alcohol Use Disorders Identification Test - Consumption)</td><td><span class=\"nb\">24-Sep-2018</span></td><td>-</td></tr><tr><td>Assessment of substance use</td><td><span class=\"nb\">24-Sep-2018</span></td><td>-</td></tr></table></div>"
            },
            "entry": [
              {
                "reference": "urn:uuid:7306e1fc-cc31-4338-9843-78d6fbac130d"
              },
              {
                "reference": "urn:uuid:12cb6059-fc09-4f3b-8445-e186094aed94"
              },
              {
                "reference": "urn:uuid:aec1282c-aa92-4e97-8beb-b16d5e9d37fd"
              },
              {
                "reference": "urn:uuid:72c1e05a-a361-4994-a953-70dbb90cd6af"
              },
              {
                "reference": "urn:uuid:97582998-c6cb-4131-93b4-c5379e90c5bd"
              },
              {
                "reference": "urn:uuid:d77b9c84-70e9-46df-9ab7-1f9a39193746"
              }
            ],
            "code": {
              "coding": [
                {
                  "system": "http://loinc.org",
                  "code": "47519-4",
                  "display": "History of Procedures Document"
                }
              ]
            },
            "title": "Procedure History list"
          },
          {
            "text": {
              "status": "generated",
              "div": "<div xmlns=\"http://www.w3.org/1999/xhtml\"><table class=\"hl7__ips\"><tr><th>Allergy/Intolerance</th><th>Onset Date</th><th>Status</th><th>Type</th><th>Reaction</th></tr><tr><td></td><td>?</td><td>active</td><td>?</td><td></td></tr></table></div>"
            },
            "entry": [
              {
                "reference": "urn:uuid:9d1ba09e-15c0-48ab-a9bc-ade6fa24709e"
              }
            ],
            "code": {
              "coding": [
                {
                  "system": "http://loinc.org",
                  "code": "48765-2",
                  "display": "Allergies and adverse reactions Document"
                }
              ]
            },
            "title": "Allergies and Intolerances"
          },
          {
            "text": {
              "status": "generated",
              "div": "<div xmlns=\"http://www.w3.org/1999/xhtml\"><table class=\"hl7__ips\"><tr><th>Active Planned Care / Goals</th><th>Start Date</th><th>Reason</th></tr><tr><td>Diabetes self management plan</td><td><span class=\"nb\">16-May-2022</span></td><td>Prediabetes</td></tr><tr><td><ul><li>Patient will demonstrate understanding of prediabetes self-management strategies including diet, exercise, and blood glucose monitoring.</li><li>Maintain hemoglobin A1c below 5.7% to prevent progression to diabetes.</li><li>Achieve and maintain at least 5% weight loss from baseline to reduce risk of developing diabetes.</li><li>Engage in at least 150 minutes of moderate-intensity physical activity per week.</li></ul></td><td></td><td></td></tr><tr><td>Hyperlipidemia clinical management plan</td><td><span class=\"nb\">12-Jun-2017</span></td><td>Hyperlipidemia</td></tr><tr><td><ul><li>Achieve and maintain LDL cholesterol below 100 mg/dL</li><li>Achieve and maintain total cholesterol below 200 mg/dL</li><li>Achieve and maintain triglycerides below 150 mg/dL</li><li>Achieve and maintain HDL cholesterol above 40 mg/dL</li></ul></td><td></td><td></td></tr></table></div>"
            },
            "entry": [
              {
                "reference": "urn:uuid:841255cb-0bf6-40e4-badf-791f27caa108"
              },
              {
                "reference": "urn:uuid:3dc1a06e-0111-4083-82a9-1fc09efc8052"
              }
            ],
            "code": {
              "coding": [
                {
                  "system": "http://loinc.org",
                  "code": "18776-5",
                  "display": "Plan of care note"
                }
              ]
            },
            "title": "Care Plan"
          },
          {
            "text": {
              "status": "generated",
              "div": "<div xmlns=\"http://www.w3.org/1999/xhtml\"><table class=\"hl7__ips\"><tr><th>Vital Signs</th><th>2025-06-02</th><th>2024-05-27</th></tr><tr><td>Body Height</td><td>177 cm</td><td>177 cm</td></tr><tr><td>Pain severity - 0-10 verbal numeric rating [Score] - Reported</td><td>3 {score}</td><td>3 {score}</td></tr><tr><td>Body Weight</td><td>87.9 kg</td><td>87.9 kg</td></tr><tr><td>Body mass index (BMI) [Ratio]</td><td>28.1 kg/m2</td><td>28.1 kg/m2</td></tr><tr><td>Diastolic Blood Pressure</td><td>83 mm[Hg]</td><td>84 mm[Hg]</td></tr><tr><td>Systolic Blood Pressure</td><td>125 mm[Hg]</td><td>123 mm[Hg]</td></tr><tr><td>Heart rate</td><td>70 /min</td><td>80 /min</td></tr><tr><td>Respiratory rate</td><td>15 /min</td><td>13 /min</td></tr></table></div>"
            },
            "entry": [
              {
                "reference": "urn:uuid:9aaa56fd-3ae2-4638-8a08-27f75c0c70cb"
              },
              {
                "reference": "urn:uuid:8af2e43e-8d7f-4d54-8f22-0ed92ddb384c"
              },
              {
                "reference": "urn:uuid:134e5000-0539-4cb3-80fb-49b22730e495"
              },
              {
                "reference": "urn:uuid:45827c62-1194-4803-b9c7-37c3ad43e27e"
              },
              {
                "reference": "urn:uuid:461686fa-07cc-4d2e-9f54-0b69d65e7330"
              },
              {
                "reference": "urn:uuid:a50be08e-f582-497c-b9fb-c47a8dd1b3d9"
              },
              {
                "reference": "urn:uuid:a3cb40eb-9f87-4b72-a558-2c02b1b3ac39"
              },
              {
                "reference": "urn:uuid:61f490e2-b4fa-476e-9003-98dbdb9f64dc"
              },
              {
                "reference": "urn:uuid:81fc9531-1b75-41ab-a839-49e7643b6b27"
              },
              {
                "reference": "urn:uuid:3f8d316c-627a-4451-9a60-0f38eb267e48"
              },
              {
                "reference": "urn:uuid:f4602bec-0f1b-4543-9ea6-7c01466d4b29"
              },
              {
                "reference": "urn:uuid:e1be855c-7e74-4df7-a145-d76e1e825467"
              },
              {
                "reference": "urn:uuid:db66aade-9b58-4c0e-bbe9-c0806ce07b3c"
              },
              {
                "reference": "urn:uuid:b1e8f851-65fb-4108-94b1-7834f44de0e7"
              },
              {
                "reference": "urn:uuid:6b66eabb-f218-4763-9e1e-fe158e1efc8d"
              },
              {
                "reference": "urn:uuid:df72f511-b184-4538-8df4-7a7c17303440"
              }
            ],
            "code": {
              "coding": [
                {
                  "system": "http://loinc.org",
                  "code": "8716-3",
                  "display": "Vital signs note"
                }
              ]
            },
            "title": "Vital Signs"
          },
          {
            "text": {
              "status": "generated",
              "div": "<div xmlns=\"http://www.w3.org/1999/xhtml\"><table class=\"hl7__ips\"><table class=\"hl7__ips\"><thead><tr><th>Recent Lab Observations</th><th>10-JUN-2025</th><th>Reference&#xA0;Range</th><th>Unit</th></tr></thead><tbody><tr><td>Glucose [Mass/volume] in Blood</td><td>77.7</td><td>70 - 99</td><td>mg/dL</td></tr><tr><td>Urea nitrogen [Mass/volume] in Blood</td><td>11.5</td><td>7 - 20</td><td>mg/dL</td></tr><tr><td>Creatinine [Mass/volume] in Blood</td><td><strong>2.8 H</strong></td><td>0.7 - 1.3</td><td>mg/dL</td></tr><tr><td>Calcium [Mass/volume] in Blood</td><td>9.3</td><td>8.5 - 10.5</td><td>mg/dL</td></tr><tr><td>Sodium [Moles/volume] in Blood</td><td>138.8</td><td>135 - 145</td><td>mmol/L</td></tr><tr><td>Potassium [Moles/volume] in Blood</td><td>4.9</td><td>3.5 - 5</td><td>mmol/L</td></tr><tr><td>Chloride [Moles/volume] in Blood</td><td>101.9</td><td>98 - 107</td><td>mmol/L</td></tr><tr><td>Carbon dioxide, total [Moles/volume] in Blood</td><td>27.5</td><td>24 - 29</td><td>mmol/L</td></tr><tr><td>Protein [Mass/volume] in Serum or Plasma</td><td><strong>6.2 L</strong></td><td>6.6 - 8.3</td><td>g/dL</td></tr><tr><td>Albumin [Mass/volume] in Serum or Plasma</td><td>3.8</td><td>3.5 - 5.5</td><td>g/dL</td></tr><tr><td>Globulin [Mass/volume] in Serum by calculation</td><td>3.4</td><td>2 - 3.5</td><td>g/L</td></tr><tr><td>Bilirubin.total [Mass/volume] in Serum or Plasma</td><td>0.6</td><td>0.3 - 1.2</td><td>mg/dL</td></tr><tr><td>Alkaline phosphatase [Enzymatic activity/volume] in Serum or Plasma</td><td>65.3</td><td>39 - 136</td><td>U/L</td></tr><tr><td>Alanine aminotransferase [Enzymatic activity/volume] in Serum or Plasma</td><td>40.7</td><td>7 - 52</td><td>U/L</td></tr><tr><td>Aspartate aminotransferase [Enzymatic activity/volume] in Serum or Plasma</td><td>12.3</td><td>10 - 40</td><td>U/L</td></tr><tr><td>Cholesterol [Mass/volume] in Serum or Plasma</td><td><strong>200.4 H</strong></td><td>125 - 200</td><td>mg/dL</td></tr><tr><td>Triglyceride [Mass/volume] in Serum or Plasma</td><td>100.5</td><td>0 - 150</td><td>mg/dL</td></tr><tr><td>Cholesterol in LDL [Mass/volume] in Serum or Plasma by Direct assay</td><td>106.5</td><td>0 - 130</td><td>mg/dL</td></tr><tr><td>Cholesterol in HDL [Mass/volume] in Serum or Plasma</td><td><strong>31.4 L</strong></td><td>40 - 100</td><td>mg/dL</td></tr></tbody></table></table></div>"
            },
            "entry": [
              {
                "reference": "urn:uuid:c9b6b4a0-5ff6-4ef2-a69f-c922fab65120"
              },
              {
                "reference": "urn:uuid:ebb4617f-6b7c-411a-9194-1cc0d3310530"
              },
              {
                "reference": "urn:uuid:72f69976-aa68-4f85-8633-1bd178207976"
              },
              {
                "reference": "urn:uuid:5addd58b-8330-415c-8059-02445ba23040"
              },
              {
                "reference": "urn:uuid:88d87ddb-f19c-4fc0-9abe-e7adc21e0612"
              },
              {
                "reference": "urn:uuid:a96a1d0c-16fa-4e29-9c7f-f5992ff09008"
              },
              {
                "reference": "urn:uuid:687aa329-6d49-4906-bbe4-7a732cf5fc6b"
              },
              {
                "reference": "urn:uuid:439c0536-3f00-4b20-a059-456a20f6def3"
              },
              {
                "reference": "urn:uuid:bd5f519b-3bf2-414d-b8b5-486aa04c3607"
              },
              {
                "reference": "urn:uuid:6218efaf-dbdc-4af7-a2bf-800048140880"
              },
              {
                "reference": "urn:uuid:93ef3c79-0d40-44ad-bdcf-b74220c54435"
              },
              {
                "reference": "urn:uuid:f9c12403-2de5-448e-8600-5f005113797c"
              },
              {
                "reference": "urn:uuid:f0767133-4cc4-4470-8b7b-0911fd205c59"
              },
              {
                "reference": "urn:uuid:1983f1cc-d37d-40c4-bd9f-4a476c585551"
              },
              {
                "reference": "urn:uuid:772c19c2-ed1b-4e34-8f8c-ed4cbb285ce8"
              },
              {
                "reference": "urn:uuid:f3aad0d4-e481-4fd8-a696-767411f6a84b"
              },
              {
                "reference": "urn:uuid:9f008e36-dfa2-406f-952d-eb65e6e7b4d5"
              },
              {
                "reference": "urn:uuid:27471183-45c0-4892-bd4f-a780482c5c67"
              },
              {
                "reference": "urn:uuid:fcf68ea9-fe79-41fa-a788-ec2bbd4144b7"
              }
            ],
            "code": {
              "coding": [
                {
                  "system": "http://loinc.org",
                  "code": "30954-2",
                  "display": "Relevant diagnostic tests/laboratory data note"
                }
              ]
            },
            "title": "Relevant diagnostic tests/laboratory data"
          },
          {
            "text": {
              "status": "generated",
              "div": "<div xmlns=\"http://www.w3.org/1999/xhtml\"><table class=\"hl7__ips\"><tr><th>Device</th><th>Date (since)</th></tr><tr><td>Blood glucose meter (physical object)</td><td><span class=\"nb\">16-May-2022</span></td></tr></table></div>"
            },
            "entry": [
              {
                "reference": "urn:uuid:13383900-f80e-427e-895e-5d30787f240f"
              }
            ],
            "code": {
              "coding": [
                {
                  "system": "http://loinc.org",
                  "code": "46264-8",
                  "display": "History of medical device use"
                }
              ]
            },
            "title": "Device Use"
          }
        ],
        "title": "European Patient Summary",
        "status": "final",
        "subject": {
          "reference": "urn:uuid:cfdfc19b-20bf-428b-9034-586535c500ab",
          "display": "Gioele Fabbri"
        },
        "custodian": {
          "reference": "urn:uuid:88b03ba0-6540-43fb-8946-05bc81d8fbc3"
        },
        "date": "2025-06-10",
        "confidentiality": "N"
      }
    },
    {
      "fullUrl": "urn:uuid:cfdfc19b-20bf-428b-9034-586535c500ab",
      "resource": {
        "resourceType": "Patient",
        "id": "cfdfc19b-20bf-428b-9034-586535c500ab",
        "meta": {
          "security": [
            {
              "system": "http://terminology.hl7.org/CodeSystem/v3-ActReason",
              "code": "HTEST"
            },
            {
              "system": "http://terminology.hl7.org/CodeSystem/v3-ActReason",
              "code": "TRAIN"
            }
          ],
          "tag": [
            {
              "system": "https://synderai.net/fhir/CodeSystem/tags",
              "code": "synthetic",
              "display": "SYNDERAI Synthetic data"
            }
          ],
          "profile": [
            "http://hl7.eu/fhir/eps/StructureDefinition/patient-eu-eps"
          ]
        },
        "identifier": [
          {
            "type": {
              "coding": [
                {
                  "code": "PT",
                  "system": "http://terminology.hl7.org/CodeSystem/v2-0203"
                }
              ]
            },
            "system": "http://ec.europa.eu/identifier/eci",
            "value": "3631-767680-1"
          },
          {
            "type": {
              "coding": [
                {
                  "code": "MR",
                  "system": "http://terminology.hl7.org/CodeSystem/v2-0203"
                }
              ]
            },
            "system": "http://local.setting.eu/identifier",
            "value": "0a14935e-e0f7-2e1e-46fa-42b10e75d1f9"
          }
        ],
        "name": [
          {
            "family": "Fabbri"
          },
          {
            "given": [
              "Gioele"
            ]
          },
          {
            "text": "Gioele Fabbri"
          }
        ],
        "address": [
          {
            "line": [
              "Canale Armani, 25"
            ],
            "use": "home",
            "type": "physical",
            "postalCode": "23887",
            "city": "Revislate",
            "country": "Italy"
          }
        ],
        "telecom": [
          {
            "system": "phone",
            "value": "+39 0423197768"
          }
        ],
        "extension": [
          {
            "url": "http://hl7.org/fhir/StructureDefinition/patient-nationality",
            "valueCodeableConcept": {
              "coding": [
                {
                  "code": "IT",
                  "system": "http://hl7.org/fhir/ValueSet/country"
                }
              ]
            }
          }
        ],
        "text": {
          "status": "generated",
          "div": "<div xmlns=\"http://www.w3.org/1999/xhtml\"><table class=\"hl7__ips\"><tr><td>Gioele Fabbri</td><td>male</td><td>12-Sep-1972</td></tr></table></div>"
        },
        "gender": "male",
        "birthDate": "1972-09-12"
      }
    },
    {
      "fullUrl": "urn:uuid:cfea9a97-e881-4589-9c3b-3b32ab6bf174",
      "resource": {
        "resourceType": "PractitionerRole",
        "id": "cfea9a97-e881-4589-9c3b-3b32ab6bf174",
        "meta": {
          "profile": [
            "http://hl7.eu/fhir/base/StructureDefinition/practitionerRole-eu"
          ]
        },
        "text": {
          "status": "generated",
          "div": "<div xmlns=\"http://www.w3.org/1999/xhtml\"><table class=\"hl7__ips\">Provider Role Id cfea9a97-e881-4589-9c3b-3b32ab6bf174</table></div>"
        },
        "practitioner": {
          "reference": "urn:uuid:acefdfac-3d42-4cfe-8c84-7251168a5091"
        },
        "organization": {
          "reference": "urn:uuid:88b03ba0-6540-43fb-8946-05bc81d8fbc3"
        }
      }
    },
    {
      "fullUrl": "urn:uuid:acefdfac-3d42-4cfe-8c84-7251168a5091",
      "resource": {
        "resourceType": "Practitioner",
        "id": "acefdfac-3d42-4cfe-8c84-7251168a5091",
        "meta": {
          "profile": [
            "http://hl7.eu/fhir/base/StructureDefinition/practitioner-eu"
          ]
        },
        "name": [
          {
            "prefix": [
              "Dr."
            ],
            "given": [
              "Hel"
            ],
            "family": "Ping"
          }
        ],
        "text": {
          "status": "generated",
          "div": "<div xmlns=\"http://www.w3.org/1999/xhtml\"><table class=\"hl7__ips\">Dr. Hel Ping</table></div>"
        }
      }
    },
    {
      "fullUrl": "urn:uuid:88b03ba0-6540-43fb-8946-05bc81d8fbc3",
      "resource": {
        "resourceType": "Organization",
        "id": "88b03ba0-6540-43fb-8946-05bc81d8fbc3",
        "meta": {
          "profile": [
            "http://hl7.eu/fhir/base/StructureDefinition/organization-eu"
          ]
        },
        "identifier": [
          {
            "assigner": {
              "display": "HL7 Europe"
            },
            "system": "urn:oid:2.16.840.1.113883.2.51.999",
            "value": "92bcf049-342a-45e8-b32f-ddec32074380"
          }
        ],
        "address": [
          {
            "line": [
              "Piazza Ospedale 3"
            ],
            "city": "Calcinate",
            "postalCode": "24050",
            "country": "Italy"
          }
        ],
        "text": {
          "status": "generated",
          "div": "<div xmlns=\"http://www.w3.org/1999/xhtml\"><table class=\"hl7__ips\">Ospedale di Calcinate &quot;F.M. Passi&quot;</table></div>"
        },
        "name": "Ospedale di Calcinate &quot;F.M. Passi&quot;"
      }
    },
    {
      "fullUrl": "urn:uuid:95a51e27-c249-4656-85bd-f0a83bedc897",
      "resource": {
        "resourceType": "Condition",
        "id": "95a51e27-c249-4656-85bd-f0a83bedc897",
        "meta": {
          "profile": [
            "http://hl7.org/fhir/uv/ips/StructureDefinition/Condition-uv-ips"
          ]
        },
        "category": [
          {
            "coding": [
              {
                "code": "problem-list-item",
                "system": "http://terminology.hl7.org/CodeSystem/condition-category",
                "display": "Problem List Item"
              }
            ]
          }
        ],
        "code": {
          "coding": [
            {
              "code": "271737000",
              "system": "http://snomed.info/sct",
              "display": "Anemia (disorder)"
            }
          ],
          "text": "Anemia"
        },
        "text": {
          "status": "generated",
          "div": "<div xmlns=\"http://www.w3.org/1999/xhtml\"><table class=\"hl7__ips\"><tr><td>Anemia</td><td><span class=\"nb\">22-May-2023</span></td><td>active</td></tr></table></div>"
        },
        "onsetDateTime": "2023-05-22",
        "subject": {
          "reference": "urn:uuid:",
          "display": "Gioele Fabbri"
        },
        "asserter": {
          "reference": "urn:uuid:",
          "display": "Ospedale di Calcinate &quot;F.M. Passi&quot;"
        }
      }
    },
    {
      "fullUrl": "urn:uuid:aee4326d-e50a-4402-8b49-46668ed928b0",
      "resource": {
        "resourceType": "Condition",
        "id": "aee4326d-e50a-4402-8b49-46668ed928b0",
        "meta": {
          "profile": [
            "http://hl7.org/fhir/uv/ips/StructureDefinition/Condition-uv-ips"
          ]
        },
        "category": [
          {
            "coding": [
              {
                "code": "problem-list-item",
                "system": "http://terminology.hl7.org/CodeSystem/condition-category",
                "display": "Problem List Item"
              }
            ]
          }
        ],
        "code": {
          "coding": [
            {
              "code": "15777000",
              "system": "http://snomed.info/sct",
              "display": "Prediabetes (disorder)"
            }
          ],
          "text": "Prediabetes"
        },
        "text": {
          "status": "generated",
          "div": "<div xmlns=\"http://www.w3.org/1999/xhtml\"><table class=\"hl7__ips\"><tr><td>Prediabetes</td><td><span class=\"nb\">16-May-2022</span></td><td>active</td></tr></table></div>"
        },
        "onsetDateTime": "2022-05-16",
        "subject": {
          "reference": "urn:uuid:",
          "display": "Gioele Fabbri"
        },
        "asserter": {
          "reference": "urn:uuid:",
          "display": "Ospedale di Calcinate &quot;F.M. Passi&quot;"
        }
      }
    },
    {
      "fullUrl": "urn:uuid:fea9d9cf-989e-4a2a-b9e4-abfd8a0d441d",
      "resource": {
        "resourceType": "Condition",
        "id": "fea9d9cf-989e-4a2a-b9e4-abfd8a0d441d",
        "meta": {
          "profile": [
            "http://hl7.org/fhir/uv/ips/StructureDefinition/Condition-uv-ips"
          ]
        },
        "category": [
          {
            "coding": [
              {
                "code": "problem-list-item",
                "system": "http://terminology.hl7.org/CodeSystem/condition-category",
                "display": "Problem List Item"
              }
            ]
          }
        ],
        "code": {
          "coding": [
            {
              "code": "713197008",
              "system": "http://snomed.info/sct",
              "display": "Recurrent rectal polyp (disorder)"
            }
          ],
          "text": "Recurrent rectal polyp"
        },
        "text": {
          "status": "generated",
          "div": "<div xmlns=\"http://www.w3.org/1999/xhtml\"><table class=\"hl7__ips\"><tr><td>Recurrent rectal polyp</td><td><span class=\"nb\">03-Jun-2020</span></td><td>active</td></tr></table></div>"
        },
        "onsetDateTime": "2020-06-03",
        "subject": {
          "reference": "urn:uuid:",
          "display": "Gioele Fabbri"
        },
        "asserter": {
          "reference": "urn:uuid:",
          "display": "Ospedale di Calcinate &quot;F.M. Passi&quot;"
        }
      }
    },
    {
      "fullUrl": "urn:uuid:fbf539a4-7831-42e2-b45d-cffd6b22799d",
      "resource": {
        "resourceType": "Condition",
        "id": "fbf539a4-7831-42e2-b45d-cffd6b22799d",
        "meta": {
          "profile": [
            "http://hl7.org/fhir/uv/ips/StructureDefinition/Condition-uv-ips"
          ]
        },
        "category": [
          {
            "coding": [
              {
                "code": "problem-list-item",
                "system": "http://terminology.hl7.org/CodeSystem/condition-category",
                "display": "Problem List Item"
              }
            ]
          }
        ],
        "code": {
          "coding": [
            {
              "code": "68496003",
              "system": "http://snomed.info/sct",
              "display": "Polyp of colon (disorder)"
            }
          ],
          "text": "Polyp of colon"
        },
        "text": {
          "status": "generated",
          "div": "<div xmlns=\"http://www.w3.org/1999/xhtml\"><table class=\"hl7__ips\"><tr><td>Polyp of colon</td><td><span class=\"nb\">06-May-2019</span></td><td>active</td></tr></table></div>"
        },
        "onsetDateTime": "2019-05-06",
        "subject": {
          "reference": "urn:uuid:",
          "display": "Gioele Fabbri"
        },
        "asserter": {
          "reference": "urn:uuid:",
          "display": "Ospedale di Calcinate &quot;F.M. Passi&quot;"
        }
      }
    },
    {
      "fullUrl": "urn:uuid:d1aa187f-fc4c-418e-8154-2bf479faa9af",
      "resource": {
        "resourceType": "Condition",
        "id": "d1aa187f-fc4c-418e-8154-2bf479faa9af",
        "meta": {
          "profile": [
            "http://hl7.org/fhir/uv/ips/StructureDefinition/Condition-uv-ips"
          ]
        },
        "category": [
          {
            "coding": [
              {
                "code": "problem-list-item",
                "system": "http://terminology.hl7.org/CodeSystem/condition-category",
                "display": "Problem List Item"
              }
            ]
          }
        ],
        "code": {
          "coding": [
            {
              "code": "55822004",
              "system": "http://snomed.info/sct",
              "display": "Hyperlipidemia (disorder)"
            }
          ],
          "text": "Hyperlipidemia"
        },
        "text": {
          "status": "generated",
          "div": "<div xmlns=\"http://www.w3.org/1999/xhtml\"><table class=\"hl7__ips\"><tr><td>Hyperlipidemia</td><td><span class=\"nb\">22-May-2017</span></td><td>active</td></tr></table></div>"
        },
        "onsetDateTime": "2017-05-22",
        "subject": {
          "reference": "urn:uuid:",
          "display": "Gioele Fabbri"
        },
        "asserter": {
          "reference": "urn:uuid:",
          "display": "Ospedale di Calcinate &quot;F.M. Passi&quot;"
        }
      }
    },
    {
      "fullUrl": "urn:uuid:cc553223-db44-4871-8871-53ddd6e62d40",
      "resource": {
        "resourceType": "Condition",
        "id": "cc553223-db44-4871-8871-53ddd6e62d40",
        "meta": {
          "profile": [
            "http://hl7.org/fhir/uv/ips/StructureDefinition/Condition-uv-ips"
          ]
        },
        "category": [
          {
            "coding": [
              {
                "code": "problem-list-item",
                "system": "http://terminology.hl7.org/CodeSystem/condition-category",
                "display": "Problem List Item"
              }
            ]
          }
        ],
        "code": {
          "coding": [
            {
              "code": "124171000119105",
              "system": "http://snomed.info/sct",
              "display": "Chronic intractable migraine without aura (disorder)"
            }
          ],
          "text": "Chronic intractable migraine without aura"
        },
        "text": {
          "status": "generated",
          "div": "<div xmlns=\"http://www.w3.org/1999/xhtml\"><table class=\"hl7__ips\"><tr><td>Chronic intractable migraine without aura</td><td><span class=\"nb\">20-Apr-1993</span></td><td>active</td></tr></table></div>"
        },
        "onsetDateTime": "1993-04-20",
        "subject": {
          "reference": "urn:uuid:",
          "display": "Gioele Fabbri"
        },
        "asserter": {
          "reference": "urn:uuid:",
          "display": "Ospedale di Calcinate &quot;F.M. Passi&quot;"
        }
      }
    },
    {
      "fullUrl": "urn:uuid:0f047a2c-ad5d-4fac-bd4e-0c9c0a53f6fe",
      "resource": {
        "resourceType": "Condition",
        "id": "0f047a2c-ad5d-4fac-bd4e-0c9c0a53f6fe",
        "meta": {
          "profile": [
            "http://hl7.org/fhir/uv/ips/StructureDefinition/Condition-uv-ips"
          ]
        },
        "category": [
          {
            "coding": [
              {
                "code": "problem-list-item",
                "system": "http://terminology.hl7.org/CodeSystem/condition-category",
                "display": "Problem List Item"
              }
            ]
          }
        ],
        "code": {
          "coding": [
            {
              "code": "109838007",
              "system": "http://snomed.info/sct",
              "display": "Overlapping malignant neoplasm of colon (disorder)"
            }
          ],
          "text": "Overlapping malignant neoplasm of colon"
        },
        "text": {
          "status": "generated",
          "div": "<div xmlns=\"http://www.w3.org/1999/xhtml\"><table class=\"hl7__ips\"><tr><td><span class=\"grayedout\">Overlapping malignant neoplasm of colon</span></td><td><span class=\"nb\">09-Jun-2020 - 17-Oct-2021</span></td><td><span class=\"grayedout\">inactive</span></td></tr></table></div>"
        },
        "onsetDateTime": "2020-06-09",
        "abatementDateTime": "2021-10-17",
        "subject": {
          "reference": "urn:uuid:",
          "display": "Gioele Fabbri"
        },
        "asserter": {
          "reference": "urn:uuid:",
          "display": "Ospedale di Calcinate &quot;F.M. Passi&quot;"
        }
      }
    },
    {
      "fullUrl": "urn:uuid:c089b691-ad4d-4f0d-ae28-5d7a384c1383",
      "resource": {
        "resourceType": "Condition",
        "id": "c089b691-ad4d-4f0d-ae28-5d7a384c1383",
        "meta": {
          "profile": [
            "http://hl7.org/fhir/uv/ips/StructureDefinition/Condition-uv-ips"
          ]
        },
        "category": [
          {
            "coding": [
              {
                "code": "problem-list-item",
                "system": "http://terminology.hl7.org/CodeSystem/condition-category",
                "display": "Problem List Item"
              }
            ]
          }
        ],
        "code": {
          "coding": [
            {
              "code": "10509002",
              "system": "http://snomed.info/sct",
              "display": "Acute bronchitis (disorder)"
            }
          ],
          "text": "Acute bronchitis"
        },
        "text": {
          "status": "generated",
          "div": "<div xmlns=\"http://www.w3.org/1999/xhtml\"><table class=\"hl7__ips\"><tr><td><span class=\"grayedout\">Acute bronchitis</span></td><td><span class=\"nb\">17-Sep-2018 - 06-Oct-2018</span></td><td><span class=\"grayedout\">inactive</span></td></tr></table></div>"
        },
        "onsetDateTime": "2018-09-17",
        "abatementDateTime": "2018-10-06",
        "subject": {
          "reference": "urn:uuid:",
          "display": "Gioele Fabbri"
        },
        "asserter": {
          "reference": "urn:uuid:",
          "display": "Ospedale di Calcinate &quot;F.M. Passi&quot;"
        }
      }
    },
    {
      "fullUrl": "urn:uuid:8e8b0d76-23f5-4cd7-9a83-0eb3ef8eb97b",
      "resource": {
        "resourceType": "Condition",
        "id": "8e8b0d76-23f5-4cd7-9a83-0eb3ef8eb97b",
        "meta": {
          "profile": [
            "http://hl7.org/fhir/uv/ips/StructureDefinition/Condition-uv-ips"
          ]
        },
        "category": [
          {
            "coding": [
              {
                "code": "problem-list-item",
                "system": "http://terminology.hl7.org/CodeSystem/condition-category",
                "display": "Problem List Item"
              }
            ]
          }
        ],
        "code": {
          "coding": [
            {
              "code": "43878008",
              "system": "http://snomed.info/sct",
              "display": "Streptococcal sore throat (disorder)"
            }
          ],
          "text": "Streptococcal sore throat"
        },
        "text": {
          "status": "generated",
          "div": "<div xmlns=\"http://www.w3.org/1999/xhtml\"><table class=\"hl7__ips\"><tr><td><span class=\"grayedout\">Streptococcal sore throat</span></td><td><span class=\"nb\">16-Jan-2018 - 28-Jan-2018</span></td><td><span class=\"grayedout\">inactive</span></td></tr></table></div>"
        },
        "onsetDateTime": "2018-01-16",
        "abatementDateTime": "2018-01-28",
        "subject": {
          "reference": "urn:uuid:",
          "display": "Gioele Fabbri"
        },
        "asserter": {
          "reference": "urn:uuid:",
          "display": "Ospedale di Calcinate &quot;F.M. Passi&quot;"
        }
      }
    },
    {
      "fullUrl": "urn:uuid:3daaf829-af87-403b-8b30-371ebaa4d850",
      "resource": {
        "resourceType": "Medication",
        "id": "3daaf829-af87-403b-8b30-371ebaa4d850",
        "meta": {
          "profile": [
            "http://hl7.eu/fhir/eps/StructureDefinition/Medication-eu-eps"
          ]
        },
        "code": {
          "coding": [
            {
              "code": "319996000",
              "system": "http://snomed.info/sct",
              "display": "Simvastatin 10 mg oral tablet"
            }
          ],
          "text": "Simvastatin 10 mg oral tablet"
        },
        "text": {
          "status": "generated",
          "div": "<div xmlns=\"http://www.w3.org/1999/xhtml\">Simvastatin 10 mg oral tablet</div>"
        }
      }
    },
    {
      "fullUrl": "urn:uuid:9f870d5d-2d66-41b5-866d-32abde043e39",
      "resource": {
        "resourceType": "MedicationStatement",
        "id": "9f870d5d-2d66-41b5-866d-32abde043e39",
        "meta": {
          "profile": [
            "http://hl7.eu/fhir/eps/StructureDefinition/MedicationStatement-eu-eps"
          ]
        },
        "effectivePeriod": {
          "start": "2025-06-10"
        },
        "dosage": [
          {
            "doseAndRate": [
              {
                "doseQuantity": {
                  "value": 1,
                  "unit": "{tbl}",
                  "code": "{tbl}"
                }
              }
            ],
            "timing": {
              "repeat": {
                "frequency": 1,
                "period": 1,
                "periodUnit": "d"
              }
            },
            "text": "1 tablet (10 mg) by mouth once daily",
            "asNeededBoolean": false
          }
        ],
        "reasonCode": [
          {
            "coding": [
              {
                "code": "55822004",
                "system": "http://snomed.info/sct",
                "display": "Hyperlipidemia"
              }
            ]
          }
        ],
        "text": {
          "status": "generated",
          "div": "<div xmlns=\"http://www.w3.org/1999/xhtml\"><table class=\"hl7__ips first25\"><tr><th>Medication</th><th>Since</th><th>Form</th><th>Dosage</th><th>Reason</th></tr><tr><td>Simvastatin 10 mg oral tablet</td><td><span class=\"nb\">2025-06-10</span></td><td>-</td><td>1 tablet (10 mg) by mouth once daily</td><td>Hyperlipidemia</td></tr></table></div>"
        },
        "status": "active",
        "medicationReference": {
          "reference": "urn:uuid:3daaf829-af87-403b-8b30-371ebaa4d850",
          "display": "Simvastatin 10 mg oral tablet"
        },
        "subject": {
          "reference": "urn:uuid:cfdfc19b-20bf-428b-9034-586535c500ab",
          "display": "Gioele Fabbri"
        }
      }
    },
    {
      "fullUrl": "urn:uuid:0e949468-4fff-42bb-832a-82d146a8932e",
      "resource": {
        "resourceType": "Immunization",
        "id": "0e949468-4fff-42bb-832a-82d146a8932e",
        "meta": {
          "profile": [
            "http://hl7.org/fhir/uv/ips/StructureDefinition/Immunization-uv-ips"
          ]
        },
        "vaccineCode": {
          "coding": [
            {
              "code": "1181000221105",
              "system": "http://snomed.info/sct",
              "display": "Vaccine product containing Influenza virus antigen"
            },
            {
              "code": "J07BB02",
              "system": "http://www.whocc.no/atc",
              "display": "Influenza, inactivated, split virus"
            }
          ],
          "text": "Influenza virus antigen only vaccine product"
        },
        "site": {
          "coding": [
            {
              "code": "244979005",
              "system": "http://snomed.info/sct",
              "display": "Entire muscle of upper arm"
            }
          ],
          "text": "Entire muscle of upper arm"
        },
        "route": {
          "coding": [
            {
              "code": "78421000",
              "system": "http://snomed.info/sct",
              "display": "Intramuscular route"
            }
          ],
          "text": "Intramuscular route"
        },
        "text": {
          "status": "generated",
          "div": "<div xmlns=\"http://www.w3.org/1999/xhtml\"><table class=\"hl7__ips\"><tr><td>Influenza virus antigen only vaccine product</td><td><span class=\"nb\">02-Jun-2025</span></td></tr></table></div>"
        },
        "status": "completed",
        "patient": {
          "reference": "urn:uuid:cfdfc19b-20bf-428b-9034-586535c500ab",
          "display": "Gioele Fabbri"
        },
        "occurrenceDateTime": "2025-06-02",
        "lotNumber": "EZ-GPvjd7lNH",
        "expirationDate": "2026-01-23"
      }
    },
    {
      "fullUrl": "urn:uuid:356f0a93-f21d-40fb-9b19-79f40ac67cea",
      "resource": {
        "resourceType": "Immunization",
        "id": "356f0a93-f21d-40fb-9b19-79f40ac67cea",
        "meta": {
          "profile": [
            "http://hl7.org/fhir/uv/ips/StructureDefinition/Immunization-uv-ips"
          ]
        },
        "vaccineCode": {
          "coding": [
            {
              "code": "1119349007",
              "system": "http://snomed.info/sct",
              "display": "Vaccine product containing SARS-CoV-2 mRNA"
            },
            {
              "code": "J07BX03",
              "system": "http://www.whocc.no/atc",
              "display": "COVID-19 mRNA vaccines"
            }
          ],
          "text": "SARS-CoV-2 mRNA vaccine"
        },
        "site": {
          "coding": [
            {
              "code": "244979005",
              "system": "http://snomed.info/sct",
              "display": "Entire muscle of upper arm"
            }
          ],
          "text": "Entire muscle of upper arm"
        },
        "route": {
          "coding": [
            {
              "code": "78421000",
              "system": "http://snomed.info/sct",
              "display": "Intramuscular route"
            }
          ],
          "text": "Intramuscular route"
        },
        "text": {
          "status": "generated",
          "div": "<div xmlns=\"http://www.w3.org/1999/xhtml\"><table class=\"hl7__ips\"><tr><td>SARS-CoV-2 mRNA vaccine</td><td><span class=\"nb\">03-May-2021</span></td></tr></table></div>"
        },
        "status": "completed",
        "patient": {
          "reference": "urn:uuid:cfdfc19b-20bf-428b-9034-586535c500ab",
          "display": "Gioele Fabbri"
        },
        "occurrenceDateTime": "2021-05-03",
        "lotNumber": "VE-Q84CGdUn",
        "expirationDate": "2022-05-07"
      }
    },
    {
      "fullUrl": "urn:uuid:e6ad6aa8-067a-4fd0-af96-f409d5113cba",
      "resource": {
        "resourceType": "Immunization",
        "id": "e6ad6aa8-067a-4fd0-af96-f409d5113cba",
        "meta": {
          "profile": [
            "http://hl7.org/fhir/uv/ips/StructureDefinition/Immunization-uv-ips"
          ]
        },
        "vaccineCode": {
          "coding": [
            {
              "code": "777725002",
              "system": "http://snomed.info/sct",
              "display": "Vaccine product containing only Clostridium tetani toxoid antigen adsorbed"
            },
            {
              "code": "J07AM51",
              "system": "http://www.whocc.no/atc",
              "display": "Diphtheria-tetanus vaccines, adult type"
            }
          ],
          "text": "Clostridium tetani toxoid antigen adsorbed only vaccine product"
        },
        "site": {
          "coding": [
            {
              "code": "244979005",
              "system": "http://snomed.info/sct",
              "display": "Entire muscle of upper arm"
            }
          ],
          "text": "Entire muscle of upper arm"
        },
        "route": {
          "coding": [
            {
              "code": "78421000",
              "system": "http://snomed.info/sct",
              "display": "Intramuscular route"
            }
          ],
          "text": "Intramuscular route"
        },
        "text": {
          "status": "generated",
          "div": "<div xmlns=\"http://www.w3.org/1999/xhtml\"><table class=\"hl7__ips\"><tr><td>Clostridium tetani toxoid antigen adsorbed only vaccine product</td><td><span class=\"nb\">04-May-2020</span></td></tr></table></div>"
        },
        "status": "completed",
        "patient": {
          "reference": "urn:uuid:cfdfc19b-20bf-428b-9034-586535c500ab",
          "display": "Gioele Fabbri"
        },
        "occurrenceDateTime": "2020-05-04",
        "lotNumber": "GS-vJbrF",
        "expirationDate": "2020-08-14"
      }
    },
    {
      "fullUrl": "urn:uuid:f92bf7a7-5783-4645-9144-60db0d26b021",
      "resource": {
        "resourceType": "Immunization",
        "id": "f92bf7a7-5783-4645-9144-60db0d26b021",
        "meta": {
          "profile": [
            "http://hl7.org/fhir/uv/ips/StructureDefinition/Immunization-uv-ips"
          ]
        },
        "vaccineCode": {
          "coding": [
            {
              "code": "2221000221107",
              "system": "http://snomed.info/sct",
              "display": "Live attenuated Varicella-zoster vaccine"
            },
            {
              "code": "J07BK02",
              "system": "http://www.whocc.no/atc",
              "display": "Varicella-zoster vaccines"
            }
          ],
          "text": "Live attenuated Human alphaherpesvirus 3 only vaccine product"
        },
        "site": {
          "coding": [
            {
              "code": "368208006",
              "system": "http://snomed.info/sct",
              "display": "Left upper arm structure"
            }
          ],
          "text": "Left upper arm structure"
        },
        "route": {
          "coding": [
            {
              "code": "34206005",
              "system": "http://snomed.info/sct",
              "display": "Subcutaneous route"
            }
          ],
          "text": "Subcutaneous route"
        },
        "text": {
          "status": "generated",
          "div": "<div xmlns=\"http://www.w3.org/1999/xhtml\"><table class=\"hl7__ips\"><tr><td>Live attenuated Human alphaherpesvirus 3 only vaccine product</td><td><span class=\"nb\">04-May-2020</span></td></tr></table></div>"
        },
        "status": "completed",
        "patient": {
          "reference": "urn:uuid:cfdfc19b-20bf-428b-9034-586535c500ab",
          "display": "Gioele Fabbri"
        },
        "occurrenceDateTime": "2020-05-04",
        "lotNumber": "TU-wLnIE",
        "expirationDate": "2020-09-01"
      }
    },
    {
      "fullUrl": "urn:uuid:7306e1fc-cc31-4338-9843-78d6fbac130d",
      "resource": {
        "resourceType": "Procedure",
        "id": "7306e1fc-cc31-4338-9843-78d6fbac130d",
        "meta": {
          "profile": [
            "http://hl7.org/fhir/uv/ips/StructureDefinition/Procedure-uv-ips"
          ]
        },
        "code": {
          "coding": [
            {
              "code": "133899007",
              "system": "http://snomed.info/sct",
              "display": "Postoperative care (regime/therapy)"
            }
          ],
          "text": "Postoperative care"
        },
        "reasonCode": [
          {
            "coding": [
              {
                "code": "109838007",
                "system": "http://snomed.info/sct",
                "display": "Overlapping malignant neoplasm of colon"
              }
            ]
          }
        ],
        "text": {
          "status": "generated",
          "div": "<div xmlns=\"http://www.w3.org/1999/xhtml\"><table class=\"hl7__ips\"><tr><td>Postoperative care</td><td><span class=\"nb\">26-Jun-2020</span></td><td>Overlapping malignant neoplasm of colon</td></tr></table></div>"
        },
        "status": "completed",
        "performedDateTime": "2020-06-26",
        "subject": {
          "reference": "urn:uuid:",
          "display": "Gioele Fabbri"
        }
      }
    },
    {
      "fullUrl": "urn:uuid:12cb6059-fc09-4f3b-8445-e186094aed94",
      "resource": {
        "resourceType": "Procedure",
        "id": "12cb6059-fc09-4f3b-8445-e186094aed94",
        "meta": {
          "profile": [
            "http://hl7.org/fhir/uv/ips/StructureDefinition/Procedure-uv-ips"
          ]
        },
        "code": {
          "coding": [
            {
              "code": "43075005",
              "system": "http://snomed.info/sct",
              "display": "Partial resection of colon"
            }
          ],
          "text": "Partial resection of colon"
        },
        "reasonCode": [
          {
            "coding": [
              {
                "code": "109838007",
                "system": "http://snomed.info/sct",
                "display": "Overlapping malignant neoplasm of colon"
              }
            ]
          }
        ],
        "text": {
          "status": "generated",
          "div": "<div xmlns=\"http://www.w3.org/1999/xhtml\"><table class=\"hl7__ips\"><tr><td>Partial resection of colon</td><td><span class=\"nb\">20-Jun-2020</span></td><td>Overlapping malignant neoplasm of colon</td></tr></table></div>"
        },
        "status": "completed",
        "performedDateTime": "2020-06-20",
        "subject": {
          "reference": "urn:uuid:",
          "display": "Gioele Fabbri"
        }
      }
    },
    {
      "fullUrl": "urn:uuid:aec1282c-aa92-4e97-8beb-b16d5e9d37fd",
      "resource": {
        "resourceType": "Procedure",
        "id": "aec1282c-aa92-4e97-8beb-b16d5e9d37fd",
        "meta": {
          "profile": [
            "http://hl7.org/fhir/uv/ips/StructureDefinition/Procedure-uv-ips"
          ]
        },
        "code": {
          "coding": [
            {
              "code": "710824005",
              "system": "http://snomed.info/sct",
              "display": "Assessment of health and social care needs (procedure)"
            }
          ],
          "text": "Assessment of health and social care needs"
        },
        "text": {
          "status": "generated",
          "div": "<div xmlns=\"http://www.w3.org/1999/xhtml\"><table class=\"hl7__ips\"><tr><td>Assessment of health and social care needs</td><td><span class=\"nb\">24-Sep-2018</span></td><td>-</td></tr></table></div>"
        },
        "status": "completed",
        "performedDateTime": "2018-09-24",
        "subject": {
          "reference": "urn:uuid:",
          "display": "Gioele Fabbri"
        }
      }
    },
    {
      "fullUrl": "urn:uuid:72c1e05a-a361-4994-a953-70dbb90cd6af",
      "resource": {
        "resourceType": "Procedure",
        "id": "72c1e05a-a361-4994-a953-70dbb90cd6af",
        "meta": {
          "profile": [
            "http://hl7.org/fhir/uv/ips/StructureDefinition/Procedure-uv-ips"
          ]
        },
        "code": {
          "coding": [
            {
              "code": "710841007",
              "system": "http://snomed.info/sct",
              "display": "Assessment of anxiety (procedure)"
            }
          ],
          "text": "Assessment of anxiety"
        },
        "text": {
          "status": "generated",
          "div": "<div xmlns=\"http://www.w3.org/1999/xhtml\"><table class=\"hl7__ips\"><tr><td>Assessment of anxiety</td><td><span class=\"nb\">24-Sep-2018</span></td><td>-</td></tr></table></div>"
        },
        "status": "completed",
        "performedDateTime": "2018-09-24",
        "subject": {
          "reference": "urn:uuid:",
          "display": "Gioele Fabbri"
        }
      }
    },
    {
      "fullUrl": "urn:uuid:97582998-c6cb-4131-93b4-c5379e90c5bd",
      "resource": {
        "resourceType": "Procedure",
        "id": "97582998-c6cb-4131-93b4-c5379e90c5bd",
        "meta": {
          "profile": [
            "http://hl7.org/fhir/uv/ips/StructureDefinition/Procedure-uv-ips"
          ]
        },
        "code": {
          "coding": [
            {
              "code": "763302001",
              "system": "http://snomed.info/sct",
              "display": "Assessment using Alcohol Use Disorders Identification Test - Consumption (procedure)"
            }
          ],
          "text": "Assessment using AUDIT-C (Alcohol Use Disorders Identification Test - Consumption)"
        },
        "text": {
          "status": "generated",
          "div": "<div xmlns=\"http://www.w3.org/1999/xhtml\"><table class=\"hl7__ips\"><tr><td>Assessment using AUDIT-C (Alcohol Use Disorders Identification Test - Consumption)</td><td><span class=\"nb\">24-Sep-2018</span></td><td>-</td></tr></table></div>"
        },
        "status": "completed",
        "performedDateTime": "2018-09-24",
        "subject": {
          "reference": "urn:uuid:",
          "display": "Gioele Fabbri"
        }
      }
    },
    {
      "fullUrl": "urn:uuid:d77b9c84-70e9-46df-9ab7-1f9a39193746",
      "resource": {
        "resourceType": "Procedure",
        "id": "d77b9c84-70e9-46df-9ab7-1f9a39193746",
        "meta": {
          "profile": [
            "http://hl7.org/fhir/uv/ips/StructureDefinition/Procedure-uv-ips"
          ]
        },
        "code": {
          "coding": [
            {
              "code": "428211000124100",
              "system": "http://snomed.info/sct",
              "display": "Assessment of substance use (procedure)"
            }
          ],
          "text": "Assessment of substance use"
        },
        "text": {
          "status": "generated",
          "div": "<div xmlns=\"http://www.w3.org/1999/xhtml\"><table class=\"hl7__ips\"><tr><td>Assessment of substance use</td><td><span class=\"nb\">24-Sep-2018</span></td><td>-</td></tr></table></div>"
        },
        "status": "completed",
        "performedDateTime": "2018-09-24",
        "subject": {
          "reference": "urn:uuid:",
          "display": "Gioele Fabbri"
        }
      }
    },
    {
      "fullUrl": "urn:uuid:9d1ba09e-15c0-48ab-a9bc-ade6fa24709e",
      "resource": {
        "resourceType": "AllergyIntolerance",
        "id": "9d1ba09e-15c0-48ab-a9bc-ade6fa24709e",
        "meta": {
          "profile": [
            "http://hl7.eu/fhir/eps/StructureDefinition/allergyIntolerance-eu-eps"
          ]
        },
        "code": {
          "text": ""
        },
        "clinicalStatus": {
          "coding": [
            {
              "code": "active",
              "system": "http://terminology.hl7.org/CodeSystem/allergyintolerance-clinical"
            }
          ]
        },
        "text": {
          "status": "generated",
          "div": "<div xmlns=\"http://www.w3.org/1999/xhtml\"><table class=\"hl7__ips\"><tr><th>Allergy/Intolerance</th><th>Onset Date</th><th>Status</th><th>Type</th><th>Reaction</th></tr><tr><td></td><td>?</td><td>active</td><td>?</td><td></td></tr></table></div>"
        },
        "verificationStatus": {
          "coding": [
            {
              "code": "confirmed",
              "system": "http://terminology.hl7.org/CodeSystem/allergyintolerance-verification"
            }
          ]
        },
        "patient": {
          "reference": "urn:uuid:cfdfc19b-20bf-428b-9034-586535c500ab",
          "display": "Gioele Fabbri"
        },
        "_onsetDateTime": {
          "extension": [
            {
              "url": "http://hl7.org/fhir/StructureDefinition/data-absent-reason",
              "valueCode": "unknown"
            }
          ]
        }
      }
    },
    {
      "fullUrl": "urn:uuid:841255cb-0bf6-40e4-badf-791f27caa108",
      "resource": {
        "resourceType": "CarePlan",
        "id": "841255cb-0bf6-40e4-badf-791f27caa108",
        "category": [
          {
            "coding": [
              {
                "code": "assess-plan",
                "system": "http://terminology.hl7.org/CodeSystem/care-plan-category",
                "display": "Assessment and Plan"
              }
            ]
          }
        ],
        "activity": [
          {
            "detail": {
              "code": {
                "coding": [
                  {
                    "code": "698360004",
                    "system": "http://snomed.info/sct",
                    "display": "Diabetes self management plan (qualifier value)"
                  }
                ]
              },
              "reasonCode": [
                {
                  "coding": [
                    {
                      "code": "15777000",
                      "system": "http://snomed.info/sct",
                      "display": "Prediabetes"
                    }
                  ]
                }
              ],
              "status": "unknown",
              "description": "Diabetes self management plan",
              "kind": "Appointment"
            }
          }
        ],
        "period": {
          "start": "2022-05-16"
        },
        "goal": [
          {
            "reference": "urn:uuid:e13c9ddb-562d-4714-8717-bdcc31819962"
          },
          {
            "reference": "urn:uuid:f29ae372-4c2f-45d9-8716-8a3e53ce3d20"
          },
          {
            "reference": "urn:uuid:257e7236-521d-438c-ac96-5f9f816e10ff"
          },
          {
            "reference": "urn:uuid:5c48c81f-f13a-4099-b934-9f02425b9ce3"
          }
        ],
        "text": {
          "status": "generated",
          "div": "<div xmlns=\"http://www.w3.org/1999/xhtml\"><table class=\"hl7__ips first25\"><tr><th>Active Planned Care / Goals</th><th>Start Date</th><th>Reason</th></tr><tr><td>Diabetes self management plan</td><td><span class=\"nb\">16-May-2022</span></td><td>Prediabetes</td></tr><tr><td><ul><li>Patient will demonstrate understanding of prediabetes self-management strategies including diet, exercise, and blood glucose monitoring.</li><li>Maintain hemoglobin A1c below 5.7% to prevent progression to diabetes.</li><li>Achieve and maintain at least 5% weight loss from baseline to reduce risk of developing diabetes.</li><li>Engage in at least 150 minutes of moderate-intensity physical activity per week.</li></ul></td><td></td><td></td></tr></table></div>"
        },
        "status": "active",
        "intent": "plan",
        "subject": {
          "reference": "urn:uuid:cfdfc19b-20bf-428b-9034-586535c500ab",
          "display": "Gioele Fabbri"
        }
      }
    },
    {
      "fullUrl": "urn:uuid:3dc1a06e-0111-4083-82a9-1fc09efc8052",
      "resource": {
        "resourceType": "CarePlan",
        "id": "3dc1a06e-0111-4083-82a9-1fc09efc8052",
        "category": [
          {
            "coding": [
              {
                "code": "assess-plan",
                "system": "http://terminology.hl7.org/CodeSystem/care-plan-category",
                "display": "Assessment and Plan"
              }
            ]
          }
        ],
        "activity": [
          {
            "detail": {
              "code": {
                "coding": [
                  {
                    "code": "736285004",
                    "system": "http://snomed.info/sct",
                    "display": "Hyperlipidemia clinical management plan (record artifact)"
                  }
                ]
              },
              "reasonCode": [
                {
                  "coding": [
                    {
                      "code": "55822004",
                      "system": "http://snomed.info/sct",
                      "display": "Hyperlipidemia"
                    }
                  ]
                }
              ],
              "status": "unknown",
              "description": "Hyperlipidemia clinical management plan",
              "kind": "Appointment"
            }
          }
        ],
        "period": {
          "start": "2017-06-12"
        },
        "goal": [
          {
            "reference": "urn:uuid:def51fb9-02a6-47b6-b181-f78968a7a9f0"
          },
          {
            "reference": "urn:uuid:1fbbf721-495d-48c6-bb2f-c116d0ae771e"
          },
          {
            "reference": "urn:uuid:2675e052-48d8-4bda-bd39-435967589511"
          },
          {
            "reference": "urn:uuid:22a9fe46-a9c3-4038-b9e4-39de318c49e8"
          }
        ],
        "text": {
          "status": "generated",
          "div": "<div xmlns=\"http://www.w3.org/1999/xhtml\"><table class=\"hl7__ips first25\"><tr><th>Active Planned Care / Goals</th><th>Start Date</th><th>Reason</th></tr><tr><td>Hyperlipidemia clinical management plan</td><td><span class=\"nb\">12-Jun-2017</span></td><td>Hyperlipidemia</td></tr><tr><td><ul><li>Achieve and maintain LDL cholesterol below 100 mg/dL</li><li>Achieve and maintain total cholesterol below 200 mg/dL</li><li>Achieve and maintain triglycerides below 150 mg/dL</li><li>Achieve and maintain HDL cholesterol above 40 mg/dL</li></ul></td><td></td><td></td></tr></table></div>"
        },
        "status": "active",
        "intent": "plan",
        "subject": {
          "reference": "urn:uuid:cfdfc19b-20bf-428b-9034-586535c500ab",
          "display": "Gioele Fabbri"
        }
      }
    },
    {
      "fullUrl": "urn:uuid:9aaa56fd-3ae2-4638-8a08-27f75c0c70cb",
      "resource": {
        "resourceType": "Observation",
        "id": "9aaa56fd-3ae2-4638-8a08-27f75c0c70cb",
        "meta": {
          "profile": [
            "http://hl7.org/fhir/StructureDefinition/vitalsigns"
          ]
        },
        "category": [
          {
            "coding": [
              {
                "system": "http://terminology.hl7.org/CodeSystem/observation-category",
                "code": "vital-signs",
                "display": "Vital Signs"
              }
            ]
          }
        ],
        "valueQuantity": {
          "value": 177,
          "code": "cm",
          "unit": "cm"
        },
        "text": {
          "status": "generated",
          "div": "<div xmlns=\"http://www.w3.org/1999/xhtml\"><table class=\"hl7__ips\"><tr><th>Vital Sign</th><th>Date</th><th>Measurement</th></tr><tr><td>Body Height</td><td>02-Jun-2025</td><td>177 cm</td></tr></table></div>"
        },
        "status": "final",
        "code": {
          "coding": [
            {
              "code": "$8302-2",
              "system": "http://loinc.org",
              "display": "Body Height"
            }
          ]
        },
        "subject": {
          "reference": "urn:uuid:cfdfc19b-20bf-428b-9034-586535c500ab",
          "display": "Gioele Fabbri"
        },
        "effectiveDateTime": "2025-06-02"
      }
    },
    {
      "fullUrl": "urn:uuid:8af2e43e-8d7f-4d54-8f22-0ed92ddb384c",
      "resource": {
        "resourceType": "Observation",
        "id": "8af2e43e-8d7f-4d54-8f22-0ed92ddb384c",
        "meta": {
          "profile": [
            "http://hl7.org/fhir/StructureDefinition/vitalsigns"
          ]
        },
        "category": [
          {
            "coding": [
              {
                "system": "http://terminology.hl7.org/CodeSystem/observation-category",
                "code": "vital-signs",
                "display": "Vital Signs"
              }
            ]
          }
        ],
        "valueQuantity": {
          "value": 3,
          "code": "{score}",
          "unit": "{score}"
        },
        "text": {
          "status": "generated",
          "div": "<div xmlns=\"http://www.w3.org/1999/xhtml\"><table class=\"hl7__ips\"><tr><th>Vital Sign</th><th>Date</th><th>Measurement</th></tr><tr><td>Pain severity - 0-10 verbal numeric rating [Score] - Reported</td><td>02-Jun-2025</td><td>3 {score}</td></tr></table></div>"
        },
        "status": "final",
        "code": {
          "coding": [
            {
              "code": "$72514-3",
              "system": "http://loinc.org",
              "display": "Pain severity - 0-10 verbal numeric rating [Score] - Reported"
            }
          ]
        },
        "subject": {
          "reference": "urn:uuid:cfdfc19b-20bf-428b-9034-586535c500ab",
          "display": "Gioele Fabbri"
        },
        "effectiveDateTime": "2025-06-02"
      }
    },
    {
      "fullUrl": "urn:uuid:134e5000-0539-4cb3-80fb-49b22730e495",
      "resource": {
        "resourceType": "Observation",
        "id": "134e5000-0539-4cb3-80fb-49b22730e495",
        "meta": {
          "profile": [
            "http://hl7.org/fhir/StructureDefinition/vitalsigns"
          ]
        },
        "category": [
          {
            "coding": [
              {
                "system": "http://terminology.hl7.org/CodeSystem/observation-category",
                "code": "vital-signs",
                "display": "Vital Signs"
              }
            ]
          }
        ],
        "valueQuantity": {
          "value": 87.9,
          "code": "kg",
          "unit": "kg"
        },
        "text": {
          "status": "generated",
          "div": "<div xmlns=\"http://www.w3.org/1999/xhtml\"><table class=\"hl7__ips\"><tr><th>Vital Sign</th><th>Date</th><th>Measurement</th></tr><tr><td>Body Weight</td><td>02-Jun-2025</td><td>87.9 kg</td></tr></table></div>"
        },
        "status": "final",
        "code": {
          "coding": [
            {
              "code": "$29463-7",
              "system": "http://loinc.org",
              "display": "Body Weight"
            }
          ]
        },
        "subject": {
          "reference": "urn:uuid:cfdfc19b-20bf-428b-9034-586535c500ab",
          "display": "Gioele Fabbri"
        },
        "effectiveDateTime": "2025-06-02"
      }
    },
    {
      "fullUrl": "urn:uuid:45827c62-1194-4803-b9c7-37c3ad43e27e",
      "resource": {
        "resourceType": "Observation",
        "id": "45827c62-1194-4803-b9c7-37c3ad43e27e",
        "meta": {
          "profile": [
            "http://hl7.org/fhir/StructureDefinition/vitalsigns"
          ]
        },
        "category": [
          {
            "coding": [
              {
                "system": "http://terminology.hl7.org/CodeSystem/observation-category",
                "code": "vital-signs",
                "display": "Vital Signs"
              }
            ]
          }
        ],
        "valueQuantity": {
          "value": 28.1,
          "code": "kg/m2",
          "unit": "kg/m2"
        },
        "text": {
          "status": "generated",
          "div": "<div xmlns=\"http://www.w3.org/1999/xhtml\"><table class=\"hl7__ips\"><tr><th>Vital Sign</th><th>Date</th><th>Measurement</th></tr><tr><td>Body mass index (BMI) [Ratio]</td><td>02-Jun-2025</td><td>28.1 kg/m2</td></tr></table></div>"
        },
        "status": "final",
        "code": {
          "coding": [
            {
              "code": "$39156-5",
              "system": "http://loinc.org",
              "display": "Body mass index (BMI) [Ratio]"
            }
          ]
        },
        "subject": {
          "reference": "urn:uuid:cfdfc19b-20bf-428b-9034-586535c500ab",
          "display": "Gioele Fabbri"
        },
        "effectiveDateTime": "2025-06-02"
      }
    },
    {
      "fullUrl": "urn:uuid:461686fa-07cc-4d2e-9f54-0b69d65e7330",
      "resource": {
        "resourceType": "Observation",
        "id": "461686fa-07cc-4d2e-9f54-0b69d65e7330",
        "meta": {
          "profile": [
            "http://hl7.org/fhir/StructureDefinition/vitalsigns"
          ]
        },
        "category": [
          {
            "coding": [
              {
                "system": "http://terminology.hl7.org/CodeSystem/observation-category",
                "code": "vital-signs",
                "display": "Vital Signs"
              }
            ]
          }
        ],
        "valueQuantity": {
          "value": 83,
          "code": "mm[Hg]",
          "unit": "mm[Hg]"
        },
        "text": {
          "status": "generated",
          "div": "<div xmlns=\"http://www.w3.org/1999/xhtml\"><table class=\"hl7__ips\"><tr><th>Vital Sign</th><th>Date</th><th>Measurement</th></tr><tr><td>Diastolic Blood Pressure</td><td>02-Jun-2025</td><td>83 mm[Hg]</td></tr></table></div>"
        },
        "status": "final",
        "code": {
          "coding": [
            {
              "code": "$8462-4",
              "system": "http://loinc.org",
              "display": "Diastolic Blood Pressure"
            }
          ]
        },
        "subject": {
          "reference": "urn:uuid:cfdfc19b-20bf-428b-9034-586535c500ab",
          "display": "Gioele Fabbri"
        },
        "effectiveDateTime": "2025-06-02"
      }
    },
    {
      "fullUrl": "urn:uuid:a50be08e-f582-497c-b9fb-c47a8dd1b3d9",
      "resource": {
        "resourceType": "Observation",
        "id": "a50be08e-f582-497c-b9fb-c47a8dd1b3d9",
        "meta": {
          "profile": [
            "http://hl7.org/fhir/StructureDefinition/vitalsigns"
          ]
        },
        "category": [
          {
            "coding": [
              {
                "system": "http://terminology.hl7.org/CodeSystem/observation-category",
                "code": "vital-signs",
                "display": "Vital Signs"
              }
            ]
          }
        ],
        "valueQuantity": {
          "value": 125,
          "code": "mm[Hg]",
          "unit": "mm[Hg]"
        },
        "text": {
          "status": "generated",
          "div": "<div xmlns=\"http://www.w3.org/1999/xhtml\"><table class=\"hl7__ips\"><tr><th>Vital Sign</th><th>Date</th><th>Measurement</th></tr><tr><td>Systolic Blood Pressure</td><td>02-Jun-2025</td><td>125 mm[Hg]</td></tr></table></div>"
        },
        "status": "final",
        "code": {
          "coding": [
            {
              "code": "$8480-6",
              "system": "http://loinc.org",
              "display": "Systolic Blood Pressure"
            }
          ]
        },
        "subject": {
          "reference": "urn:uuid:cfdfc19b-20bf-428b-9034-586535c500ab",
          "display": "Gioele Fabbri"
        },
        "effectiveDateTime": "2025-06-02"
      }
    },
    {
      "fullUrl": "urn:uuid:a3cb40eb-9f87-4b72-a558-2c02b1b3ac39",
      "resource": {
        "resourceType": "Observation",
        "id": "a3cb40eb-9f87-4b72-a558-2c02b1b3ac39",
        "meta": {
          "profile": [
            "http://hl7.org/fhir/StructureDefinition/vitalsigns"
          ]
        },
        "category": [
          {
            "coding": [
              {
                "system": "http://terminology.hl7.org/CodeSystem/observation-category",
                "code": "vital-signs",
                "display": "Vital Signs"
              }
            ]
          }
        ],
        "valueQuantity": {
          "value": 70,
          "code": "/min",
          "unit": "/min"
        },
        "text": {
          "status": "generated",
          "div": "<div xmlns=\"http://www.w3.org/1999/xhtml\"><table class=\"hl7__ips\"><tr><th>Vital Sign</th><th>Date</th><th>Measurement</th></tr><tr><td>Heart rate</td><td>02-Jun-2025</td><td>70 /min</td></tr></table></div>"
        },
        "status": "final",
        "code": {
          "coding": [
            {
              "code": "$8867-4",
              "system": "http://loinc.org",
              "display": "Heart rate"
            }
          ]
        },
        "subject": {
          "reference": "urn:uuid:cfdfc19b-20bf-428b-9034-586535c500ab",
          "display": "Gioele Fabbri"
        },
        "effectiveDateTime": "2025-06-02"
      }
    },
    {
      "fullUrl": "urn:uuid:61f490e2-b4fa-476e-9003-98dbdb9f64dc",
      "resource": {
        "resourceType": "Observation",
        "id": "61f490e2-b4fa-476e-9003-98dbdb9f64dc",
        "meta": {
          "profile": [
            "http://hl7.org/fhir/StructureDefinition/vitalsigns"
          ]
        },
        "category": [
          {
            "coding": [
              {
                "system": "http://terminology.hl7.org/CodeSystem/observation-category",
                "code": "vital-signs",
                "display": "Vital Signs"
              }
            ]
          }
        ],
        "valueQuantity": {
          "value": 15,
          "code": "/min",
          "unit": "/min"
        },
        "text": {
          "status": "generated",
          "div": "<div xmlns=\"http://www.w3.org/1999/xhtml\"><table class=\"hl7__ips\"><tr><th>Vital Sign</th><th>Date</th><th>Measurement</th></tr><tr><td>Respiratory rate</td><td>02-Jun-2025</td><td>15 /min</td></tr></table></div>"
        },
        "status": "final",
        "code": {
          "coding": [
            {
              "code": "$9279-1",
              "system": "http://loinc.org",
              "display": "Respiratory rate"
            }
          ]
        },
        "subject": {
          "reference": "urn:uuid:cfdfc19b-20bf-428b-9034-586535c500ab",
          "display": "Gioele Fabbri"
        },
        "effectiveDateTime": "2025-06-02"
      }
    },
    {
      "fullUrl": "urn:uuid:81fc9531-1b75-41ab-a839-49e7643b6b27",
      "resource": {
        "resourceType": "Observation",
        "id": "81fc9531-1b75-41ab-a839-49e7643b6b27",
        "meta": {
          "profile": [
            "http://hl7.org/fhir/StructureDefinition/vitalsigns"
          ]
        },
        "category": [
          {
            "coding": [
              {
                "system": "http://terminology.hl7.org/CodeSystem/observation-category",
                "code": "vital-signs",
                "display": "Vital Signs"
              }
            ]
          }
        ],
        "valueQuantity": {
          "value": 177,
          "code": "cm",
          "unit": "cm"
        },
        "text": {
          "status": "generated",
          "div": "<div xmlns=\"http://www.w3.org/1999/xhtml\"><table class=\"hl7__ips\"><tr><th>Vital Sign</th><th>Date</th><th>Measurement</th></tr><tr><td>Body Height</td><td>27-May-2024</td><td>177 cm</td></tr></table></div>"
        },
        "status": "final",
        "code": {
          "coding": [
            {
              "code": "$8302-2",
              "system": "http://loinc.org",
              "display": "Body Height"
            }
          ]
        },
        "subject": {
          "reference": "urn:uuid:cfdfc19b-20bf-428b-9034-586535c500ab",
          "display": "Gioele Fabbri"
        },
        "effectiveDateTime": "2024-05-27"
      }
    },
    {
      "fullUrl": "urn:uuid:3f8d316c-627a-4451-9a60-0f38eb267e48",
      "resource": {
        "resourceType": "Observation",
        "id": "3f8d316c-627a-4451-9a60-0f38eb267e48",
        "meta": {
          "profile": [
            "http://hl7.org/fhir/StructureDefinition/vitalsigns"
          ]
        },
        "category": [
          {
            "coding": [
              {
                "system": "http://terminology.hl7.org/CodeSystem/observation-category",
                "code": "vital-signs",
                "display": "Vital Signs"
              }
            ]
          }
        ],
        "valueQuantity": {
          "value": 3,
          "code": "{score}",
          "unit": "{score}"
        },
        "text": {
          "status": "generated",
          "div": "<div xmlns=\"http://www.w3.org/1999/xhtml\"><table class=\"hl7__ips\"><tr><th>Vital Sign</th><th>Date</th><th>Measurement</th></tr><tr><td>Pain severity - 0-10 verbal numeric rating [Score] - Reported</td><td>27-May-2024</td><td>3 {score}</td></tr></table></div>"
        },
        "status": "final",
        "code": {
          "coding": [
            {
              "code": "$72514-3",
              "system": "http://loinc.org",
              "display": "Pain severity - 0-10 verbal numeric rating [Score] - Reported"
            }
          ]
        },
        "subject": {
          "reference": "urn:uuid:cfdfc19b-20bf-428b-9034-586535c500ab",
          "display": "Gioele Fabbri"
        },
        "effectiveDateTime": "2024-05-27"
      }
    },
    {
      "fullUrl": "urn:uuid:f4602bec-0f1b-4543-9ea6-7c01466d4b29",
      "resource": {
        "resourceType": "Observation",
        "id": "f4602bec-0f1b-4543-9ea6-7c01466d4b29",
        "meta": {
          "profile": [
            "http://hl7.org/fhir/StructureDefinition/vitalsigns"
          ]
        },
        "category": [
          {
            "coding": [
              {
                "system": "http://terminology.hl7.org/CodeSystem/observation-category",
                "code": "vital-signs",
                "display": "Vital Signs"
              }
            ]
          }
        ],
        "valueQuantity": {
          "value": 87.9,
          "code": "kg",
          "unit": "kg"
        },
        "text": {
          "status": "generated",
          "div": "<div xmlns=\"http://www.w3.org/1999/xhtml\"><table class=\"hl7__ips\"><tr><th>Vital Sign</th><th>Date</th><th>Measurement</th></tr><tr><td>Body Weight</td><td>27-May-2024</td><td>87.9 kg</td></tr></table></div>"
        },
        "status": "final",
        "code": {
          "coding": [
            {
              "code": "$29463-7",
              "system": "http://loinc.org",
              "display": "Body Weight"
            }
          ]
        },
        "subject": {
          "reference": "urn:uuid:cfdfc19b-20bf-428b-9034-586535c500ab",
          "display": "Gioele Fabbri"
        },
        "effectiveDateTime": "2024-05-27"
      }
    },
    {
      "fullUrl": "urn:uuid:e1be855c-7e74-4df7-a145-d76e1e825467",
      "resource": {
        "resourceType": "Observation",
        "id": "e1be855c-7e74-4df7-a145-d76e1e825467",
        "meta": {
          "profile": [
            "http://hl7.org/fhir/StructureDefinition/vitalsigns"
          ]
        },
        "category": [
          {
            "coding": [
              {
                "system": "http://terminology.hl7.org/CodeSystem/observation-category",
                "code": "vital-signs",
                "display": "Vital Signs"
              }
            ]
          }
        ],
        "valueQuantity": {
          "value": 28.1,
          "code": "kg/m2",
          "unit": "kg/m2"
        },
        "text": {
          "status": "generated",
          "div": "<div xmlns=\"http://www.w3.org/1999/xhtml\"><table class=\"hl7__ips\"><tr><th>Vital Sign</th><th>Date</th><th>Measurement</th></tr><tr><td>Body mass index (BMI) [Ratio]</td><td>27-May-2024</td><td>28.1 kg/m2</td></tr></table></div>"
        },
        "status": "final",
        "code": {
          "coding": [
            {
              "code": "$39156-5",
              "system": "http://loinc.org",
              "display": "Body mass index (BMI) [Ratio]"
            }
          ]
        },
        "subject": {
          "reference": "urn:uuid:cfdfc19b-20bf-428b-9034-586535c500ab",
          "display": "Gioele Fabbri"
        },
        "effectiveDateTime": "2024-05-27"
      }
    },
    {
      "fullUrl": "urn:uuid:db66aade-9b58-4c0e-bbe9-c0806ce07b3c",
      "resource": {
        "resourceType": "Observation",
        "id": "db66aade-9b58-4c0e-bbe9-c0806ce07b3c",
        "meta": {
          "profile": [
            "http://hl7.org/fhir/StructureDefinition/vitalsigns"
          ]
        },
        "category": [
          {
            "coding": [
              {
                "system": "http://terminology.hl7.org/CodeSystem/observation-category",
                "code": "vital-signs",
                "display": "Vital Signs"
              }
            ]
          }
        ],
        "valueQuantity": {
          "value": 84,
          "code": "mm[Hg]",
          "unit": "mm[Hg]"
        },
        "text": {
          "status": "generated",
          "div": "<div xmlns=\"http://www.w3.org/1999/xhtml\"><table class=\"hl7__ips\"><tr><th>Vital Sign</th><th>Date</th><th>Measurement</th></tr><tr><td>Diastolic Blood Pressure</td><td>27-May-2024</td><td>84 mm[Hg]</td></tr></table></div>"
        },
        "status": "final",
        "code": {
          "coding": [
            {
              "code": "$8462-4",
              "system": "http://loinc.org",
              "display": "Diastolic Blood Pressure"
            }
          ]
        },
        "subject": {
          "reference": "urn:uuid:cfdfc19b-20bf-428b-9034-586535c500ab",
          "display": "Gioele Fabbri"
        },
        "effectiveDateTime": "2024-05-27"
      }
    },
    {
      "fullUrl": "urn:uuid:b1e8f851-65fb-4108-94b1-7834f44de0e7",
      "resource": {
        "resourceType": "Observation",
        "id": "b1e8f851-65fb-4108-94b1-7834f44de0e7",
        "meta": {
          "profile": [
            "http://hl7.org/fhir/StructureDefinition/vitalsigns"
          ]
        },
        "category": [
          {
            "coding": [
              {
                "system": "http://terminology.hl7.org/CodeSystem/observation-category",
                "code": "vital-signs",
                "display": "Vital Signs"
              }
            ]
          }
        ],
        "valueQuantity": {
          "value": 123,
          "code": "mm[Hg]",
          "unit": "mm[Hg]"
        },
        "text": {
          "status": "generated",
          "div": "<div xmlns=\"http://www.w3.org/1999/xhtml\"><table class=\"hl7__ips\"><tr><th>Vital Sign</th><th>Date</th><th>Measurement</th></tr><tr><td>Systolic Blood Pressure</td><td>27-May-2024</td><td>123 mm[Hg]</td></tr></table></div>"
        },
        "status": "final",
        "code": {
          "coding": [
            {
              "code": "$8480-6",
              "system": "http://loinc.org",
              "display": "Systolic Blood Pressure"
            }
          ]
        },
        "subject": {
          "reference": "urn:uuid:cfdfc19b-20bf-428b-9034-586535c500ab",
          "display": "Gioele Fabbri"
        },
        "effectiveDateTime": "2024-05-27"
      }
    },
    {
      "fullUrl": "urn:uuid:6b66eabb-f218-4763-9e1e-fe158e1efc8d",
      "resource": {
        "resourceType": "Observation",
        "id": "6b66eabb-f218-4763-9e1e-fe158e1efc8d",
        "meta": {
          "profile": [
            "http://hl7.org/fhir/StructureDefinition/vitalsigns"
          ]
        },
        "category": [
          {
            "coding": [
              {
                "system": "http://terminology.hl7.org/CodeSystem/observation-category",
                "code": "vital-signs",
                "display": "Vital Signs"
              }
            ]
          }
        ],
        "valueQuantity": {
          "value": 80,
          "code": "/min",
          "unit": "/min"
        },
        "text": {
          "status": "generated",
          "div": "<div xmlns=\"http://www.w3.org/1999/xhtml\"><table class=\"hl7__ips\"><tr><th>Vital Sign</th><th>Date</th><th>Measurement</th></tr><tr><td>Heart rate</td><td>27-May-2024</td><td>80 /min</td></tr></table></div>"
        },
        "status": "final",
        "code": {
          "coding": [
            {
              "code": "$8867-4",
              "system": "http://loinc.org",
              "display": "Heart rate"
            }
          ]
        },
        "subject": {
          "reference": "urn:uuid:cfdfc19b-20bf-428b-9034-586535c500ab",
          "display": "Gioele Fabbri"
        },
        "effectiveDateTime": "2024-05-27"
      }
    },
    {
      "fullUrl": "urn:uuid:df72f511-b184-4538-8df4-7a7c17303440",
      "resource": {
        "resourceType": "Observation",
        "id": "df72f511-b184-4538-8df4-7a7c17303440",
        "meta": {
          "profile": [
            "http://hl7.org/fhir/StructureDefinition/vitalsigns"
          ]
        },
        "category": [
          {
            "coding": [
              {
                "system": "http://terminology.hl7.org/CodeSystem/observation-category",
                "code": "vital-signs",
                "display": "Vital Signs"
              }
            ]
          }
        ],
        "valueQuantity": {
          "value": 13,
          "code": "/min",
          "unit": "/min"
        },
        "text": {
          "status": "generated",
          "div": "<div xmlns=\"http://www.w3.org/1999/xhtml\"><table class=\"hl7__ips\"><tr><th>Vital Sign</th><th>Date</th><th>Measurement</th></tr><tr><td>Respiratory rate</td><td>27-May-2024</td><td>13 /min</td></tr></table></div>"
        },
        "status": "final",
        "code": {
          "coding": [
            {
              "code": "$9279-1",
              "system": "http://loinc.org",
              "display": "Respiratory rate"
            }
          ]
        },
        "subject": {
          "reference": "urn:uuid:cfdfc19b-20bf-428b-9034-586535c500ab",
          "display": "Gioele Fabbri"
        },
        "effectiveDateTime": "2024-05-27"
      }
    },
    {
      "fullUrl": "urn:uuid:c9b6b4a0-5ff6-4ef2-a69f-c922fab65120",
      "resource": {
        "resourceType": "Observation",
        "id": "c9b6b4a0-5ff6-4ef2-a69f-c922fab65120",
        "meta": {
          "profile": [
            "http://hl7.eu/fhir/laboratory/StructureDefinition/Observation-resultslab-eu-lab"
          ]
        },
        "performer": [
          {
            "display": "The Central European Lab"
          }
        ],
        "category": [
          {
            "coding": [
              {
                "system": "http://terminology.hl7.org/CodeSystem/observation-category",
                "code": "laboratory"
              }
            ]
          }
        ],
        "code": {
          "coding": [
            {
              "code": "2339-0",
              "system": "http://loinc.org",
              "display": "Glucose [Mass/volume] in Blood"
            }
          ],
          "text": "Glucose [Mass/volume] in Blood"
        },
        "valueQuantity": {
          "system": "http://unitsofmeasure.org",
          "value": 77.7,
          "unit": "mg/dL",
          "code": "mg/dL"
        },
        "referenceRange": [
          {
            "low": {
              "value": 70,
              "code": "mg/dL",
              "system": "http://unitsofmeasure.org"
            }
          },
          {
            "high": {
              "value": 99,
              "code": "mg/dL",
              "system": "http://unitsofmeasure.org"
            }
          }
        ],
        "text": {
          "status": "generated",
          "div": "<div xmlns=\"http://www.w3.org/1999/xhtml\"><table class=\"hl7__eu__lab__report\"><tr><th>Test</th><th>10-Jun-2025</th><th>Reference&#xA0;Range</th><th>Unit</th></tr><tr><td>Glucose [Mass/volume] in Blood</td><td>77.7</td><td>70 - 99</td><td></td><td>mg/dL</td></tr></table></div>"
        },
        "status": "final",
        "subject": {
          "reference": "urn:uuid:cfdfc19b-20bf-428b-9034-586535c500ab",
          "display": "Gioele Fabbri"
        },
        "effectiveDateTime": "2025-06-10T15:46:20Z"
      }
    },
    {
      "fullUrl": "urn:uuid:ebb4617f-6b7c-411a-9194-1cc0d3310530",
      "resource": {
        "resourceType": "Observation",
        "id": "ebb4617f-6b7c-411a-9194-1cc0d3310530",
        "meta": {
          "profile": [
            "http://hl7.eu/fhir/laboratory/StructureDefinition/Observation-resultslab-eu-lab"
          ]
        },
        "performer": [
          {
            "display": "The Central European Lab"
          }
        ],
        "category": [
          {
            "coding": [
              {
                "system": "http://terminology.hl7.org/CodeSystem/observation-category",
                "code": "laboratory"
              }
            ]
          }
        ],
        "code": {
          "coding": [
            {
              "code": "6299-2",
              "system": "http://loinc.org",
              "display": "Urea nitrogen [Mass/volume] in Blood"
            }
          ],
          "text": "Urea nitrogen [Mass/volume] in Blood"
        },
        "valueQuantity": {
          "system": "http://unitsofmeasure.org",
          "value": 11.5,
          "unit": "mg/dL",
          "code": "mg/dL"
        },
        "referenceRange": [
          {
            "low": {
              "value": 7,
              "code": "mg/dL",
              "system": "http://unitsofmeasure.org"
            }
          },
          {
            "high": {
              "value": 20,
              "code": "mg/dL",
              "system": "http://unitsofmeasure.org"
            }
          }
        ],
        "text": {
          "status": "generated",
          "div": "<div xmlns=\"http://www.w3.org/1999/xhtml\"><table class=\"hl7__eu__lab__report\"><tr><th>Test</th><th>10-Jun-2025</th><th>Reference&#xA0;Range</th><th>Unit</th></tr><tr><td>Urea nitrogen [Mass/volume] in Blood</td><td>11.5</td><td>7 - 20</td><td></td><td>mg/dL</td></tr></table></div>"
        },
        "status": "final",
        "subject": {
          "reference": "urn:uuid:cfdfc19b-20bf-428b-9034-586535c500ab",
          "display": "Gioele Fabbri"
        },
        "effectiveDateTime": "2025-06-10T15:46:20Z"
      }
    },
    {
      "fullUrl": "urn:uuid:72f69976-aa68-4f85-8633-1bd178207976",
      "resource": {
        "resourceType": "Observation",
        "id": "72f69976-aa68-4f85-8633-1bd178207976",
        "meta": {
          "profile": [
            "http://hl7.eu/fhir/laboratory/StructureDefinition/Observation-resultslab-eu-lab"
          ]
        },
        "performer": [
          {
            "display": "The Central European Lab"
          }
        ],
        "category": [
          {
            "coding": [
              {
                "system": "http://terminology.hl7.org/CodeSystem/observation-category",
                "code": "laboratory"
              }
            ]
          }
        ],
        "code": {
          "coding": [
            {
              "code": "38483-4",
              "system": "http://loinc.org",
              "display": "Creatinine [Mass/volume] in Blood"
            }
          ],
          "text": "Creatinine [Mass/volume] in Blood"
        },
        "valueQuantity": {
          "system": "http://unitsofmeasure.org",
          "value": 2.8,
          "unit": "mg/dL",
          "code": "mg/dL"
        },
        "referenceRange": [
          {
            "low": {
              "value": 0.7,
              "code": "mg/dL",
              "system": "http://unitsofmeasure.org"
            }
          },
          {
            "high": {
              "value": 1.3,
              "code": "mg/dL",
              "system": "http://unitsofmeasure.org"
            }
          }
        ],
        "interpretation": [
          {
            "coding": [
              {
                "code": "H",
                "system": "http://terminology.hl7.org/CodeSystem/v3-ObservationInterpretation",
                "display": "High"
              }
            ]
          }
        ],
        "text": {
          "status": "generated",
          "div": "<div xmlns=\"http://www.w3.org/1999/xhtml\"><table class=\"hl7__eu__lab__report\"><tr><th>Test</th><th>10-Jun-2025</th><th>Reference&#xA0;Range</th><th>Unit</th></tr><tr><td>Creatinine [Mass/volume] in Blood</td><td>2.8</td><td>0.7 - 1.3</td><td>H</td><td>mg/dL</td></tr></table></div>"
        },
        "status": "final",
        "subject": {
          "reference": "urn:uuid:cfdfc19b-20bf-428b-9034-586535c500ab",
          "display": "Gioele Fabbri"
        },
        "effectiveDateTime": "2025-06-10T15:46:20Z"
      }
    },
    {
      "fullUrl": "urn:uuid:5addd58b-8330-415c-8059-02445ba23040",
      "resource": {
        "resourceType": "Observation",
        "id": "5addd58b-8330-415c-8059-02445ba23040",
        "meta": {
          "profile": [
            "http://hl7.eu/fhir/laboratory/StructureDefinition/Observation-resultslab-eu-lab"
          ]
        },
        "performer": [
          {
            "display": "The Central European Lab"
          }
        ],
        "category": [
          {
            "coding": [
              {
                "system": "http://terminology.hl7.org/CodeSystem/observation-category",
                "code": "laboratory"
              }
            ]
          }
        ],
        "code": {
          "coding": [
            {
              "code": "49765-1",
              "system": "http://loinc.org",
              "display": "Calcium [Mass/volume] in Blood"
            }
          ],
          "text": "Calcium [Mass/volume] in Blood"
        },
        "valueQuantity": {
          "system": "http://unitsofmeasure.org",
          "value": 9.3,
          "unit": "mg/dL",
          "code": "mg/dL"
        },
        "referenceRange": [
          {
            "low": {
              "value": 8.5,
              "code": "mg/dL",
              "system": "http://unitsofmeasure.org"
            }
          },
          {
            "high": {
              "value": 10.5,
              "code": "mg/dL",
              "system": "http://unitsofmeasure.org"
            }
          }
        ],
        "text": {
          "status": "generated",
          "div": "<div xmlns=\"http://www.w3.org/1999/xhtml\"><table class=\"hl7__eu__lab__report\"><tr><th>Test</th><th>10-Jun-2025</th><th>Reference&#xA0;Range</th><th>Unit</th></tr><tr><td>Calcium [Mass/volume] in Blood</td><td>9.3</td><td>8.5 - 10.5</td><td></td><td>mg/dL</td></tr></table></div>"
        },
        "status": "final",
        "subject": {
          "reference": "urn:uuid:cfdfc19b-20bf-428b-9034-586535c500ab",
          "display": "Gioele Fabbri"
        },
        "effectiveDateTime": "2025-06-10T15:46:20Z"
      }
    },
    {
      "fullUrl": "urn:uuid:88d87ddb-f19c-4fc0-9abe-e7adc21e0612",
      "resource": {
        "resourceType": "Observation",
        "id": "88d87ddb-f19c-4fc0-9abe-e7adc21e0612",
        "meta": {
          "profile": [
            "http://hl7.eu/fhir/laboratory/StructureDefinition/Observation-resultslab-eu-lab"
          ]
        },
        "performer": [
          {
            "display": "The Central European Lab"
          }
        ],
        "category": [
          {
            "coding": [
              {
                "system": "http://terminology.hl7.org/CodeSystem/observation-category",
                "code": "laboratory"
              }
            ]
          }
        ],
        "code": {
          "coding": [
            {
              "code": "2947-0",
              "system": "http://loinc.org",
              "display": "Sodium [Moles/volume] in Blood"
            }
          ],
          "text": "Sodium [Moles/volume] in Blood"
        },
        "valueQuantity": {
          "system": "http://unitsofmeasure.org",
          "value": 138.8,
          "unit": "mmol/L",
          "code": "mmol/L"
        },
        "referenceRange": [
          {
            "low": {
              "value": 135,
              "code": "mmol/L",
              "system": "http://unitsofmeasure.org"
            }
          },
          {
            "high": {
              "value": 145,
              "code": "mmol/L",
              "system": "http://unitsofmeasure.org"
            }
          }
        ],
        "text": {
          "status": "generated",
          "div": "<div xmlns=\"http://www.w3.org/1999/xhtml\"><table class=\"hl7__eu__lab__report\"><tr><th>Test</th><th>10-Jun-2025</th><th>Reference&#xA0;Range</th><th>Unit</th></tr><tr><td>Sodium [Moles/volume] in Blood</td><td>138.8</td><td>135 - 145</td><td></td><td>mmol/L</td></tr></table></div>"
        },
        "status": "final",
        "subject": {
          "reference": "urn:uuid:cfdfc19b-20bf-428b-9034-586535c500ab",
          "display": "Gioele Fabbri"
        },
        "effectiveDateTime": "2025-06-10T15:46:20Z"
      }
    },
    {
      "fullUrl": "urn:uuid:a96a1d0c-16fa-4e29-9c7f-f5992ff09008",
      "resource": {
        "resourceType": "Observation",
        "id": "a96a1d0c-16fa-4e29-9c7f-f5992ff09008",
        "meta": {
          "profile": [
            "http://hl7.eu/fhir/laboratory/StructureDefinition/Observation-resultslab-eu-lab"
          ]
        },
        "performer": [
          {
            "display": "The Central European Lab"
          }
        ],
        "category": [
          {
            "coding": [
              {
                "system": "http://terminology.hl7.org/CodeSystem/observation-category",
                "code": "laboratory"
              }
            ]
          }
        ],
        "code": {
          "coding": [
            {
              "code": "6298-4",
              "system": "http://loinc.org",
              "display": "Potassium [Moles/volume] in Blood"
            }
          ],
          "text": "Potassium [Moles/volume] in Blood"
        },
        "valueQuantity": {
          "system": "http://unitsofmeasure.org",
          "value": 4.9,
          "unit": "mmol/L",
          "code": "mmol/L"
        },
        "referenceRange": [
          {
            "low": {
              "value": 3.5,
              "code": "mmol/L",
              "system": "http://unitsofmeasure.org"
            }
          },
          {
            "high": {
              "value": 5,
              "code": "mmol/L",
              "system": "http://unitsofmeasure.org"
            }
          }
        ],
        "text": {
          "status": "generated",
          "div": "<div xmlns=\"http://www.w3.org/1999/xhtml\"><table class=\"hl7__eu__lab__report\"><tr><th>Test</th><th>10-Jun-2025</th><th>Reference&#xA0;Range</th><th>Unit</th></tr><tr><td>Potassium [Moles/volume] in Blood</td><td>4.9</td><td>3.5 - 5</td><td></td><td>mmol/L</td></tr></table></div>"
        },
        "status": "final",
        "subject": {
          "reference": "urn:uuid:cfdfc19b-20bf-428b-9034-586535c500ab",
          "display": "Gioele Fabbri"
        },
        "effectiveDateTime": "2025-06-10T15:46:20Z"
      }
    },
    {
      "fullUrl": "urn:uuid:687aa329-6d49-4906-bbe4-7a732cf5fc6b",
      "resource": {
        "resourceType": "Observation",
        "id": "687aa329-6d49-4906-bbe4-7a732cf5fc6b",
        "meta": {
          "profile": [
            "http://hl7.eu/fhir/laboratory/StructureDefinition/Observation-resultslab-eu-lab"
          ]
        },
        "performer": [
          {
            "display": "The Central European Lab"
          }
        ],
        "category": [
          {
            "coding": [
              {
                "system": "http://terminology.hl7.org/CodeSystem/observation-category",
                "code": "laboratory"
              }
            ]
          }
        ],
        "code": {
          "coding": [
            {
              "code": "2069-3",
              "system": "http://loinc.org",
              "display": "Chloride [Moles/volume] in Blood"
            }
          ],
          "text": "Chloride [Moles/volume] in Blood"
        },
        "valueQuantity": {
          "system": "http://unitsofmeasure.org",
          "value": 101.9,
          "unit": "mmol/L",
          "code": "mmol/L"
        },
        "referenceRange": [
          {
            "low": {
              "value": 98,
              "code": "mmol/L",
              "system": "http://unitsofmeasure.org"
            }
          },
          {
            "high": {
              "value": 107,
              "code": "mmol/L",
              "system": "http://unitsofmeasure.org"
            }
          }
        ],
        "text": {
          "status": "generated",
          "div": "<div xmlns=\"http://www.w3.org/1999/xhtml\"><table class=\"hl7__eu__lab__report\"><tr><th>Test</th><th>10-Jun-2025</th><th>Reference&#xA0;Range</th><th>Unit</th></tr><tr><td>Chloride [Moles/volume] in Blood</td><td>101.9</td><td>98 - 107</td><td></td><td>mmol/L</td></tr></table></div>"
        },
        "status": "final",
        "subject": {
          "reference": "urn:uuid:cfdfc19b-20bf-428b-9034-586535c500ab",
          "display": "Gioele Fabbri"
        },
        "effectiveDateTime": "2025-06-10T15:46:20Z"
      }
    },
    {
      "fullUrl": "urn:uuid:439c0536-3f00-4b20-a059-456a20f6def3",
      "resource": {
        "resourceType": "Observation",
        "id": "439c0536-3f00-4b20-a059-456a20f6def3",
        "meta": {
          "profile": [
            "http://hl7.eu/fhir/laboratory/StructureDefinition/Observation-resultslab-eu-lab"
          ]
        },
        "performer": [
          {
            "display": "The Central European Lab"
          }
        ],
        "category": [
          {
            "coding": [
              {
                "system": "http://terminology.hl7.org/CodeSystem/observation-category",
                "code": "laboratory"
              }
            ]
          }
        ],
        "code": {
          "coding": [
            {
              "code": "20565-8",
              "system": "http://loinc.org",
              "display": "Carbon dioxide, total [Moles/volume] in Blood"
            }
          ],
          "text": "Carbon dioxide, total [Moles/volume] in Blood"
        },
        "valueQuantity": {
          "system": "http://unitsofmeasure.org",
          "value": 27.5,
          "unit": "mmol/L",
          "code": "mmol/L"
        },
        "referenceRange": [
          {
            "low": {
              "value": 24,
              "code": "mmol/L",
              "system": "http://unitsofmeasure.org"
            }
          },
          {
            "high": {
              "value": 29,
              "code": "mmol/L",
              "system": "http://unitsofmeasure.org"
            }
          }
        ],
        "text": {
          "status": "generated",
          "div": "<div xmlns=\"http://www.w3.org/1999/xhtml\"><table class=\"hl7__eu__lab__report\"><tr><th>Test</th><th>10-Jun-2025</th><th>Reference&#xA0;Range</th><th>Unit</th></tr><tr><td>Carbon dioxide, total [Moles/volume] in Blood</td><td>27.5</td><td>24 - 29</td><td></td><td>mmol/L</td></tr></table></div>"
        },
        "status": "final",
        "subject": {
          "reference": "urn:uuid:cfdfc19b-20bf-428b-9034-586535c500ab",
          "display": "Gioele Fabbri"
        },
        "effectiveDateTime": "2025-06-10T15:46:20Z"
      }
    },
    {
      "fullUrl": "urn:uuid:bd5f519b-3bf2-414d-b8b5-486aa04c3607",
      "resource": {
        "resourceType": "Observation",
        "id": "bd5f519b-3bf2-414d-b8b5-486aa04c3607",
        "meta": {
          "profile": [
            "http://hl7.eu/fhir/laboratory/StructureDefinition/Observation-resultslab-eu-lab"
          ]
        },
        "performer": [
          {
            "display": "The Central European Lab"
          }
        ],
        "category": [
          {
            "coding": [
              {
                "system": "http://terminology.hl7.org/CodeSystem/observation-category",
                "code": "laboratory"
              }
            ]
          }
        ],
        "code": {
          "coding": [
            {
              "code": "2885-2",
              "system": "http://loinc.org",
              "display": "Protein [Mass/volume] in Serum or Plasma"
            }
          ],
          "text": "Protein [Mass/volume] in Serum or Plasma"
        },
        "valueQuantity": {
          "system": "http://unitsofmeasure.org",
          "value": 6.2,
          "unit": "g/dL",
          "code": "g/dL"
        },
        "referenceRange": [
          {
            "low": {
              "value": 6.6,
              "code": "g/dL",
              "system": "http://unitsofmeasure.org"
            }
          },
          {
            "high": {
              "value": 8.3,
              "code": "g/dL",
              "system": "http://unitsofmeasure.org"
            }
          }
        ],
        "interpretation": [
          {
            "coding": [
              {
                "code": "L",
                "system": "http://terminology.hl7.org/CodeSystem/v3-ObservationInterpretation",
                "display": "Low"
              }
            ]
          }
        ],
        "text": {
          "status": "generated",
          "div": "<div xmlns=\"http://www.w3.org/1999/xhtml\"><table class=\"hl7__eu__lab__report\"><tr><th>Test</th><th>10-Jun-2025</th><th>Reference&#xA0;Range</th><th>Unit</th></tr><tr><td>Protein [Mass/volume] in Serum or Plasma</td><td>6.2</td><td>6.6 - 8.3</td><td>L</td><td>g/dL</td></tr></table></div>"
        },
        "status": "final",
        "subject": {
          "reference": "urn:uuid:cfdfc19b-20bf-428b-9034-586535c500ab",
          "display": "Gioele Fabbri"
        },
        "effectiveDateTime": "2025-06-10T15:46:20Z"
      }
    },
    {
      "fullUrl": "urn:uuid:6218efaf-dbdc-4af7-a2bf-800048140880",
      "resource": {
        "resourceType": "Observation",
        "id": "6218efaf-dbdc-4af7-a2bf-800048140880",
        "meta": {
          "profile": [
            "http://hl7.eu/fhir/laboratory/StructureDefinition/Observation-resultslab-eu-lab"
          ]
        },
        "performer": [
          {
            "display": "The Central European Lab"
          }
        ],
        "category": [
          {
            "coding": [
              {
                "system": "http://terminology.hl7.org/CodeSystem/observation-category",
                "code": "laboratory"
              }
            ]
          }
        ],
        "code": {
          "coding": [
            {
              "code": "1751-7",
              "system": "http://loinc.org",
              "display": "Albumin [Mass/volume] in Serum or Plasma"
            }
          ],
          "text": "Albumin [Mass/volume] in Serum or Plasma"
        },
        "valueQuantity": {
          "system": "http://unitsofmeasure.org",
          "value": 3.8,
          "unit": "g/dL",
          "code": "g/dL"
        },
        "referenceRange": [
          {
            "low": {
              "value": 3.5,
              "code": "g/dL",
              "system": "http://unitsofmeasure.org"
            }
          },
          {
            "high": {
              "value": 5.5,
              "code": "g/dL",
              "system": "http://unitsofmeasure.org"
            }
          }
        ],
        "text": {
          "status": "generated",
          "div": "<div xmlns=\"http://www.w3.org/1999/xhtml\"><table class=\"hl7__eu__lab__report\"><tr><th>Test</th><th>10-Jun-2025</th><th>Reference&#xA0;Range</th><th>Unit</th></tr><tr><td>Albumin [Mass/volume] in Serum or Plasma</td><td>3.8</td><td>3.5 - 5.5</td><td></td><td>g/dL</td></tr></table></div>"
        },
        "status": "final",
        "subject": {
          "reference": "urn:uuid:cfdfc19b-20bf-428b-9034-586535c500ab",
          "display": "Gioele Fabbri"
        },
        "effectiveDateTime": "2025-06-10T15:46:20Z"
      }
    },
    {
      "fullUrl": "urn:uuid:93ef3c79-0d40-44ad-bdcf-b74220c54435",
      "resource": {
        "resourceType": "Observation",
        "id": "93ef3c79-0d40-44ad-bdcf-b74220c54435",
        "meta": {
          "profile": [
            "http://hl7.eu/fhir/laboratory/StructureDefinition/Observation-resultslab-eu-lab"
          ]
        },
        "performer": [
          {
            "display": "The Central European Lab"
          }
        ],
        "category": [
          {
            "coding": [
              {
                "system": "http://terminology.hl7.org/CodeSystem/observation-category",
                "code": "laboratory"
              }
            ]
          }
        ],
        "code": {
          "coding": [
            {
              "code": "10834-0",
              "system": "http://loinc.org",
              "display": "Globulin [Mass/volume] in Serum by calculation"
            }
          ],
          "text": "Globulin [Mass/volume] in Serum by calculation"
        },
        "valueQuantity": {
          "system": "http://unitsofmeasure.org",
          "value": 3.4,
          "unit": "g/L",
          "code": "g/L"
        },
        "referenceRange": [
          {
            "low": {
              "value": 2,
              "code": "g/L",
              "system": "http://unitsofmeasure.org"
            }
          },
          {
            "high": {
              "value": 3.5,
              "code": "g/L",
              "system": "http://unitsofmeasure.org"
            }
          }
        ],
        "text": {
          "status": "generated",
          "div": "<div xmlns=\"http://www.w3.org/1999/xhtml\"><table class=\"hl7__eu__lab__report\"><tr><th>Test</th><th>10-Jun-2025</th><th>Reference&#xA0;Range</th><th>Unit</th></tr><tr><td>Globulin [Mass/volume] in Serum by calculation</td><td>3.4</td><td>2 - 3.5</td><td></td><td>g/L</td></tr></table></div>"
        },
        "status": "final",
        "subject": {
          "reference": "urn:uuid:cfdfc19b-20bf-428b-9034-586535c500ab",
          "display": "Gioele Fabbri"
        },
        "effectiveDateTime": "2025-06-10T15:46:20Z"
      }
    },
    {
      "fullUrl": "urn:uuid:f9c12403-2de5-448e-8600-5f005113797c",
      "resource": {
        "resourceType": "Observation",
        "id": "f9c12403-2de5-448e-8600-5f005113797c",
        "meta": {
          "profile": [
            "http://hl7.eu/fhir/laboratory/StructureDefinition/Observation-resultslab-eu-lab"
          ]
        },
        "performer": [
          {
            "display": "The Central European Lab"
          }
        ],
        "category": [
          {
            "coding": [
              {
                "system": "http://terminology.hl7.org/CodeSystem/observation-category",
                "code": "laboratory"
              }
            ]
          }
        ],
        "code": {
          "coding": [
            {
              "code": "1975-2",
              "system": "http://loinc.org",
              "display": "Bilirubin.total [Mass/volume] in Serum or Plasma"
            }
          ],
          "text": "Bilirubin.total [Mass/volume] in Serum or Plasma"
        },
        "valueQuantity": {
          "system": "http://unitsofmeasure.org",
          "value": 0.6,
          "unit": "mg/dL",
          "code": "mg/dL"
        },
        "referenceRange": [
          {
            "low": {
              "value": 0.3,
              "code": "mg/dL",
              "system": "http://unitsofmeasure.org"
            }
          },
          {
            "high": {
              "value": 1.2,
              "code": "mg/dL",
              "system": "http://unitsofmeasure.org"
            }
          }
        ],
        "text": {
          "status": "generated",
          "div": "<div xmlns=\"http://www.w3.org/1999/xhtml\"><table class=\"hl7__eu__lab__report\"><tr><th>Test</th><th>10-Jun-2025</th><th>Reference&#xA0;Range</th><th>Unit</th></tr><tr><td>Bilirubin.total [Mass/volume] in Serum or Plasma</td><td>0.6</td><td>0.3 - 1.2</td><td></td><td>mg/dL</td></tr></table></div>"
        },
        "status": "final",
        "subject": {
          "reference": "urn:uuid:cfdfc19b-20bf-428b-9034-586535c500ab",
          "display": "Gioele Fabbri"
        },
        "effectiveDateTime": "2025-06-10T15:46:20Z"
      }
    },
    {
      "fullUrl": "urn:uuid:f0767133-4cc4-4470-8b7b-0911fd205c59",
      "resource": {
        "resourceType": "Observation",
        "id": "f0767133-4cc4-4470-8b7b-0911fd205c59",
        "meta": {
          "profile": [
            "http://hl7.eu/fhir/laboratory/StructureDefinition/Observation-resultslab-eu-lab"
          ]
        },
        "performer": [
          {
            "display": "The Central European Lab"
          }
        ],
        "category": [
          {
            "coding": [
              {
                "system": "http://terminology.hl7.org/CodeSystem/observation-category",
                "code": "laboratory"
              }
            ]
          }
        ],
        "code": {
          "coding": [
            {
              "code": "6768-6",
              "system": "http://loinc.org",
              "display": "Alkaline phosphatase [Enzymatic activity/volume] in Serum or Plasma"
            }
          ],
          "text": "Alkaline phosphatase [Enzymatic activity/volume] in Serum or Plasma"
        },
        "valueQuantity": {
          "system": "http://unitsofmeasure.org",
          "value": 65.3,
          "unit": "U/L",
          "code": "U/L"
        },
        "referenceRange": [
          {
            "low": {
              "value": 39,
              "code": "U/L",
              "system": "http://unitsofmeasure.org"
            }
          },
          {
            "high": {
              "value": 136,
              "code": "U/L",
              "system": "http://unitsofmeasure.org"
            }
          }
        ],
        "text": {
          "status": "generated",
          "div": "<div xmlns=\"http://www.w3.org/1999/xhtml\"><table class=\"hl7__eu__lab__report\"><tr><th>Test</th><th>10-Jun-2025</th><th>Reference&#xA0;Range</th><th>Unit</th></tr><tr><td>Alkaline phosphatase [Enzymatic activity/volume] in Serum or Plasma</td><td>65.3</td><td>39 - 136</td><td></td><td>U/L</td></tr></table></div>"
        },
        "status": "final",
        "subject": {
          "reference": "urn:uuid:cfdfc19b-20bf-428b-9034-586535c500ab",
          "display": "Gioele Fabbri"
        },
        "effectiveDateTime": "2025-06-10T15:46:20Z"
      }
    },
    {
      "fullUrl": "urn:uuid:1983f1cc-d37d-40c4-bd9f-4a476c585551",
      "resource": {
        "resourceType": "Observation",
        "id": "1983f1cc-d37d-40c4-bd9f-4a476c585551",
        "meta": {
          "profile": [
            "http://hl7.eu/fhir/laboratory/StructureDefinition/Observation-resultslab-eu-lab"
          ]
        },
        "performer": [
          {
            "display": "The Central European Lab"
          }
        ],
        "category": [
          {
            "coding": [
              {
                "system": "http://terminology.hl7.org/CodeSystem/observation-category",
                "code": "laboratory"
              }
            ]
          }
        ],
        "code": {
          "coding": [
            {
              "code": "1742-6",
              "system": "http://loinc.org",
              "display": "Alanine aminotransferase [Enzymatic activity/volume] in Serum or Plasma"
            }
          ],
          "text": "Alanine aminotransferase [Enzymatic activity/volume] in Serum or Plasma"
        },
        "valueQuantity": {
          "system": "http://unitsofmeasure.org",
          "value": 40.7,
          "unit": "U/L",
          "code": "U/L"
        },
        "referenceRange": [
          {
            "low": {
              "value": 7,
              "code": "U/L",
              "system": "http://unitsofmeasure.org"
            }
          },
          {
            "high": {
              "value": 52,
              "code": "U/L",
              "system": "http://unitsofmeasure.org"
            }
          }
        ],
        "text": {
          "status": "generated",
          "div": "<div xmlns=\"http://www.w3.org/1999/xhtml\"><table class=\"hl7__eu__lab__report\"><tr><th>Test</th><th>10-Jun-2025</th><th>Reference&#xA0;Range</th><th>Unit</th></tr><tr><td>Alanine aminotransferase [Enzymatic activity/volume] in Serum or Plasma</td><td>40.7</td><td>7 - 52</td><td></td><td>U/L</td></tr></table></div>"
        },
        "status": "final",
        "subject": {
          "reference": "urn:uuid:cfdfc19b-20bf-428b-9034-586535c500ab",
          "display": "Gioele Fabbri"
        },
        "effectiveDateTime": "2025-06-10T15:46:20Z"
      }
    },
    {
      "fullUrl": "urn:uuid:772c19c2-ed1b-4e34-8f8c-ed4cbb285ce8",
      "resource": {
        "resourceType": "Observation",
        "id": "772c19c2-ed1b-4e34-8f8c-ed4cbb285ce8",
        "meta": {
          "profile": [
            "http://hl7.eu/fhir/laboratory/StructureDefinition/Observation-resultslab-eu-lab"
          ]
        },
        "performer": [
          {
            "display": "The Central European Lab"
          }
        ],
        "category": [
          {
            "coding": [
              {
                "system": "http://terminology.hl7.org/CodeSystem/observation-category",
                "code": "laboratory"
              }
            ]
          }
        ],
        "code": {
          "coding": [
            {
              "code": "1920-8",
              "system": "http://loinc.org",
              "display": "Aspartate aminotransferase [Enzymatic activity/volume] in Serum or Plasma"
            }
          ],
          "text": "Aspartate aminotransferase [Enzymatic activity/volume] in Serum or Plasma"
        },
        "valueQuantity": {
          "system": "http://unitsofmeasure.org",
          "value": 12.3,
          "unit": "U/L",
          "code": "U/L"
        },
        "referenceRange": [
          {
            "low": {
              "value": 10,
              "code": "U/L",
              "system": "http://unitsofmeasure.org"
            }
          },
          {
            "high": {
              "value": 40,
              "code": "U/L",
              "system": "http://unitsofmeasure.org"
            }
          }
        ],
        "text": {
          "status": "generated",
          "div": "<div xmlns=\"http://www.w3.org/1999/xhtml\"><table class=\"hl7__eu__lab__report\"><tr><th>Test</th><th>10-Jun-2025</th><th>Reference&#xA0;Range</th><th>Unit</th></tr><tr><td>Aspartate aminotransferase [Enzymatic activity/volume] in Serum or Plasma</td><td>12.3</td><td>10 - 40</td><td></td><td>U/L</td></tr></table></div>"
        },
        "status": "final",
        "subject": {
          "reference": "urn:uuid:cfdfc19b-20bf-428b-9034-586535c500ab",
          "display": "Gioele Fabbri"
        },
        "effectiveDateTime": "2025-06-10T15:46:20Z"
      }
    },
    {
      "fullUrl": "urn:uuid:f3aad0d4-e481-4fd8-a696-767411f6a84b",
      "resource": {
        "resourceType": "Observation",
        "id": "f3aad0d4-e481-4fd8-a696-767411f6a84b",
        "meta": {
          "profile": [
            "http://hl7.eu/fhir/laboratory/StructureDefinition/Observation-resultslab-eu-lab"
          ]
        },
        "performer": [
          {
            "display": "The Central European Lab"
          }
        ],
        "category": [
          {
            "coding": [
              {
                "system": "http://terminology.hl7.org/CodeSystem/observation-category",
                "code": "laboratory"
              }
            ]
          }
        ],
        "code": {
          "coding": [
            {
              "code": "2093-3",
              "system": "http://loinc.org",
              "display": "Cholesterol [Mass/volume] in Serum or Plasma"
            }
          ],
          "text": "Cholesterol [Mass/volume] in Serum or Plasma"
        },
        "valueQuantity": {
          "system": "http://unitsofmeasure.org",
          "value": 200.4,
          "unit": "mg/dL",
          "code": "mg/dL"
        },
        "referenceRange": [
          {
            "low": {
              "value": 125,
              "code": "mg/dL",
              "system": "http://unitsofmeasure.org"
            }
          },
          {
            "high": {
              "value": 200,
              "code": "mg/dL",
              "system": "http://unitsofmeasure.org"
            }
          }
        ],
        "interpretation": [
          {
            "coding": [
              {
                "code": "H",
                "system": "http://terminology.hl7.org/CodeSystem/v3-ObservationInterpretation",
                "display": "High"
              }
            ]
          }
        ],
        "text": {
          "status": "generated",
          "div": "<div xmlns=\"http://www.w3.org/1999/xhtml\"><table class=\"hl7__eu__lab__report\"><tr><th>Test</th><th>10-Jun-2025</th><th>Reference&#xA0;Range</th><th>Unit</th></tr><tr><td>Cholesterol [Mass/volume] in Serum or Plasma</td><td>200.4</td><td>125 - 200</td><td>H</td><td>mg/dL</td></tr></table></div>"
        },
        "status": "final",
        "subject": {
          "reference": "urn:uuid:cfdfc19b-20bf-428b-9034-586535c500ab",
          "display": "Gioele Fabbri"
        },
        "effectiveDateTime": "2025-06-10T15:46:20Z"
      }
    },
    {
      "fullUrl": "urn:uuid:9f008e36-dfa2-406f-952d-eb65e6e7b4d5",
      "resource": {
        "resourceType": "Observation",
        "id": "9f008e36-dfa2-406f-952d-eb65e6e7b4d5",
        "meta": {
          "profile": [
            "http://hl7.eu/fhir/laboratory/StructureDefinition/Observation-resultslab-eu-lab"
          ]
        },
        "performer": [
          {
            "display": "The Central European Lab"
          }
        ],
        "category": [
          {
            "coding": [
              {
                "system": "http://terminology.hl7.org/CodeSystem/observation-category",
                "code": "laboratory"
              }
            ]
          }
        ],
        "code": {
          "coding": [
            {
              "code": "2571-8",
              "system": "http://loinc.org",
              "display": "Triglyceride [Mass/volume] in Serum or Plasma"
            }
          ],
          "text": "Triglyceride [Mass/volume] in Serum or Plasma"
        },
        "valueQuantity": {
          "system": "http://unitsofmeasure.org",
          "value": 100.5,
          "unit": "mg/dL",
          "code": "mg/dL"
        },
        "referenceRange": [
          {
            "low": {
              "value": 0,
              "code": "mg/dL",
              "system": "http://unitsofmeasure.org"
            }
          },
          {
            "high": {
              "value": 150,
              "code": "mg/dL",
              "system": "http://unitsofmeasure.org"
            }
          }
        ],
        "text": {
          "status": "generated",
          "div": "<div xmlns=\"http://www.w3.org/1999/xhtml\"><table class=\"hl7__eu__lab__report\"><tr><th>Test</th><th>10-Jun-2025</th><th>Reference&#xA0;Range</th><th>Unit</th></tr><tr><td>Triglyceride [Mass/volume] in Serum or Plasma</td><td>100.5</td><td>0 - 150</td><td></td><td>mg/dL</td></tr></table></div>"
        },
        "status": "final",
        "subject": {
          "reference": "urn:uuid:cfdfc19b-20bf-428b-9034-586535c500ab",
          "display": "Gioele Fabbri"
        },
        "effectiveDateTime": "2025-06-10T15:46:20Z"
      }
    },
    {
      "fullUrl": "urn:uuid:27471183-45c0-4892-bd4f-a780482c5c67",
      "resource": {
        "resourceType": "Observation",
        "id": "27471183-45c0-4892-bd4f-a780482c5c67",
        "meta": {
          "profile": [
            "http://hl7.eu/fhir/laboratory/StructureDefinition/Observation-resultslab-eu-lab"
          ]
        },
        "performer": [
          {
            "display": "The Central European Lab"
          }
        ],
        "category": [
          {
            "coding": [
              {
                "system": "http://terminology.hl7.org/CodeSystem/observation-category",
                "code": "laboratory"
              }
            ]
          }
        ],
        "code": {
          "coding": [
            {
              "code": "18262-6",
              "system": "http://loinc.org",
              "display": "Cholesterol in LDL [Mass/volume] in Serum or Plasma by Direct assay"
            }
          ],
          "text": "Cholesterol in LDL [Mass/volume] in Serum or Plasma by Direct assay"
        },
        "valueQuantity": {
          "system": "http://unitsofmeasure.org",
          "value": 106.5,
          "unit": "mg/dL",
          "code": "mg/dL"
        },
        "referenceRange": [
          {
            "low": {
              "value": 0,
              "code": "mg/dL",
              "system": "http://unitsofmeasure.org"
            }
          },
          {
            "high": {
              "value": 130,
              "code": "mg/dL",
              "system": "http://unitsofmeasure.org"
            }
          }
        ],
        "text": {
          "status": "generated",
          "div": "<div xmlns=\"http://www.w3.org/1999/xhtml\"><table class=\"hl7__eu__lab__report\"><tr><th>Test</th><th>10-Jun-2025</th><th>Reference&#xA0;Range</th><th>Unit</th></tr><tr><td>Cholesterol in LDL [Mass/volume] in Serum or Plasma by Direct assay</td><td>106.5</td><td>0 - 130</td><td></td><td>mg/dL</td></tr></table></div>"
        },
        "status": "final",
        "subject": {
          "reference": "urn:uuid:cfdfc19b-20bf-428b-9034-586535c500ab",
          "display": "Gioele Fabbri"
        },
        "effectiveDateTime": "2025-06-10T15:46:20Z"
      }
    },
    {
      "fullUrl": "urn:uuid:fcf68ea9-fe79-41fa-a788-ec2bbd4144b7",
      "resource": {
        "resourceType": "Observation",
        "id": "fcf68ea9-fe79-41fa-a788-ec2bbd4144b7",
        "meta": {
          "profile": [
            "http://hl7.eu/fhir/laboratory/StructureDefinition/Observation-resultslab-eu-lab"
          ]
        },
        "performer": [
          {
            "display": "The Central European Lab"
          }
        ],
        "category": [
          {
            "coding": [
              {
                "system": "http://terminology.hl7.org/CodeSystem/observation-category",
                "code": "laboratory"
              }
            ]
          }
        ],
        "code": {
          "coding": [
            {
              "code": "2085-9",
              "system": "http://loinc.org",
              "display": "Cholesterol in HDL [Mass/volume] in Serum or Plasma"
            }
          ],
          "text": "Cholesterol in HDL [Mass/volume] in Serum or Plasma"
        },
        "valueQuantity": {
          "system": "http://unitsofmeasure.org",
          "value": 31.4,
          "unit": "mg/dL",
          "code": "mg/dL"
        },
        "referenceRange": [
          {
            "low": {
              "value": 40,
              "code": "mg/dL",
              "system": "http://unitsofmeasure.org"
            }
          },
          {
            "high": {
              "value": 100,
              "code": "mg/dL",
              "system": "http://unitsofmeasure.org"
            }
          }
        ],
        "interpretation": [
          {
            "coding": [
              {
                "code": "L",
                "system": "http://terminology.hl7.org/CodeSystem/v3-ObservationInterpretation",
                "display": "Low"
              }
            ]
          }
        ],
        "text": {
          "status": "generated",
          "div": "<div xmlns=\"http://www.w3.org/1999/xhtml\"><table class=\"hl7__eu__lab__report\"><tr><th>Test</th><th>10-Jun-2025</th><th>Reference&#xA0;Range</th><th>Unit</th></tr><tr><td>Cholesterol in HDL [Mass/volume] in Serum or Plasma</td><td>31.4</td><td>40 - 100</td><td>L</td><td>mg/dL</td></tr></table></div>"
        },
        "status": "final",
        "subject": {
          "reference": "urn:uuid:cfdfc19b-20bf-428b-9034-586535c500ab",
          "display": "Gioele Fabbri"
        },
        "effectiveDateTime": "2025-06-10T15:46:20Z"
      }
    },
    {
      "fullUrl": "urn:uuid:13383900-f80e-427e-895e-5d30787f240f",
      "resource": {
        "resourceType": "DeviceUseStatement",
        "id": "13383900-f80e-427e-895e-5d30787f240f",
        "meta": {
          "profile": [
            "http://hl7.eu/fhir/eps/StructureDefinition/deviceUseStatement-eu-eps"
          ]
        },
        "timingPeriod": {
          "start": "2022-05-16"
        },
        "text": {
          "status": "generated",
          "div": "<div xmlns=\"http://www.w3.org/1999/xhtml\"><table class=\"hl7__ips\"><tr><td>Blood glucose meter (physical object)</td><td><span class=\"nb\">16-May-2022</span></td></tr></table></div>"
        },
        "status": "active",
        "device": {
          "reference": "urn:uuid:1358c654-a803-4f30-912a-b07ae5cfb801",
          "display": "Blood glucose meter (physical object)"
        },
        "subject": {
          "reference": "urn:uuid:cfdfc19b-20bf-428b-9034-586535c500ab",
          "display": "Gioele Fabbri"
        }
      }
    },
    {
      "fullUrl": "urn:uuid:1358c654-a803-4f30-912a-b07ae5cfb801",
      "resource": {
        "resourceType": "Device",
        "id": "1358c654-a803-4f30-912a-b07ae5cfb801",
        "meta": {
          "profile": [
            "http://hl7.eu/fhir/eps/StructureDefinition/device-eu-eps"
          ]
        },
        "udiCarrier": [
          {
            "id": "(01)70542411763361(11)220425(17)470510(10)643244861837879881(21)9882650830532113"
          }
        ],
        "status": "active",
        "patient": {
          "reference": "urn:uuid:cfdfc19b-20bf-428b-9034-586535c500ab",
          "display": "Gioele Fabbri"
        },
        "type": {
          "coding": [
            {
              "code": "337414009",
              "system": "http://snomed.info/sct",
              "display": "Blood glucose meter (physical object)"
            }
          ]
        }
      }
    },
    {
      "fullUrl": "urn:uuid:008879aa-a619-4954-b2f7-6fac024b27a3",
      "resource": {
        "resourceType": "Device",
        "id": "008879aa-a619-4954-b2f7-6fac024b27a3",
        "deviceName": [
          {
            "name": "SYNDERAI Synthetic Generator",
            "type": "manufacturer-name"
          }
        ],
        "version": [
          {
            "value": "5.0"
          }
        ],
        "text": {
          "status": "generated",
          "div": "<div xmlns=\"http://www.w3.org/1999/xhtml\">SYNDERAI Synthetic Generator v5.0</div>"
        },
        "status": "active\"",
        "distinctIdentifier": "synderai-generator-50",
        "manufacturer": "SYNDERAI Project"
      }
    },
    {
      "fullUrl": "urn:uuid:570c0334-719e-44e2-8660-94deefa69429",
      "resource": {
        "resourceType": "Provenance",
        "id": "570c0334-719e-44e2-8660-94deefa69429",
        "target": [
          {
            "reference": "Patient/cfdfc19b-20bf-428b-9034-586535c500ab"
          },
          {
            "reference": "Bundle/5643b57b-d9a5-4d4c-a7eb-4b7f574f8de4"
          },
          {
            "reference": "Composition/47eda489-dd51-4977-93ee-68af296a8bec"
          },
          {
            "reference": "PractitionerRole/cfea9a97-e881-4589-9c3b-3b32ab6bf174"
          },
          {
            "reference": "Organization/88b03ba0-6540-43fb-8946-05bc81d8fbc3"
          },
          {
            "reference": "Practitioner/acefdfac-3d42-4cfe-8c84-7251168a5091"
          }
        ],
        "activity": {
          "text": "Synthetic Example Data Generation"
        },
        "policy": [
          "https://synderai.net/synderai-synthetic-data-policy"
        ],
        "agent": [
          {
            "type": {
              "text": "author"
            },
            "who": {
              "reference": "Device/008879aa-a619-4954-b2f7-6fac024b27a3"
            }
          }
        ],
        "reason": [
          {
            "text": "Interoperability Testing and Training (non-clinical use)"
          }
        ],
        "text": {
          "status": "generated",
          "div": "<div xmlns=\"http://www.w3.org/1999/xhtml\">Provenance for SYNDERAI Synthetic Example Data Resource</div>"
        },
        "recorded": "2025-06-10T15:46:20Z"
      }
    }
  ],
  "type": "document",
  "timestamp": "2025-06-10T15:46:20Z"
}
