{
  "resourceType": "Bundle",
  "id": "12d62271-5bdd-4567-9d05-581f03e5fb98",
  "meta": {
    "profile": [
      "http://hl7.eu/fhir/eps/StructureDefinition/bundle-eu-eps"
    ]
  },
  "identifier": {
    "assigner": {
      "display": "HL7 Europe"
    },
    "system": "urn:oid:2.16.840.1.113883.2.51.999",
    "value": "5a3baa38-e8c9-4a30-9acd-36a143d48d58"
  },
  "entry": [
    {
      "fullUrl": "urn:uuid:f279d99a-114d-452d-bc88-4949d4d93a73",
      "resource": {
        "resourceType": "Composition",
        "id": "f279d99a-114d-452d-bc88-4949d4d93a73",
        "meta": {
          "security": [
            {
              "system": "http://terminology.hl7.org/CodeSystem/v3-ActReason",
              "code": "HTEST"
            },
            {
              "system": "http://terminology.hl7.org/CodeSystem/v3-ActReason",
              "code": "TRAIN"
            }
          ],
          "tag": [
            {
              "system": "https://synderai.net/fhir/CodeSystem/tags",
              "code": "synthetic",
              "display": "SYNDERAI Synthetic data"
            }
          ],
          "profile": [
            "http://hl7.eu/fhir/eps/StructureDefinition/composition-eu-eps"
          ]
        },
        "identifier": {
          "assigner": {
            "display": "HL7 Europe"
          },
          "system": "urn:oid:2.16.840.1.113883.2.51.999",
          "value": "aeb14a3c-6896-4d04-8b2c-83f5119abf74"
        },
        "type": {
          "coding": [
            {
              "system": "http://loinc.org",
              "code": "60591-5",
              "display": "Patient summary Document"
            }
          ],
          "text": "Patient summary Document"
        },
        "author": [
          {
            "reference": "urn:uuid:cb958b8a-27a8-4ee7-96bb-59254e798ebb"
          }
        ],
        "section": [
          {
            "text": {
              "status": "generated",
              "div": "<div xmlns=\"http://www.w3.org/1999/xhtml\"><table class=\"hl7__ips\"><tr><td>No known problems or disabilities</td></tr></table></div>"
            },
            "entry": [
              {
                "reference": "urn:uuid:27192557-fe92-4af5-ba52-4c595289da0c"
              }
            ],
            "code": {
              "coding": [
                {
                  "system": "http://loinc.org",
                  "code": "11450-4",
                  "display": "Problem list - Reported"
                }
              ]
            },
            "title": "Problem list"
          },
          {
            "text": {
              "status": "generated",
              "div": "<div xmlns=\"http://www.w3.org/1999/xhtml\"><table class=\"hl7__ips\"><tr><th>Medication</th><th>Since</th><th>Form</th><th>Dosage</th><th>Reason</th></tr><tr><td>Acetaminophen 325 mg oral tablet</td><td><span class=\"nb\">2025-04-19</span></td><td>-</td><td>1 tablet (325 mg) every 4 to 6 hours as needed</td><td>-</td></tr><tr><td>Acetaminophen 325 MG / Oxycodone Hydrochloride 10 MG Oral Tablet [Percocet]</td><td><span class=\"nb\">2025-04-19</span></td><td>-</td><td>1 tablet (10 mg oxycodone / 325 mg acetaminophen) every 6 hours as needed for pain</td><td>-</td></tr></table></div>"
            },
            "entry": [
              {
                "reference": "urn:uuid:6f033766-598e-47a5-9826-4203b8a7e3ba"
              },
              {
                "reference": "urn:uuid:8e66525b-f542-41dd-b16d-9d84756cb3a3"
              }
            ],
            "code": {
              "coding": [
                {
                  "system": "http://loinc.org",
                  "code": "10160-0",
                  "display": "History of Medication use Narrative"
                }
              ]
            },
            "title": "Medication list"
          },
          {
            "text": {
              "status": "generated",
              "div": "<div xmlns=\"http://www.w3.org/1999/xhtml\"><table class=\"hl7__ips\"><tr><th>Vaccine</th><th>Date</th></tr><tr><td>Influenza virus antigen only vaccine product</td><td><span class=\"nb\">19-Apr-2025</span></td></tr><tr><td>Clostridium tetani toxoid antigen adsorbed only vaccine product</td><td><span class=\"nb\">27-Mar-2021</span></td></tr></table></div>"
            },
            "entry": [
              {
                "reference": "urn:uuid:a6759d42-c8dc-4da2-b68b-3442bdaad243"
              },
              {
                "reference": "urn:uuid:d22edd81-c600-4d46-a1d9-2c92b13b7239"
              }
            ],
            "code": {
              "coding": [
                {
                  "system": "http://loinc.org",
                  "code": "11369-6",
                  "display": "History of Immunization note"
                }
              ]
            },
            "title": "Immunizations list"
          },
          {
            "text": {
              "status": "generated",
              "div": "<div xmlns=\"http://www.w3.org/1999/xhtml\"><table class=\"hl7__ips\"><tr><th>Procedure</th><th>Date</th><th>Reason</th></tr><tr><td>Medical induction of labor</td><td><span class=\"nb\">30-Jun-2018</span></td><td>Normal pregnancy</td></tr><tr><td>Parturition</td><td><span class=\"nb\">30-Jun-2018</span></td><td>Normal pregnancy</td></tr></table></div>"
            },
            "entry": [
              {
                "reference": "urn:uuid:db43fc8c-783a-4552-b561-1ff8da8d6d00"
              },
              {
                "reference": "urn:uuid:73690938-ff5b-41a1-b422-2bcbfa36d098"
              }
            ],
            "code": {
              "coding": [
                {
                  "system": "http://loinc.org",
                  "code": "47519-4",
                  "display": "History of Procedures Document"
                }
              ]
            },
            "title": "Procedure History list"
          },
          {
            "text": {
              "status": "generated",
              "div": "<div xmlns=\"http://www.w3.org/1999/xhtml\"><table class=\"hl7__ips\"><tr><th>Allergy/Intolerance</th><th>Onset Date</th><th>Status</th><th>Type</th><th>Reaction</th></tr><tr><td></td><td>?</td><td>active</td><td>?</td><td></td></tr></table></div>"
            },
            "entry": [
              {
                "reference": "urn:uuid:3341e128-85b5-4d23-a5aa-25d740dd5572"
              }
            ],
            "code": {
              "coding": [
                {
                  "system": "http://loinc.org",
                  "code": "48765-2",
                  "display": "Allergies and adverse reactions Document"
                }
              ]
            },
            "title": "Allergies and Intolerances"
          },
          {
            "text": {
              "status": "generated",
              "div": "<div xmlns=\"http://www.w3.org/1999/xhtml\"><table class=\"hl7__ips\"><tr><th>Active Planned Care / Goals</th><th>Start Date</th><th>Reason</th></tr><tr><td>Therapy</td><td><span class=\"nb\">17-Mar-2014</span></td><td>-</td></tr></table></div>"
            },
            "entry": [
              {
                "reference": "urn:uuid:0ab1b012-00ed-4e71-90ce-49fbc16c7ea1"
              }
            ],
            "code": {
              "coding": [
                {
                  "system": "http://loinc.org",
                  "code": "18776-5",
                  "display": "Plan of care note"
                }
              ]
            },
            "title": "Care Plan"
          },
          {
            "text": {
              "status": "generated",
              "div": "<div xmlns=\"http://www.w3.org/1999/xhtml\"><table class=\"hl7__ips\"><tr><th>Vital Signs</th><th>2025-04-19</th><th>2024-04-13</th></tr><tr><td>Body Height</td><td>150 cm</td><td>150 cm</td></tr><tr><td>Pain severity - 0-10 verbal numeric rating [Score] - Reported</td><td>3 {score}</td><td>3 {score}</td></tr><tr><td>Body Weight</td><td>68.2 kg</td><td>68.2 kg</td></tr><tr><td>Body mass index (BMI) [Ratio]</td><td>30.3 kg/m2</td><td>30.3 kg/m2</td></tr><tr><td>Diastolic Blood Pressure</td><td>67 mm[Hg]</td><td>70 mm[Hg]</td></tr><tr><td>Systolic Blood Pressure</td><td>92 mm[Hg]</td><td>93 mm[Hg]</td></tr><tr><td>Heart rate</td><td>86 /min</td><td>99 /min</td></tr><tr><td>Respiratory rate</td><td>14 /min</td><td>13 /min</td></tr></table></div>"
            },
            "entry": [
              {
                "reference": "urn:uuid:7c41db11-2958-4652-905d-01706c8d9e06"
              },
              {
                "reference": "urn:uuid:b10364e4-5042-4e66-904d-9f5903723b80"
              },
              {
                "reference": "urn:uuid:457acd83-d75c-4ef3-9714-8be485a9ff3a"
              },
              {
                "reference": "urn:uuid:2b8a57b3-d879-4270-9813-011b09f28614"
              },
              {
                "reference": "urn:uuid:01523078-73a2-42e7-a0e0-9209ae3d5d51"
              },
              {
                "reference": "urn:uuid:9422b8ea-0c52-47ab-8fc5-1c28b98eda71"
              },
              {
                "reference": "urn:uuid:dde40f6b-4704-454b-a458-15414f7d07d5"
              },
              {
                "reference": "urn:uuid:5b90585a-e18b-48ed-be51-33fe2085881f"
              },
              {
                "reference": "urn:uuid:b9a5ba2a-4ae7-4d1a-bd90-50b83d155571"
              },
              {
                "reference": "urn:uuid:ea49cef1-fa31-4479-af46-9f4c03566766"
              },
              {
                "reference": "urn:uuid:3f57ec56-2b89-4eba-8fc8-103dec968059"
              },
              {
                "reference": "urn:uuid:1cd746c5-17aa-4cc2-bc8d-e32a900e9c9c"
              },
              {
                "reference": "urn:uuid:09fdd4ab-f03c-4656-9487-477599eeb655"
              },
              {
                "reference": "urn:uuid:d9230d41-ab49-4b34-a046-00c5e8432c13"
              },
              {
                "reference": "urn:uuid:eb6d7e29-d6b5-4913-a91b-1b2ef4276d1c"
              },
              {
                "reference": "urn:uuid:f4584f57-9779-4869-91ae-1821e1840d12"
              }
            ],
            "code": {
              "coding": [
                {
                  "system": "http://loinc.org",
                  "code": "8716-3",
                  "display": "Vital signs note"
                }
              ]
            },
            "title": "Vital Signs"
          },
          {
            "text": {
              "status": "generated",
              "div": "<div xmlns=\"http://www.w3.org/1999/xhtml\"><table class=\"hl7__ips\">$<tr><td>[#] Births total</td><td>1</td></tr></table></div>"
            },
            "code": {
              "coding": [
                {
                  "system": "http://loinc.org",
                  "code": "10162-6",
                  "display": "History of pregnancies Narrative"
                }
              ]
            },
            "title": "Pregnancy History"
          },
          {
            "text": {
              "status": "generated",
              "div": "<div xmlns=\"http://www.w3.org/1999/xhtml\"><table class=\"hl7__ips\"><table class=\"hl7__ips\"><thead><tr><th>Recent Lab Observations</th><th>08-APR-2023</th><th>Reference&#xA0;Range</th><th>Unit</th></tr></thead><tbody><tr><td>Cholesterol [Mass/volume] in Serum or Plasma</td><td>194.8</td><td>125 - 200</td><td>mg/dL</td></tr><tr><td>Triglyceride [Mass/volume] in Serum or Plasma</td><td>133.5</td><td>35 - 150</td><td>mg/dL</td></tr><tr><td>Cholesterol in LDL [Mass/volume] in Serum or Plasma by Direct assay</td><td>118.0</td><td>0 - 130</td><td>mg/dL</td></tr><tr><td>Cholesterol in HDL [Mass/volume] in Serum or Plasma</td><td>50.1</td><td>40 - 60</td><td>mg/dL</td></tr></tbody></table></table></div>"
            },
            "entry": [
              {
                "reference": "urn:uuid:5b099fcf-0ec6-4515-8a82-bd1568af09f8"
              },
              {
                "reference": "urn:uuid:5ef6e20f-15fe-4b7f-908b-4750edf14ef0"
              },
              {
                "reference": "urn:uuid:f5c20339-be8f-45e5-9328-4bc7504a7746"
              },
              {
                "reference": "urn:uuid:24501766-5bad-445e-a92a-af859b0bd329"
              }
            ],
            "code": {
              "coding": [
                {
                  "system": "http://loinc.org",
                  "code": "30954-2",
                  "display": "Relevant diagnostic tests/laboratory data note"
                }
              ]
            },
            "title": "Relevant diagnostic tests/laboratory data"
          }
        ],
        "title": "European Patient Summary",
        "status": "final",
        "subject": {
          "reference": "urn:uuid:7ff15040-d3cc-4dbd-8d79-6d02aec111bb",
          "display": "Pamela Dixon"
        },
        "custodian": {
          "reference": "urn:uuid:1a9cee9f-1d2c-4a35-9905-3fb41a5a2e07"
        },
        "date": "2023-04-08",
        "confidentiality": "N"
      }
    },
    {
      "fullUrl": "urn:uuid:7ff15040-d3cc-4dbd-8d79-6d02aec111bb",
      "resource": {
        "resourceType": "Patient",
        "id": "7ff15040-d3cc-4dbd-8d79-6d02aec111bb",
        "meta": {
          "security": [
            {
              "system": "http://terminology.hl7.org/CodeSystem/v3-ActReason",
              "code": "HTEST"
            },
            {
              "system": "http://terminology.hl7.org/CodeSystem/v3-ActReason",
              "code": "TRAIN"
            }
          ],
          "tag": [
            {
              "system": "https://synderai.net/fhir/CodeSystem/tags",
              "code": "synthetic",
              "display": "SYNDERAI Synthetic data"
            }
          ],
          "profile": [
            "http://hl7.eu/fhir/eps/StructureDefinition/patient-eu-eps"
          ]
        },
        "identifier": [
          {
            "type": {
              "coding": [
                {
                  "code": "PT",
                  "system": "http://terminology.hl7.org/CodeSystem/v2-0203"
                }
              ]
            },
            "system": "http://ec.europa.eu/identifier/eci",
            "value": "6166-148600-3"
          },
          {
            "type": {
              "coding": [
                {
                  "code": "MR",
                  "system": "http://terminology.hl7.org/CodeSystem/v2-0203"
                }
              ]
            },
            "system": "http://local.setting.eu/identifier",
            "value": "aa6e2273-ade9-f985-ca21-1a30863d243e"
          }
        ],
        "name": [
          {
            "family": "Dixon"
          },
          {
            "given": [
              "Pamela"
            ]
          },
          {
            "text": "Pamela Dixon"
          }
        ],
        "address": [
          {
            "line": [
              "6 Diana landing"
            ],
            "use": "home",
            "type": "physical",
            "postalCode": "M14",
            "city": "Claireport",
            "country": "United Kingdom"
          }
        ],
        "telecom": [
          {
            "system": "phone",
            "value": "0121 496 0481"
          }
        ],
        "extension": [
          {
            "url": "http://hl7.org/fhir/StructureDefinition/patient-nationality",
            "valueCodeableConcept": {
              "coding": [
                {
                  "code": "GB",
                  "system": "http://hl7.org/fhir/ValueSet/country"
                }
              ]
            }
          }
        ],
        "text": {
          "status": "generated",
          "div": "<div xmlns=\"http://www.w3.org/1999/xhtml\"><table class=\"hl7__ips\"><tr><td>Pamela Dixon</td><td>female</td><td>01-Dec-1990</td></tr></table></div>"
        },
        "gender": "female",
        "birthDate": "1990-12-01"
      }
    },
    {
      "fullUrl": "urn:uuid:cb958b8a-27a8-4ee7-96bb-59254e798ebb",
      "resource": {
        "resourceType": "PractitionerRole",
        "id": "cb958b8a-27a8-4ee7-96bb-59254e798ebb",
        "meta": {
          "profile": [
            "http://hl7.eu/fhir/base/StructureDefinition/practitionerRole-eu"
          ]
        },
        "text": {
          "status": "generated",
          "div": "<div xmlns=\"http://www.w3.org/1999/xhtml\"><table class=\"hl7__ips\">Provider Role Id cb958b8a-27a8-4ee7-96bb-59254e798ebb</table></div>"
        },
        "practitioner": {
          "reference": "urn:uuid:2816d274-e9a8-4aab-8017-71e255e4218e"
        },
        "organization": {
          "reference": "urn:uuid:1a9cee9f-1d2c-4a35-9905-3fb41a5a2e07"
        }
      }
    },
    {
      "fullUrl": "urn:uuid:2816d274-e9a8-4aab-8017-71e255e4218e",
      "resource": {
        "resourceType": "Practitioner",
        "id": "2816d274-e9a8-4aab-8017-71e255e4218e",
        "meta": {
          "profile": [
            "http://hl7.eu/fhir/base/StructureDefinition/practitioner-eu"
          ]
        },
        "name": [
          {
            "prefix": [
              "Dr."
            ],
            "given": [
              "Hel"
            ],
            "family": "Ping"
          }
        ],
        "text": {
          "status": "generated",
          "div": "<div xmlns=\"http://www.w3.org/1999/xhtml\"><table class=\"hl7__ips\">Dr. Hel Ping</table></div>"
        }
      }
    },
    {
      "fullUrl": "urn:uuid:1a9cee9f-1d2c-4a35-9905-3fb41a5a2e07",
      "resource": {
        "resourceType": "Organization",
        "id": "1a9cee9f-1d2c-4a35-9905-3fb41a5a2e07",
        "meta": {
          "profile": [
            "http://hl7.eu/fhir/base/StructureDefinition/organization-eu"
          ]
        },
        "identifier": [
          {
            "assigner": {
              "display": "HL7 Europe"
            },
            "system": "urn:oid:2.16.840.1.113883.2.51.999",
            "value": "6aef4da9-e599-486a-b606-d3b95df163ec"
          }
        ],
        "address": [
          {
            "line": [
              "City Road 204"
            ],
            "city": "Manchester",
            "postalCode": "M3 3",
            "country": "United Kingdom"
          }
        ],
        "text": {
          "status": "generated",
          "div": "<div xmlns=\"http://www.w3.org/1999/xhtml\"><table class=\"hl7__ips\">Cornbrook Medical Practice</table></div>"
        },
        "name": "Cornbrook Medical Practice"
      }
    },
    {
      "fullUrl": "urn:uuid:27192557-fe92-4af5-ba52-4c595289da0c",
      "resource": {
        "resourceType": "Condition",
        "id": "27192557-fe92-4af5-ba52-4c595289da0c",
        "meta": {
          "profile": [
            "http://hl7.org/fhir/uv/ips/StructureDefinition/Condition-uv-ips"
          ]
        },
        "code": {
          "coding": [
            {
              "code": "160245001",
              "system": "http://snomed.info/sct",
              "display": "No current problems or disability (situation)"
            }
          ]
        },
        "text": {
          "status": "generated",
          "div": "<div xmlns=\"http://www.w3.org/1999/xhtml\"><table class=\"hl7__ips\"><tr><td>No known problems or disabilities</td></tr></table></div>"
        },
        "subject": {
          "reference": "Patient/7ff15040-d3cc-4dbd-8d79-6d02aec111bb",
          "display": "Pamela Dixon"
        },
        "_onsetDateTime": {
          "extension": [
            {
              "url": "http://hl7.org/fhir/StructureDefinition/data-absent-reason",
              "valueCode": "unknown\""
            }
          ]
        }
      }
    },
    {
      "fullUrl": "urn:uuid:d6cb8f4b-d74d-48a6-bb3a-4880637fcd84",
      "resource": {
        "resourceType": "Medication",
        "id": "d6cb8f4b-d74d-48a6-bb3a-4880637fcd84",
        "meta": {
          "profile": [
            "http://hl7.eu/fhir/eps/StructureDefinition/Medication-eu-eps"
          ]
        },
        "code": {
          "coding": [
            {
              "code": "370150001",
              "system": "http://snomed.info/sct",
              "display": "Acetaminophen 325 mg oral tablet"
            }
          ],
          "text": "Acetaminophen 325 mg oral tablet"
        },
        "text": {
          "status": "generated",
          "div": "<div xmlns=\"http://www.w3.org/1999/xhtml\">Acetaminophen 325 mg oral tablet</div>"
        }
      }
    },
    {
      "fullUrl": "urn:uuid:6f033766-598e-47a5-9826-4203b8a7e3ba",
      "resource": {
        "resourceType": "MedicationStatement",
        "id": "6f033766-598e-47a5-9826-4203b8a7e3ba",
        "meta": {
          "profile": [
            "http://hl7.eu/fhir/eps/StructureDefinition/MedicationStatement-eu-eps"
          ]
        },
        "effectivePeriod": {
          "start": "2025-04-19"
        },
        "dosage": [
          {
            "doseAndRate": [
              {
                "doseQuantity": {
                  "value": 1,
                  "unit": "{tbl}",
                  "system": "$ucum",
                  "code": "{tbl}"
                }
              }
            ],
            "timing": {
              "repeat": {
                "frequency": 1,
                "period": 4,
                "periodUnit": "h"
              }
            },
            "text": "1 tablet (325 mg) every 4 to 6 hours as needed",
            "asNeededBoolean": true
          }
        ],
        "text": {
          "status": "generated",
          "div": "<div xmlns=\"http://www.w3.org/1999/xhtml\"><table class=\"hl7__ips first25\"><tr><th>Medication</th><th>Since</th><th>Form</th><th>Dosage</th><th>Reason</th></tr><tr><td>Acetaminophen 325 mg oral tablet</td><td><span class=\"nb\">2025-04-19</span></td><td>-</td><td>1 tablet (325 mg) every 4 to 6 hours as needed</td><td>-</td></tr></table></div>"
        },
        "status": "active",
        "medicationReference": {
          "reference": "urn:uuid:d6cb8f4b-d74d-48a6-bb3a-4880637fcd84",
          "display": "Acetaminophen 325 mg oral tablet"
        },
        "subject": {
          "reference": "urn:uuid:7ff15040-d3cc-4dbd-8d79-6d02aec111bb",
          "display": "Pamela Dixon"
        }
      }
    },
    {
      "fullUrl": "urn:uuid:62c6f10c-5a3d-480b-8ee2-6048e85fb6f5",
      "resource": {
        "resourceType": "Medication",
        "id": "62c6f10c-5a3d-480b-8ee2-6048e85fb6f5",
        "meta": {
          "profile": [
            "http://hl7.eu/fhir/eps/StructureDefinition/Medication-eu-eps"
          ]
        },
        "code": {
          "coding": [
            {
              "code": "1049625",
              "system": "http://www.nlm.nih.gov/research/umls/rxnorm",
              "display": "Acetaminophen 325 MG / Oxycodone Hydrochloride 10 MG Oral Tablet [Percocet]"
            }
          ],
          "text": "Acetaminophen 325 MG / Oxycodone Hydrochloride 10 MG Oral Tablet [Percocet]"
        },
        "text": {
          "status": "generated",
          "div": "<div xmlns=\"http://www.w3.org/1999/xhtml\">Acetaminophen 325 MG / Oxycodone Hydrochloride 10 MG Oral Tablet [Percocet]</div>"
        }
      }
    },
    {
      "fullUrl": "urn:uuid:8e66525b-f542-41dd-b16d-9d84756cb3a3",
      "resource": {
        "resourceType": "MedicationStatement",
        "id": "8e66525b-f542-41dd-b16d-9d84756cb3a3",
        "meta": {
          "profile": [
            "http://hl7.eu/fhir/eps/StructureDefinition/MedicationStatement-eu-eps"
          ]
        },
        "effectivePeriod": {
          "start": "2025-04-19"
        },
        "dosage": [
          {
            "doseAndRate": [
              {
                "doseQuantity": {
                  "value": 1,
                  "unit": "{tbl}",
                  "system": "$ucum",
                  "code": "{tbl}"
                }
              }
            ],
            "timing": {
              "repeat": {
                "frequency": 4,
                "period": 1,
                "periodUnit": "d"
              }
            },
            "text": "1 tablet (10 mg oxycodone / 325 mg acetaminophen) every 6 hours as needed for pain",
            "asNeededBoolean": true
          }
        ],
        "text": {
          "status": "generated",
          "div": "<div xmlns=\"http://www.w3.org/1999/xhtml\"><table class=\"hl7__ips first25\"><tr><th>Medication</th><th>Since</th><th>Form</th><th>Dosage</th><th>Reason</th></tr><tr><td>Acetaminophen 325 MG / Oxycodone Hydrochloride 10 MG Oral Tablet [Percocet]</td><td><span class=\"nb\">2025-04-19</span></td><td>-</td><td>1 tablet (10 mg oxycodone / 325 mg acetaminophen) every 6 hours as needed for pain</td><td>-</td></tr></table></div>"
        },
        "status": "active",
        "medicationReference": {
          "reference": "urn:uuid:62c6f10c-5a3d-480b-8ee2-6048e85fb6f5",
          "display": "Acetaminophen 325 MG / Oxycodone Hydrochloride 10 MG Oral Tablet [Percocet]"
        },
        "subject": {
          "reference": "urn:uuid:7ff15040-d3cc-4dbd-8d79-6d02aec111bb",
          "display": "Pamela Dixon"
        }
      }
    },
    {
      "fullUrl": "urn:uuid:a6759d42-c8dc-4da2-b68b-3442bdaad243",
      "resource": {
        "resourceType": "Immunization",
        "id": "a6759d42-c8dc-4da2-b68b-3442bdaad243",
        "meta": {
          "profile": [
            "http://hl7.org/fhir/uv/ips/StructureDefinition/Immunization-uv-ips"
          ]
        },
        "vaccineCode": {
          "coding": [
            {
              "code": "1181000221105",
              "system": "http://snomed.info/sct",
              "display": "Vaccine product containing Influenza virus antigen"
            },
            {
              "code": "J07BB02",
              "system": "http://www.whocc.no/atc",
              "display": "Influenza, inactivated, split virus"
            }
          ],
          "text": "Influenza virus antigen only vaccine product"
        },
        "site": {
          "coding": [
            {
              "code": "244979005",
              "system": "http://snomed.info/sct",
              "display": "Entire muscle of upper arm"
            }
          ],
          "text": "Entire muscle of upper arm"
        },
        "route": {
          "coding": [
            {
              "code": "78421000",
              "system": "http://snomed.info/sct",
              "display": "Intramuscular route"
            }
          ],
          "text": "Intramuscular route"
        },
        "text": {
          "status": "generated",
          "div": "<div xmlns=\"http://www.w3.org/1999/xhtml\"><table class=\"hl7__ips\"><tr><td>Influenza virus antigen only vaccine product</td><td><span class=\"nb\">19-Apr-2025</span></td></tr></table></div>"
        },
        "status": "completed",
        "patient": {
          "reference": "urn:uuid:7ff15040-d3cc-4dbd-8d79-6d02aec111bb",
          "display": "Pamela Dixon"
        },
        "occurrenceDateTime": "2025-04-19",
        "lotNumber": "UP-xZ0iJn",
        "expirationDate": "2025-09-30"
      }
    },
    {
      "fullUrl": "urn:uuid:d22edd81-c600-4d46-a1d9-2c92b13b7239",
      "resource": {
        "resourceType": "Immunization",
        "id": "d22edd81-c600-4d46-a1d9-2c92b13b7239",
        "meta": {
          "profile": [
            "http://hl7.org/fhir/uv/ips/StructureDefinition/Immunization-uv-ips"
          ]
        },
        "vaccineCode": {
          "coding": [
            {
              "code": "777725002",
              "system": "http://snomed.info/sct",
              "display": "Vaccine product containing only Clostridium tetani toxoid antigen adsorbed"
            },
            {
              "code": "J07AM51",
              "system": "http://www.whocc.no/atc",
              "display": "Diphtheria-tetanus vaccines, adult type"
            }
          ],
          "text": "Clostridium tetani toxoid antigen adsorbed only vaccine product"
        },
        "site": {
          "coding": [
            {
              "code": "244979005",
              "system": "http://snomed.info/sct",
              "display": "Entire muscle of upper arm"
            }
          ],
          "text": "Entire muscle of upper arm"
        },
        "route": {
          "coding": [
            {
              "code": "78421000",
              "system": "http://snomed.info/sct",
              "display": "Intramuscular route"
            }
          ],
          "text": "Intramuscular route"
        },
        "text": {
          "status": "generated",
          "div": "<div xmlns=\"http://www.w3.org/1999/xhtml\"><table class=\"hl7__ips\"><tr><td>Clostridium tetani toxoid antigen adsorbed only vaccine product</td><td><span class=\"nb\">27-Mar-2021</span></td></tr></table></div>"
        },
        "status": "completed",
        "patient": {
          "reference": "urn:uuid:7ff15040-d3cc-4dbd-8d79-6d02aec111bb",
          "display": "Pamela Dixon"
        },
        "occurrenceDateTime": "2021-03-27",
        "lotNumber": "TS-1xJr2v",
        "expirationDate": "2021-05-05"
      }
    },
    {
      "fullUrl": "urn:uuid:db43fc8c-783a-4552-b561-1ff8da8d6d00",
      "resource": {
        "resourceType": "Procedure",
        "id": "db43fc8c-783a-4552-b561-1ff8da8d6d00",
        "meta": {
          "profile": [
            "http://hl7.org/fhir/uv/ips/StructureDefinition/Procedure-uv-ips"
          ]
        },
        "code": {
          "coding": [
            {
              "code": "31208007",
              "system": "http://snomed.info/sct",
              "display": "Medical induction of labor"
            }
          ],
          "text": "Medical induction of labor"
        },
        "reasonCode": [
          {
            "coding": [
              {
                "code": "72892002",
                "system": "http://snomed.info/sct",
                "display": "Normal pregnancy"
              }
            ]
          }
        ],
        "text": {
          "status": "generated",
          "div": "<div xmlns=\"http://www.w3.org/1999/xhtml\"><table class=\"hl7__ips\"><tr><td>Medical induction of labor</td><td><span class=\"nb\">30-Jun-2018</span></td><td>Normal pregnancy</td></tr></table></div>"
        },
        "status": "completed",
        "performedDateTime": "2018-06-30",
        "subject": {
          "reference": "urn:uuid:",
          "display": "Pamela Dixon"
        }
      }
    },
    {
      "fullUrl": "urn:uuid:73690938-ff5b-41a1-b422-2bcbfa36d098",
      "resource": {
        "resourceType": "Procedure",
        "id": "73690938-ff5b-41a1-b422-2bcbfa36d098",
        "meta": {
          "profile": [
            "http://hl7.org/fhir/uv/ips/StructureDefinition/Procedure-uv-ips"
          ]
        },
        "code": {
          "coding": [
            {
              "code": "66348005",
              "system": "http://snomed.info/sct",
              "display": "Childbirth"
            }
          ],
          "text": "Parturition"
        },
        "reasonCode": [
          {
            "coding": [
              {
                "code": "72892002",
                "system": "http://snomed.info/sct",
                "display": "Normal pregnancy"
              }
            ]
          }
        ],
        "text": {
          "status": "generated",
          "div": "<div xmlns=\"http://www.w3.org/1999/xhtml\"><table class=\"hl7__ips\"><tr><td>Parturition</td><td><span class=\"nb\">30-Jun-2018</span></td><td>Normal pregnancy</td></tr></table></div>"
        },
        "status": "completed",
        "performedDateTime": "2018-06-30",
        "subject": {
          "reference": "urn:uuid:",
          "display": "Pamela Dixon"
        }
      }
    },
    {
      "fullUrl": "urn:uuid:3341e128-85b5-4d23-a5aa-25d740dd5572",
      "resource": {
        "resourceType": "AllergyIntolerance",
        "id": "3341e128-85b5-4d23-a5aa-25d740dd5572",
        "meta": {
          "profile": [
            "http://hl7.eu/fhir/eps/StructureDefinition/allergyIntolerance-eu-eps"
          ]
        },
        "code": {
          "text": ""
        },
        "clinicalStatus": {
          "coding": [
            {
              "code": "active",
              "system": "http://terminology.hl7.org/CodeSystem/allergyintolerance-clinical"
            }
          ]
        },
        "text": {
          "status": "generated",
          "div": "<div xmlns=\"http://www.w3.org/1999/xhtml\"><table class=\"hl7__ips\"><tr><th>Allergy/Intolerance</th><th>Onset Date</th><th>Status</th><th>Type</th><th>Reaction</th></tr><tr><td></td><td>?</td><td>active</td><td>?</td><td></td></tr></table></div>"
        },
        "verificationStatus": {
          "coding": [
            {
              "code": "confirmed",
              "system": "http://terminology.hl7.org/CodeSystem/allergyintolerance-verification"
            }
          ]
        },
        "patient": {
          "reference": "urn:uuid:7ff15040-d3cc-4dbd-8d79-6d02aec111bb",
          "display": "Pamela Dixon"
        },
        "_onsetDateTime": {
          "extension": [
            {
              "url": "http://hl7.org/fhir/StructureDefinition/data-absent-reason",
              "valueCode": "unknown"
            }
          ]
        }
      }
    },
    {
      "fullUrl": "urn:uuid:0ab1b012-00ed-4e71-90ce-49fbc16c7ea1",
      "resource": {
        "resourceType": "CarePlan",
        "id": "0ab1b012-00ed-4e71-90ce-49fbc16c7ea1",
        "category": [
          {
            "coding": [
              {
                "code": "assess-plan",
                "system": "http://terminology.hl7.org/CodeSystem/care-plan-category",
                "display": "Assessment and Plan"
              }
            ]
          }
        ],
        "activity": [
          {
            "detail": {
              "code": {
                "coding": [
                  {
                    "code": "276239002",
                    "system": "http://snomed.info/sct",
                    "display": "Therapy (regime/therapy)"
                  }
                ]
              },
              "status": "unknown",
              "description": "Therapy",
              "kind": "Appointment"
            }
          }
        ],
        "period": {
          "start": "2014-03-17"
        },
        "text": {
          "status": "generated",
          "div": "<div xmlns=\"http://www.w3.org/1999/xhtml\"><table class=\"hl7__ips first25\"><tr><th>Active Planned Care / Goals</th><th>Start Date</th><th>Reason</th></tr><tr><td>Therapy</td><td><span class=\"nb\">17-Mar-2014</span></td><td>-</td></tr></table></div>"
        },
        "status": "active",
        "intent": "plan",
        "subject": {
          "reference": "urn:uuid:7ff15040-d3cc-4dbd-8d79-6d02aec111bb",
          "display": "Pamela Dixon"
        }
      }
    },
    {
      "fullUrl": "urn:uuid:7c41db11-2958-4652-905d-01706c8d9e06",
      "resource": {
        "resourceType": "Observation",
        "id": "7c41db11-2958-4652-905d-01706c8d9e06",
        "meta": {
          "profile": [
            "http://hl7.org/fhir/StructureDefinition/vitalsigns"
          ]
        },
        "category": [
          {
            "coding": [
              {
                "system": "http://terminology.hl7.org/CodeSystem/observation-category",
                "code": "vital-signs",
                "display": "Vital Signs"
              }
            ]
          }
        ],
        "valueQuantity": {
          "value": 150,
          "code": "cm",
          "unit": "cm"
        },
        "text": {
          "status": "generated",
          "div": "<div xmlns=\"http://www.w3.org/1999/xhtml\"><table class=\"hl7__ips\"><tr><th>Vital Sign</th><th>Date</th><th>Measurement</th></tr><tr><td>Body Height</td><td>19-Apr-2025</td><td>150 cm</td></tr></table></div>"
        },
        "status": "final",
        "code": {
          "coding": [
            {
              "code": "$8302-2",
              "system": "http://loinc.org",
              "display": "Body Height"
            }
          ]
        },
        "subject": {
          "reference": "urn:uuid:7ff15040-d3cc-4dbd-8d79-6d02aec111bb",
          "display": "Pamela Dixon"
        },
        "effectiveDateTime": "2025-04-19"
      }
    },
    {
      "fullUrl": "urn:uuid:b10364e4-5042-4e66-904d-9f5903723b80",
      "resource": {
        "resourceType": "Observation",
        "id": "b10364e4-5042-4e66-904d-9f5903723b80",
        "meta": {
          "profile": [
            "http://hl7.org/fhir/StructureDefinition/vitalsigns"
          ]
        },
        "category": [
          {
            "coding": [
              {
                "system": "http://terminology.hl7.org/CodeSystem/observation-category",
                "code": "vital-signs",
                "display": "Vital Signs"
              }
            ]
          }
        ],
        "valueQuantity": {
          "value": 3,
          "code": "{score}",
          "unit": "{score}"
        },
        "text": {
          "status": "generated",
          "div": "<div xmlns=\"http://www.w3.org/1999/xhtml\"><table class=\"hl7__ips\"><tr><th>Vital Sign</th><th>Date</th><th>Measurement</th></tr><tr><td>Pain severity - 0-10 verbal numeric rating [Score] - Reported</td><td>19-Apr-2025</td><td>3 {score}</td></tr></table></div>"
        },
        "status": "final",
        "code": {
          "coding": [
            {
              "code": "$72514-3",
              "system": "http://loinc.org",
              "display": "Pain severity - 0-10 verbal numeric rating [Score] - Reported"
            }
          ]
        },
        "subject": {
          "reference": "urn:uuid:7ff15040-d3cc-4dbd-8d79-6d02aec111bb",
          "display": "Pamela Dixon"
        },
        "effectiveDateTime": "2025-04-19"
      }
    },
    {
      "fullUrl": "urn:uuid:457acd83-d75c-4ef3-9714-8be485a9ff3a",
      "resource": {
        "resourceType": "Observation",
        "id": "457acd83-d75c-4ef3-9714-8be485a9ff3a",
        "meta": {
          "profile": [
            "http://hl7.org/fhir/StructureDefinition/vitalsigns"
          ]
        },
        "category": [
          {
            "coding": [
              {
                "system": "http://terminology.hl7.org/CodeSystem/observation-category",
                "code": "vital-signs",
                "display": "Vital Signs"
              }
            ]
          }
        ],
        "valueQuantity": {
          "value": 68.2,
          "code": "kg",
          "unit": "kg"
        },
        "text": {
          "status": "generated",
          "div": "<div xmlns=\"http://www.w3.org/1999/xhtml\"><table class=\"hl7__ips\"><tr><th>Vital Sign</th><th>Date</th><th>Measurement</th></tr><tr><td>Body Weight</td><td>19-Apr-2025</td><td>68.2 kg</td></tr></table></div>"
        },
        "status": "final",
        "code": {
          "coding": [
            {
              "code": "$29463-7",
              "system": "http://loinc.org",
              "display": "Body Weight"
            }
          ]
        },
        "subject": {
          "reference": "urn:uuid:7ff15040-d3cc-4dbd-8d79-6d02aec111bb",
          "display": "Pamela Dixon"
        },
        "effectiveDateTime": "2025-04-19"
      }
    },
    {
      "fullUrl": "urn:uuid:2b8a57b3-d879-4270-9813-011b09f28614",
      "resource": {
        "resourceType": "Observation",
        "id": "2b8a57b3-d879-4270-9813-011b09f28614",
        "meta": {
          "profile": [
            "http://hl7.org/fhir/StructureDefinition/vitalsigns"
          ]
        },
        "category": [
          {
            "coding": [
              {
                "system": "http://terminology.hl7.org/CodeSystem/observation-category",
                "code": "vital-signs",
                "display": "Vital Signs"
              }
            ]
          }
        ],
        "valueQuantity": {
          "value": 30.3,
          "code": "kg/m2",
          "unit": "kg/m2"
        },
        "text": {
          "status": "generated",
          "div": "<div xmlns=\"http://www.w3.org/1999/xhtml\"><table class=\"hl7__ips\"><tr><th>Vital Sign</th><th>Date</th><th>Measurement</th></tr><tr><td>Body mass index (BMI) [Ratio]</td><td>19-Apr-2025</td><td>30.3 kg/m2</td></tr></table></div>"
        },
        "status": "final",
        "code": {
          "coding": [
            {
              "code": "$39156-5",
              "system": "http://loinc.org",
              "display": "Body mass index (BMI) [Ratio]"
            }
          ]
        },
        "subject": {
          "reference": "urn:uuid:7ff15040-d3cc-4dbd-8d79-6d02aec111bb",
          "display": "Pamela Dixon"
        },
        "effectiveDateTime": "2025-04-19"
      }
    },
    {
      "fullUrl": "urn:uuid:01523078-73a2-42e7-a0e0-9209ae3d5d51",
      "resource": {
        "resourceType": "Observation",
        "id": "01523078-73a2-42e7-a0e0-9209ae3d5d51",
        "meta": {
          "profile": [
            "http://hl7.org/fhir/StructureDefinition/vitalsigns"
          ]
        },
        "category": [
          {
            "coding": [
              {
                "system": "http://terminology.hl7.org/CodeSystem/observation-category",
                "code": "vital-signs",
                "display": "Vital Signs"
              }
            ]
          }
        ],
        "valueQuantity": {
          "value": 67,
          "code": "mm[Hg]",
          "unit": "mm[Hg]"
        },
        "text": {
          "status": "generated",
          "div": "<div xmlns=\"http://www.w3.org/1999/xhtml\"><table class=\"hl7__ips\"><tr><th>Vital Sign</th><th>Date</th><th>Measurement</th></tr><tr><td>Diastolic Blood Pressure</td><td>19-Apr-2025</td><td>67 mm[Hg]</td></tr></table></div>"
        },
        "status": "final",
        "code": {
          "coding": [
            {
              "code": "$8462-4",
              "system": "http://loinc.org",
              "display": "Diastolic Blood Pressure"
            }
          ]
        },
        "subject": {
          "reference": "urn:uuid:7ff15040-d3cc-4dbd-8d79-6d02aec111bb",
          "display": "Pamela Dixon"
        },
        "effectiveDateTime": "2025-04-19"
      }
    },
    {
      "fullUrl": "urn:uuid:9422b8ea-0c52-47ab-8fc5-1c28b98eda71",
      "resource": {
        "resourceType": "Observation",
        "id": "9422b8ea-0c52-47ab-8fc5-1c28b98eda71",
        "meta": {
          "profile": [
            "http://hl7.org/fhir/StructureDefinition/vitalsigns"
          ]
        },
        "category": [
          {
            "coding": [
              {
                "system": "http://terminology.hl7.org/CodeSystem/observation-category",
                "code": "vital-signs",
                "display": "Vital Signs"
              }
            ]
          }
        ],
        "valueQuantity": {
          "value": 92,
          "code": "mm[Hg]",
          "unit": "mm[Hg]"
        },
        "text": {
          "status": "generated",
          "div": "<div xmlns=\"http://www.w3.org/1999/xhtml\"><table class=\"hl7__ips\"><tr><th>Vital Sign</th><th>Date</th><th>Measurement</th></tr><tr><td>Systolic Blood Pressure</td><td>19-Apr-2025</td><td>92 mm[Hg]</td></tr></table></div>"
        },
        "status": "final",
        "code": {
          "coding": [
            {
              "code": "$8480-6",
              "system": "http://loinc.org",
              "display": "Systolic Blood Pressure"
            }
          ]
        },
        "subject": {
          "reference": "urn:uuid:7ff15040-d3cc-4dbd-8d79-6d02aec111bb",
          "display": "Pamela Dixon"
        },
        "effectiveDateTime": "2025-04-19"
      }
    },
    {
      "fullUrl": "urn:uuid:dde40f6b-4704-454b-a458-15414f7d07d5",
      "resource": {
        "resourceType": "Observation",
        "id": "dde40f6b-4704-454b-a458-15414f7d07d5",
        "meta": {
          "profile": [
            "http://hl7.org/fhir/StructureDefinition/vitalsigns"
          ]
        },
        "category": [
          {
            "coding": [
              {
                "system": "http://terminology.hl7.org/CodeSystem/observation-category",
                "code": "vital-signs",
                "display": "Vital Signs"
              }
            ]
          }
        ],
        "valueQuantity": {
          "value": 86,
          "code": "/min",
          "unit": "/min"
        },
        "text": {
          "status": "generated",
          "div": "<div xmlns=\"http://www.w3.org/1999/xhtml\"><table class=\"hl7__ips\"><tr><th>Vital Sign</th><th>Date</th><th>Measurement</th></tr><tr><td>Heart rate</td><td>19-Apr-2025</td><td>86 /min</td></tr></table></div>"
        },
        "status": "final",
        "code": {
          "coding": [
            {
              "code": "$8867-4",
              "system": "http://loinc.org",
              "display": "Heart rate"
            }
          ]
        },
        "subject": {
          "reference": "urn:uuid:7ff15040-d3cc-4dbd-8d79-6d02aec111bb",
          "display": "Pamela Dixon"
        },
        "effectiveDateTime": "2025-04-19"
      }
    },
    {
      "fullUrl": "urn:uuid:5b90585a-e18b-48ed-be51-33fe2085881f",
      "resource": {
        "resourceType": "Observation",
        "id": "5b90585a-e18b-48ed-be51-33fe2085881f",
        "meta": {
          "profile": [
            "http://hl7.org/fhir/StructureDefinition/vitalsigns"
          ]
        },
        "category": [
          {
            "coding": [
              {
                "system": "http://terminology.hl7.org/CodeSystem/observation-category",
                "code": "vital-signs",
                "display": "Vital Signs"
              }
            ]
          }
        ],
        "valueQuantity": {
          "value": 14,
          "code": "/min",
          "unit": "/min"
        },
        "text": {
          "status": "generated",
          "div": "<div xmlns=\"http://www.w3.org/1999/xhtml\"><table class=\"hl7__ips\"><tr><th>Vital Sign</th><th>Date</th><th>Measurement</th></tr><tr><td>Respiratory rate</td><td>19-Apr-2025</td><td>14 /min</td></tr></table></div>"
        },
        "status": "final",
        "code": {
          "coding": [
            {
              "code": "$9279-1",
              "system": "http://loinc.org",
              "display": "Respiratory rate"
            }
          ]
        },
        "subject": {
          "reference": "urn:uuid:7ff15040-d3cc-4dbd-8d79-6d02aec111bb",
          "display": "Pamela Dixon"
        },
        "effectiveDateTime": "2025-04-19"
      }
    },
    {
      "fullUrl": "urn:uuid:b9a5ba2a-4ae7-4d1a-bd90-50b83d155571",
      "resource": {
        "resourceType": "Observation",
        "id": "b9a5ba2a-4ae7-4d1a-bd90-50b83d155571",
        "meta": {
          "profile": [
            "http://hl7.org/fhir/StructureDefinition/vitalsigns"
          ]
        },
        "category": [
          {
            "coding": [
              {
                "system": "http://terminology.hl7.org/CodeSystem/observation-category",
                "code": "vital-signs",
                "display": "Vital Signs"
              }
            ]
          }
        ],
        "valueQuantity": {
          "value": 150,
          "code": "cm",
          "unit": "cm"
        },
        "text": {
          "status": "generated",
          "div": "<div xmlns=\"http://www.w3.org/1999/xhtml\"><table class=\"hl7__ips\"><tr><th>Vital Sign</th><th>Date</th><th>Measurement</th></tr><tr><td>Body Height</td><td>13-Apr-2024</td><td>150 cm</td></tr></table></div>"
        },
        "status": "final",
        "code": {
          "coding": [
            {
              "code": "$8302-2",
              "system": "http://loinc.org",
              "display": "Body Height"
            }
          ]
        },
        "subject": {
          "reference": "urn:uuid:7ff15040-d3cc-4dbd-8d79-6d02aec111bb",
          "display": "Pamela Dixon"
        },
        "effectiveDateTime": "2024-04-13"
      }
    },
    {
      "fullUrl": "urn:uuid:ea49cef1-fa31-4479-af46-9f4c03566766",
      "resource": {
        "resourceType": "Observation",
        "id": "ea49cef1-fa31-4479-af46-9f4c03566766",
        "meta": {
          "profile": [
            "http://hl7.org/fhir/StructureDefinition/vitalsigns"
          ]
        },
        "category": [
          {
            "coding": [
              {
                "system": "http://terminology.hl7.org/CodeSystem/observation-category",
                "code": "vital-signs",
                "display": "Vital Signs"
              }
            ]
          }
        ],
        "valueQuantity": {
          "value": 3,
          "code": "{score}",
          "unit": "{score}"
        },
        "text": {
          "status": "generated",
          "div": "<div xmlns=\"http://www.w3.org/1999/xhtml\"><table class=\"hl7__ips\"><tr><th>Vital Sign</th><th>Date</th><th>Measurement</th></tr><tr><td>Pain severity - 0-10 verbal numeric rating [Score] - Reported</td><td>13-Apr-2024</td><td>3 {score}</td></tr></table></div>"
        },
        "status": "final",
        "code": {
          "coding": [
            {
              "code": "$72514-3",
              "system": "http://loinc.org",
              "display": "Pain severity - 0-10 verbal numeric rating [Score] - Reported"
            }
          ]
        },
        "subject": {
          "reference": "urn:uuid:7ff15040-d3cc-4dbd-8d79-6d02aec111bb",
          "display": "Pamela Dixon"
        },
        "effectiveDateTime": "2024-04-13"
      }
    },
    {
      "fullUrl": "urn:uuid:3f57ec56-2b89-4eba-8fc8-103dec968059",
      "resource": {
        "resourceType": "Observation",
        "id": "3f57ec56-2b89-4eba-8fc8-103dec968059",
        "meta": {
          "profile": [
            "http://hl7.org/fhir/StructureDefinition/vitalsigns"
          ]
        },
        "category": [
          {
            "coding": [
              {
                "system": "http://terminology.hl7.org/CodeSystem/observation-category",
                "code": "vital-signs",
                "display": "Vital Signs"
              }
            ]
          }
        ],
        "valueQuantity": {
          "value": 68.2,
          "code": "kg",
          "unit": "kg"
        },
        "text": {
          "status": "generated",
          "div": "<div xmlns=\"http://www.w3.org/1999/xhtml\"><table class=\"hl7__ips\"><tr><th>Vital Sign</th><th>Date</th><th>Measurement</th></tr><tr><td>Body Weight</td><td>13-Apr-2024</td><td>68.2 kg</td></tr></table></div>"
        },
        "status": "final",
        "code": {
          "coding": [
            {
              "code": "$29463-7",
              "system": "http://loinc.org",
              "display": "Body Weight"
            }
          ]
        },
        "subject": {
          "reference": "urn:uuid:7ff15040-d3cc-4dbd-8d79-6d02aec111bb",
          "display": "Pamela Dixon"
        },
        "effectiveDateTime": "2024-04-13"
      }
    },
    {
      "fullUrl": "urn:uuid:1cd746c5-17aa-4cc2-bc8d-e32a900e9c9c",
      "resource": {
        "resourceType": "Observation",
        "id": "1cd746c5-17aa-4cc2-bc8d-e32a900e9c9c",
        "meta": {
          "profile": [
            "http://hl7.org/fhir/StructureDefinition/vitalsigns"
          ]
        },
        "category": [
          {
            "coding": [
              {
                "system": "http://terminology.hl7.org/CodeSystem/observation-category",
                "code": "vital-signs",
                "display": "Vital Signs"
              }
            ]
          }
        ],
        "valueQuantity": {
          "value": 30.3,
          "code": "kg/m2",
          "unit": "kg/m2"
        },
        "text": {
          "status": "generated",
          "div": "<div xmlns=\"http://www.w3.org/1999/xhtml\"><table class=\"hl7__ips\"><tr><th>Vital Sign</th><th>Date</th><th>Measurement</th></tr><tr><td>Body mass index (BMI) [Ratio]</td><td>13-Apr-2024</td><td>30.3 kg/m2</td></tr></table></div>"
        },
        "status": "final",
        "code": {
          "coding": [
            {
              "code": "$39156-5",
              "system": "http://loinc.org",
              "display": "Body mass index (BMI) [Ratio]"
            }
          ]
        },
        "subject": {
          "reference": "urn:uuid:7ff15040-d3cc-4dbd-8d79-6d02aec111bb",
          "display": "Pamela Dixon"
        },
        "effectiveDateTime": "2024-04-13"
      }
    },
    {
      "fullUrl": "urn:uuid:09fdd4ab-f03c-4656-9487-477599eeb655",
      "resource": {
        "resourceType": "Observation",
        "id": "09fdd4ab-f03c-4656-9487-477599eeb655",
        "meta": {
          "profile": [
            "http://hl7.org/fhir/StructureDefinition/vitalsigns"
          ]
        },
        "category": [
          {
            "coding": [
              {
                "system": "http://terminology.hl7.org/CodeSystem/observation-category",
                "code": "vital-signs",
                "display": "Vital Signs"
              }
            ]
          }
        ],
        "valueQuantity": {
          "value": 70,
          "code": "mm[Hg]",
          "unit": "mm[Hg]"
        },
        "text": {
          "status": "generated",
          "div": "<div xmlns=\"http://www.w3.org/1999/xhtml\"><table class=\"hl7__ips\"><tr><th>Vital Sign</th><th>Date</th><th>Measurement</th></tr><tr><td>Diastolic Blood Pressure</td><td>13-Apr-2024</td><td>70 mm[Hg]</td></tr></table></div>"
        },
        "status": "final",
        "code": {
          "coding": [
            {
              "code": "$8462-4",
              "system": "http://loinc.org",
              "display": "Diastolic Blood Pressure"
            }
          ]
        },
        "subject": {
          "reference": "urn:uuid:7ff15040-d3cc-4dbd-8d79-6d02aec111bb",
          "display": "Pamela Dixon"
        },
        "effectiveDateTime": "2024-04-13"
      }
    },
    {
      "fullUrl": "urn:uuid:d9230d41-ab49-4b34-a046-00c5e8432c13",
      "resource": {
        "resourceType": "Observation",
        "id": "d9230d41-ab49-4b34-a046-00c5e8432c13",
        "meta": {
          "profile": [
            "http://hl7.org/fhir/StructureDefinition/vitalsigns"
          ]
        },
        "category": [
          {
            "coding": [
              {
                "system": "http://terminology.hl7.org/CodeSystem/observation-category",
                "code": "vital-signs",
                "display": "Vital Signs"
              }
            ]
          }
        ],
        "valueQuantity": {
          "value": 93,
          "code": "mm[Hg]",
          "unit": "mm[Hg]"
        },
        "text": {
          "status": "generated",
          "div": "<div xmlns=\"http://www.w3.org/1999/xhtml\"><table class=\"hl7__ips\"><tr><th>Vital Sign</th><th>Date</th><th>Measurement</th></tr><tr><td>Systolic Blood Pressure</td><td>13-Apr-2024</td><td>93 mm[Hg]</td></tr></table></div>"
        },
        "status": "final",
        "code": {
          "coding": [
            {
              "code": "$8480-6",
              "system": "http://loinc.org",
              "display": "Systolic Blood Pressure"
            }
          ]
        },
        "subject": {
          "reference": "urn:uuid:7ff15040-d3cc-4dbd-8d79-6d02aec111bb",
          "display": "Pamela Dixon"
        },
        "effectiveDateTime": "2024-04-13"
      }
    },
    {
      "fullUrl": "urn:uuid:eb6d7e29-d6b5-4913-a91b-1b2ef4276d1c",
      "resource": {
        "resourceType": "Observation",
        "id": "eb6d7e29-d6b5-4913-a91b-1b2ef4276d1c",
        "meta": {
          "profile": [
            "http://hl7.org/fhir/StructureDefinition/vitalsigns"
          ]
        },
        "category": [
          {
            "coding": [
              {
                "system": "http://terminology.hl7.org/CodeSystem/observation-category",
                "code": "vital-signs",
                "display": "Vital Signs"
              }
            ]
          }
        ],
        "valueQuantity": {
          "value": 99,
          "code": "/min",
          "unit": "/min"
        },
        "text": {
          "status": "generated",
          "div": "<div xmlns=\"http://www.w3.org/1999/xhtml\"><table class=\"hl7__ips\"><tr><th>Vital Sign</th><th>Date</th><th>Measurement</th></tr><tr><td>Heart rate</td><td>13-Apr-2024</td><td>99 /min</td></tr></table></div>"
        },
        "status": "final",
        "code": {
          "coding": [
            {
              "code": "$8867-4",
              "system": "http://loinc.org",
              "display": "Heart rate"
            }
          ]
        },
        "subject": {
          "reference": "urn:uuid:7ff15040-d3cc-4dbd-8d79-6d02aec111bb",
          "display": "Pamela Dixon"
        },
        "effectiveDateTime": "2024-04-13"
      }
    },
    {
      "fullUrl": "urn:uuid:f4584f57-9779-4869-91ae-1821e1840d12",
      "resource": {
        "resourceType": "Observation",
        "id": "f4584f57-9779-4869-91ae-1821e1840d12",
        "meta": {
          "profile": [
            "http://hl7.org/fhir/StructureDefinition/vitalsigns"
          ]
        },
        "category": [
          {
            "coding": [
              {
                "system": "http://terminology.hl7.org/CodeSystem/observation-category",
                "code": "vital-signs",
                "display": "Vital Signs"
              }
            ]
          }
        ],
        "valueQuantity": {
          "value": 13,
          "code": "/min",
          "unit": "/min"
        },
        "text": {
          "status": "generated",
          "div": "<div xmlns=\"http://www.w3.org/1999/xhtml\"><table class=\"hl7__ips\"><tr><th>Vital Sign</th><th>Date</th><th>Measurement</th></tr><tr><td>Respiratory rate</td><td>13-Apr-2024</td><td>13 /min</td></tr></table></div>"
        },
        "status": "final",
        "code": {
          "coding": [
            {
              "code": "$9279-1",
              "system": "http://loinc.org",
              "display": "Respiratory rate"
            }
          ]
        },
        "subject": {
          "reference": "urn:uuid:7ff15040-d3cc-4dbd-8d79-6d02aec111bb",
          "display": "Pamela Dixon"
        },
        "effectiveDateTime": "2024-04-13"
      }
    },
    {
      "fullUrl": "urn:uuid:5b099fcf-0ec6-4515-8a82-bd1568af09f8",
      "resource": {
        "resourceType": "Observation",
        "id": "5b099fcf-0ec6-4515-8a82-bd1568af09f8",
        "meta": {
          "profile": [
            "http://hl7.eu/fhir/laboratory/StructureDefinition/Observation-resultslab-eu-lab"
          ]
        },
        "performer": [
          {
            "display": "The Central European Lab"
          }
        ],
        "category": [
          {
            "coding": [
              {
                "system": "http://terminology.hl7.org/CodeSystem/observation-category",
                "code": "laboratory"
              }
            ]
          }
        ],
        "code": {
          "coding": [
            {
              "code": "2093-3",
              "system": "http://loinc.org",
              "display": "Cholesterol [Mass/volume] in Serum or Plasma"
            }
          ],
          "text": "Cholesterol [Mass/volume] in Serum or Plasma"
        },
        "valueQuantity": {
          "system": "http://unitsofmeasure.org",
          "value": 194.8,
          "unit": "mg/dL",
          "code": "mg/dL"
        },
        "referenceRange": [
          {
            "low": {
              "value": 125,
              "code": "mg/dL",
              "system": "http://unitsofmeasure.org"
            }
          },
          {
            "high": {
              "value": 200,
              "code": "mg/dL",
              "system": "http://unitsofmeasure.org"
            }
          }
        ],
        "text": {
          "status": "generated",
          "div": "<div xmlns=\"http://www.w3.org/1999/xhtml\"><table class=\"hl7__eu__lab__report\"><tr><th>Test</th><th>08-Apr-2023</th><th>Reference&#xA0;Range</th><th>Unit</th></tr><tr><td>Cholesterol [Mass/volume] in Serum or Plasma</td><td>194.8</td><td>125 - 200</td><td></td><td>mg/dL</td></tr></table></div>"
        },
        "status": "final",
        "subject": {
          "reference": "urn:uuid:7ff15040-d3cc-4dbd-8d79-6d02aec111bb",
          "display": "Pamela Dixon"
        },
        "effectiveDateTime": "2023-04-08T18:20:37Z"
      }
    },
    {
      "fullUrl": "urn:uuid:5ef6e20f-15fe-4b7f-908b-4750edf14ef0",
      "resource": {
        "resourceType": "Observation",
        "id": "5ef6e20f-15fe-4b7f-908b-4750edf14ef0",
        "meta": {
          "profile": [
            "http://hl7.eu/fhir/laboratory/StructureDefinition/Observation-resultslab-eu-lab"
          ]
        },
        "performer": [
          {
            "display": "The Central European Lab"
          }
        ],
        "category": [
          {
            "coding": [
              {
                "system": "http://terminology.hl7.org/CodeSystem/observation-category",
                "code": "laboratory"
              }
            ]
          }
        ],
        "code": {
          "coding": [
            {
              "code": "2571-8",
              "system": "http://loinc.org",
              "display": "Triglyceride [Mass/volume] in Serum or Plasma"
            }
          ],
          "text": "Triglyceride [Mass/volume] in Serum or Plasma"
        },
        "valueQuantity": {
          "system": "http://unitsofmeasure.org",
          "value": 133.5,
          "unit": "mg/dL",
          "code": "mg/dL"
        },
        "referenceRange": [
          {
            "low": {
              "value": 35,
              "code": "mg/dL",
              "system": "http://unitsofmeasure.org"
            }
          },
          {
            "high": {
              "value": 150,
              "code": "mg/dL",
              "system": "http://unitsofmeasure.org"
            }
          }
        ],
        "text": {
          "status": "generated",
          "div": "<div xmlns=\"http://www.w3.org/1999/xhtml\"><table class=\"hl7__eu__lab__report\"><tr><th>Test</th><th>08-Apr-2023</th><th>Reference&#xA0;Range</th><th>Unit</th></tr><tr><td>Triglyceride [Mass/volume] in Serum or Plasma</td><td>133.5</td><td>35 - 150</td><td></td><td>mg/dL</td></tr></table></div>"
        },
        "status": "final",
        "subject": {
          "reference": "urn:uuid:7ff15040-d3cc-4dbd-8d79-6d02aec111bb",
          "display": "Pamela Dixon"
        },
        "effectiveDateTime": "2023-04-08T18:20:37Z"
      }
    },
    {
      "fullUrl": "urn:uuid:f5c20339-be8f-45e5-9328-4bc7504a7746",
      "resource": {
        "resourceType": "Observation",
        "id": "f5c20339-be8f-45e5-9328-4bc7504a7746",
        "meta": {
          "profile": [
            "http://hl7.eu/fhir/laboratory/StructureDefinition/Observation-resultslab-eu-lab"
          ]
        },
        "performer": [
          {
            "display": "The Central European Lab"
          }
        ],
        "category": [
          {
            "coding": [
              {
                "system": "http://terminology.hl7.org/CodeSystem/observation-category",
                "code": "laboratory"
              }
            ]
          }
        ],
        "code": {
          "coding": [
            {
              "code": "18262-6",
              "system": "http://loinc.org",
              "display": "Cholesterol in LDL [Mass/volume] in Serum or Plasma by Direct assay"
            }
          ],
          "text": "Cholesterol in LDL [Mass/volume] in Serum or Plasma by Direct assay"
        },
        "valueQuantity": {
          "system": "http://unitsofmeasure.org",
          "value": 118,
          "unit": "mg/dL",
          "code": "mg/dL"
        },
        "referenceRange": [
          {
            "low": {
              "value": 0,
              "code": "mg/dL",
              "system": "http://unitsofmeasure.org"
            }
          },
          {
            "high": {
              "value": 130,
              "code": "mg/dL",
              "system": "http://unitsofmeasure.org"
            }
          }
        ],
        "text": {
          "status": "generated",
          "div": "<div xmlns=\"http://www.w3.org/1999/xhtml\"><table class=\"hl7__eu__lab__report\"><tr><th>Test</th><th>08-Apr-2023</th><th>Reference&#xA0;Range</th><th>Unit</th></tr><tr><td>Cholesterol in LDL [Mass/volume] in Serum or Plasma by Direct assay</td><td>118.0</td><td>0 - 130</td><td></td><td>mg/dL</td></tr></table></div>"
        },
        "status": "final",
        "subject": {
          "reference": "urn:uuid:7ff15040-d3cc-4dbd-8d79-6d02aec111bb",
          "display": "Pamela Dixon"
        },
        "effectiveDateTime": "2023-04-08T18:20:37Z"
      }
    },
    {
      "fullUrl": "urn:uuid:24501766-5bad-445e-a92a-af859b0bd329",
      "resource": {
        "resourceType": "Observation",
        "id": "24501766-5bad-445e-a92a-af859b0bd329",
        "meta": {
          "profile": [
            "http://hl7.eu/fhir/laboratory/StructureDefinition/Observation-resultslab-eu-lab"
          ]
        },
        "performer": [
          {
            "display": "The Central European Lab"
          }
        ],
        "category": [
          {
            "coding": [
              {
                "system": "http://terminology.hl7.org/CodeSystem/observation-category",
                "code": "laboratory"
              }
            ]
          }
        ],
        "code": {
          "coding": [
            {
              "code": "2085-9",
              "system": "http://loinc.org",
              "display": "Cholesterol in HDL [Mass/volume] in Serum or Plasma"
            }
          ],
          "text": "Cholesterol in HDL [Mass/volume] in Serum or Plasma"
        },
        "valueQuantity": {
          "system": "http://unitsofmeasure.org",
          "value": 50.1,
          "unit": "mg/dL",
          "code": "mg/dL"
        },
        "referenceRange": [
          {
            "low": {
              "value": 40,
              "code": "mg/dL",
              "system": "http://unitsofmeasure.org"
            }
          },
          {
            "high": {
              "value": 60,
              "code": "mg/dL",
              "system": "http://unitsofmeasure.org"
            }
          }
        ],
        "text": {
          "status": "generated",
          "div": "<div xmlns=\"http://www.w3.org/1999/xhtml\"><table class=\"hl7__eu__lab__report\"><tr><th>Test</th><th>08-Apr-2023</th><th>Reference&#xA0;Range</th><th>Unit</th></tr><tr><td>Cholesterol in HDL [Mass/volume] in Serum or Plasma</td><td>50.1</td><td>40 - 60</td><td></td><td>mg/dL</td></tr></table></div>"
        },
        "status": "final",
        "subject": {
          "reference": "urn:uuid:7ff15040-d3cc-4dbd-8d79-6d02aec111bb",
          "display": "Pamela Dixon"
        },
        "effectiveDateTime": "2023-04-08T18:20:37Z"
      }
    },
    {
      "fullUrl": "urn:uuid:fe1f8bc3-c739-4f2d-a1e4-f0f3ceb9cf23",
      "resource": {
        "resourceType": "Device",
        "id": "fe1f8bc3-c739-4f2d-a1e4-f0f3ceb9cf23",
        "deviceName": [
          {
            "name": "SYNDERAI Synthetic Generator",
            "type": "manufacturer-name"
          }
        ],
        "version": [
          {
            "value": "5.0"
          }
        ],
        "text": {
          "status": "generated",
          "div": "<div xmlns=\"http://www.w3.org/1999/xhtml\">SYNDERAI Synthetic Generator v5.0</div>"
        },
        "status": "active\"",
        "distinctIdentifier": "synderai-generator-50",
        "manufacturer": "SYNDERAI Project"
      }
    },
    {
      "fullUrl": "urn:uuid:dcd90121-fe64-46d7-943a-9ddcb7cb4173",
      "resource": {
        "resourceType": "Provenance",
        "id": "dcd90121-fe64-46d7-943a-9ddcb7cb4173",
        "target": [
          {
            "reference": "Patient/7ff15040-d3cc-4dbd-8d79-6d02aec111bb"
          },
          {
            "reference": "Bundle/12d62271-5bdd-4567-9d05-581f03e5fb98"
          },
          {
            "reference": "Composition/f279d99a-114d-452d-bc88-4949d4d93a73"
          },
          {
            "reference": "PractitionerRole/cb958b8a-27a8-4ee7-96bb-59254e798ebb"
          },
          {
            "reference": "Organization/1a9cee9f-1d2c-4a35-9905-3fb41a5a2e07"
          },
          {
            "reference": "Practitioner/2816d274-e9a8-4aab-8017-71e255e4218e"
          }
        ],
        "activity": {
          "text": "Synthetic Example Data Generation"
        },
        "policy": [
          "https://synderai.net/synderai-synthetic-data-policy"
        ],
        "agent": [
          {
            "type": {
              "text": "author"
            },
            "who": {
              "reference": "Device/fe1f8bc3-c739-4f2d-a1e4-f0f3ceb9cf23"
            }
          }
        ],
        "reason": [
          {
            "text": "Interoperability Testing and Training (non-clinical use)"
          }
        ],
        "text": {
          "status": "generated",
          "div": "<div xmlns=\"http://www.w3.org/1999/xhtml\">Provenance for SYNDERAI Synthetic Example Data Resource</div>"
        },
        "recorded": "2023-04-08T18:20:37Z"
      }
    }
  ],
  "type": "document",
  "timestamp": "2023-04-08T18:20:37Z"
}
