<Bundle xmlns="http://hl7.org/fhir">
   <id value="bea25003-aa8d-4440-82ad-f77bc84771fa"/>
   <meta>
      <profile value="http://hl7.eu/fhir/eps/StructureDefinition/bundle-eu-eps"/>
   </meta>
   <identifier>
      <system value="urn:oid:2.16.840.1.113883.2.51.999"/>
      <value value="8ac8ff44-d59d-4738-9088-f89e01eb2a0c"/>
      <assigner>
         <display value="HL7 Europe"/>
      </assigner>
   </identifier>
   <type value="document"/>
   <timestamp value="2022-10-06T12:02:45Z"/>
   <entry>
      <fullUrl value="urn:uuid:ab13b8be-6c83-436c-90db-65b95d884d53"/>
      <resource>
         <Composition>
            <id value="ab13b8be-6c83-436c-90db-65b95d884d53"/>
            <meta>
               <profile value="http://hl7.eu/fhir/eps/StructureDefinition/composition-eu-eps"/>
               <security>
                  <system value="http://terminology.hl7.org/CodeSystem/v3-ActReason"/>
                  <code value="HTEST"/>
               </security>
               <security>
                  <system value="http://terminology.hl7.org/CodeSystem/v3-ActReason"/>
                  <code value="TRAIN"/>
               </security>
               <tag>
                  <system value="https://synderai.net/fhir/CodeSystem/tags"/>
                  <code value="synthetic"/>
                  <display value="SYNDERAI Synthetic data"/>
               </tag>
            </meta>
            <identifier>
               <system value="urn:oid:2.16.840.1.113883.2.51.999"/>
               <value value="2f39f99c-c843-4f49-812f-3417206810bd"/>
               <assigner>
                  <display value="HL7 Europe"/>
               </assigner>
            </identifier>
            <status value="final"/>
            <type>
               <coding>
                  <system value="http://loinc.org"/>
                  <code value="60591-5"/>
                  <display value="Patient summary Document"/>
               </coding>
               <text value="Patient summary Document"/>
            </type>
            <subject>
               <reference value="urn:uuid:b29ca268-a90f-4ed5-874c-cba8369aca54"/>
               <display value="Hynek Kubíčková"/>
            </subject>
            <date value="2022-10-06"/>
            <author>
               <reference value="urn:uuid:e6a8a1b5-37a3-4a91-8baf-a039b2d15347"/>
            </author>
            <title value="European Patient Summary"/>
            <confidentiality value="N"/>
            <custodian>
               <reference value="urn:uuid:8c014e56-f8f4-4ef4-b98d-8c9217f68655"/>
            </custodian>
            <section>
               <title value="Problem list"/>
               <code>
                  <coding>
                     <system value="http://loinc.org"/>
                     <code value="11450-4"/>
                     <display value="Problem list - Reported"/>
                  </coding>
               </code>
               <text>
                  <status value="generated"/>
                  <div xmlns="http://www.w3.org/1999/xhtml">
                     <table class="hl7__ips">
                        <tr>
                           <td>No known problems or disabilities</td>
                        </tr>
                     </table>
                  </div>
               </text>
               <entry>
                  <reference value="urn:uuid:ad116520-0aff-4ce8-b91d-716082b7c8b1"/>
               </entry>
            </section>
            <section>
               <title value="Medication list"/>
               <code>
                  <coding>
                     <system value="http://loinc.org"/>
                     <code value="10160-0"/>
                     <display value="History of Medication use Narrative"/>
                  </coding>
               </code>
               <text>
                  <status value="generated"/>
                  <div xmlns="http://www.w3.org/1999/xhtml">
                     <table class="hl7__ips">
                        <tr>
                           <th>Medication</th>
                           <th>Since</th>
                           <th>Form</th>
                           <th>Dosage</th>
                           <th>Reason</th>
                        </tr>
                        <tr>
                           <td>Fexofenadine hydrochloride 30 mg oral tablet</td>
                           <td>
                              <span class="nb">2001-03-17</span>
                           </td>
                           <td>-</td>
                           <td>1 tablet (30 mg) twice daily</td>
                           <td>-</td>
                        </tr>
                        <tr>
                           <td>Epinephrine 1 mg/mL solution for injection</td>
                           <td>
                              <span class="nb">2001-03-17</span>
                           </td>
                           <td>-</td>
                           <td>0.3 mg (1:1000) IM every 5 to 15 minutes as needed</td>
                           <td>-</td>
                        </tr>
                     </table>
                  </div>
               </text>
               <entry>
                  <reference value="urn:uuid:d574a84d-e1fc-4fbf-89b6-c44980e23302"/>
               </entry>
               <entry>
                  <reference value="urn:uuid:552ee3b6-5ec2-4ccf-be7b-ac4233447d19"/>
               </entry>
            </section>
            <section>
               <title value="Immunizations list"/>
               <code>
                  <coding>
                     <system value="http://loinc.org"/>
                     <code value="11369-6"/>
                     <display value="History of Immunization note"/>
                  </coding>
               </code>
               <text>
                  <status value="generated"/>
                  <div xmlns="http://www.w3.org/1999/xhtml">
                     <table class="hl7__ips">
                        <tr>
                           <th>Vaccine</th>
                           <th>Date</th>
                        </tr>
                        <tr>
                           <td>Hepatitis B virus antigen only vaccine product</td>
                           <td>
                              <span class="nb">06-Oct-2022</span>
                           </td>
                        </tr>
                        <tr>
                           <td>Clostridium tetani toxoid antigen adsorbed only vaccine product</td>
                           <td>
                              <span class="nb">06-Oct-2022</span>
                           </td>
                        </tr>
                        <tr>
                           <td>Neisseria meningitidis antigen-containing vaccine product</td>
                           <td>
                              <span class="nb">06-Oct-2022</span>
                           </td>
                        </tr>
                        <tr>
                           <td>Influenza virus antigen only vaccine product</td>
                           <td>
                              <span class="nb">06-Oct-2022</span>
                           </td>
                        </tr>
                        <tr>
                           <td>SARS-CoV-2 mRNA vaccine</td>
                           <td>
                              <span class="nb">13-May-2021</span>
                           </td>
                        </tr>
                     </table>
                  </div>
               </text>
               <entry>
                  <reference value="urn:uuid:14681ea0-2769-40c6-8e29-e317b16a81dd"/>
               </entry>
               <entry>
                  <reference value="urn:uuid:eac7d742-ebcd-473e-9402-4eed4fcf3fe9"/>
               </entry>
               <entry>
                  <reference value="urn:uuid:afb59e3a-7a4c-4215-b2a2-5e62e0333e0f"/>
               </entry>
               <entry>
                  <reference value="urn:uuid:dbc2dcfa-0bb0-45ee-99b8-31440db37854"/>
               </entry>
               <entry>
                  <reference value="urn:uuid:c3607847-25c0-415e-9888-27eadb7b7e86"/>
               </entry>
            </section>
            <section>
               <title value="Procedure History list"/>
               <code>
                  <coding>
                     <system value="http://loinc.org"/>
                     <code value="47519-4"/>
                     <display value="History of Procedures Document"/>
                  </coding>
               </code>
               <text>
                  <status value="generated"/>
                  <div xmlns="http://www.w3.org/1999/xhtml">
                     <table class="hl7__ips">
                        <tr>
                           <th>Procedure</th>
                           <th>Date</th>
                           <th>Reason</th>
                        </tr>
                        <tr>
                           <td>Medication reconciliation</td>
                           <td>
                              <span class="nb">22-Sep-2016</span>
                           </td>
                           <td>-</td>
                        </tr>
                        <tr>
                           <td>Depression screening</td>
                           <td>
                              <span class="nb">21-Apr-2016</span>
                           </td>
                           <td>-</td>
                        </tr>
                        <tr>
                           <td>Anticipatory guidance</td>
                           <td>
                              <span class="nb">21-Apr-2016</span>
                           </td>
                           <td>-</td>
                        </tr>
                        <tr>
                           <td>Assessment of anxiety</td>
                           <td>
                              <span class="nb">21-Apr-2016</span>
                           </td>
                           <td>-</td>
                        </tr>
                        <tr>
                           <td>Depression screening using PHQ-9 (Patient Health Questionnaire 9) score</td>
                           <td>
                              <span class="nb">21-Apr-2016</span>
                           </td>
                           <td>-</td>
                        </tr>
                        <tr>
                           <td>Assessment using Car</td>
                           <td>
                              <span class="nb">21-Apr-2016</span>
                           </td>
                           <td>-</td>
                        </tr>
                        <tr>
                           <td>Assessment of substance use</td>
                           <td>
                              <span class="nb">21-Apr-2016</span>
                           </td>
                           <td>-</td>
                        </tr>
                     </table>
                  </div>
               </text>
               <entry>
                  <reference value="urn:uuid:e30ee8c3-38d9-4a16-aa34-538113136c1c"/>
               </entry>
               <entry>
                  <reference value="urn:uuid:968bc850-8545-4554-9b47-ba064b4b6676"/>
               </entry>
               <entry>
                  <reference value="urn:uuid:081e7834-0635-4c55-a889-3396473fd010"/>
               </entry>
               <entry>
                  <reference value="urn:uuid:832532ca-4c38-4816-92a4-48e643853f28"/>
               </entry>
               <entry>
                  <reference value="urn:uuid:c1e0dbcc-d199-43bd-b701-ba9ad9a2e770"/>
               </entry>
               <entry>
                  <reference value="urn:uuid:bff7a652-5261-48a6-897a-dd773caa09e8"/>
               </entry>
               <entry>
                  <reference value="urn:uuid:5fbe6e36-ac45-4315-84ed-0ac62a471f8f"/>
               </entry>
            </section>
            <section>
               <title value="Allergies and Intolerances"/>
               <code>
                  <coding>
                     <system value="http://loinc.org"/>
                     <code value="48765-2"/>
                     <display value="Allergies and adverse reactions Document"/>
                  </coding>
               </code>
               <text>
                  <status value="generated"/>
                  <div xmlns="http://www.w3.org/1999/xhtml">
                     <table class="hl7__ips">
                        <tr>
                           <th>Allergy/Intolerance</th>
                           <th>Onset Date</th>
                           <th>Status</th>
                           <th>Type</th>
                           <th>Reaction</th>
                        </tr>
                        <tr>
                           <td>Aspirin</td>
                           <td>
                              <span class="nb">2001-03-17</span>
                           </td>
                           <td>active</td>
                           <td>medication</td>
                           <td>Abdominal pain (finding)</td>
                        </tr>
                        <tr>
                           <td>Mold</td>
                           <td>
                              <span class="nb">2001-03-17</span>
                           </td>
                           <td>active</td>
                           <td>environment</td>
                           <td/>
                        </tr>
                        <tr>
                           <td>Eggs (edible)</td>
                           <td>
                              <span class="nb">2001-03-17</span>
                           </td>
                           <td>active</td>
                           <td>food</td>
                           <td>Wheal (finding)</td>
                        </tr>
                        <tr>
                           <td>Latex</td>
                           <td>
                              <span class="nb">2001-03-17</span>
                           </td>
                           <td>active</td>
                           <td>environment</td>
                           <td>Wheal (finding)</td>
                        </tr>
                        <tr>
                           <td>Grass pollen</td>
                           <td>
                              <span class="nb">2001-03-17</span>
                           </td>
                           <td>active</td>
                           <td>environment</td>
                           <td/>
                        </tr>
                        <tr>
                           <td>House dust mite</td>
                           <td>
                              <span class="nb">2001-03-17</span>
                           </td>
                           <td>active</td>
                           <td>environment</td>
                           <td/>
                        </tr>
                        <tr>
                           <td>Animal dander</td>
                           <td>
                              <span class="nb">2001-03-17</span>
                           </td>
                           <td>active</td>
                           <td>environment</td>
                           <td>Rhinoconjunctivitis (disorder)<br/>Wheal (finding)</td>
                        </tr>
                        <tr>
                           <td>Allergy to substance</td>
                           <td>
                              <span class="nb">2001-03-17</span>
                           </td>
                           <td>active</td>
                           <td>environment</td>
                           <td/>
                        </tr>
                        <tr>
                           <td>Fish</td>
                           <td>
                              <span class="nb">2001-03-17</span>
                           </td>
                           <td>active</td>
                           <td>food</td>
                           <td>Dyspnea (finding)<br/>Eruption of skin (disorder)</td>
                        </tr>
                        <tr>
                           <td>Tree pollen</td>
                           <td>
                              <span class="nb">2001-03-17</span>
                           </td>
                           <td>active</td>
                           <td>environment</td>
                           <td/>
                        </tr>
                     </table>
                  </div>
               </text>
               <entry>
                  <reference value="urn:uuid:40d81be5-14c4-4fef-a691-7b21139ddb41"/>
               </entry>
               <entry>
                  <reference value="urn:uuid:d0fd2f8d-c3d4-4576-81d9-4037e63e5654"/>
               </entry>
               <entry>
                  <reference value="urn:uuid:8dd10ab0-2bb8-4884-8de4-817494b82e14"/>
               </entry>
               <entry>
                  <reference value="urn:uuid:cb5ca89f-4251-43ae-9f2d-661eea3a9f3d"/>
               </entry>
               <entry>
                  <reference value="urn:uuid:bf428f45-91f0-45b3-86a4-c793482cc578"/>
               </entry>
               <entry>
                  <reference value="urn:uuid:59a3f878-2686-4584-b201-0e8c82be5a27"/>
               </entry>
               <entry>
                  <reference value="urn:uuid:7f41451b-47c0-4141-b43b-e74bf02712bc"/>
               </entry>
               <entry>
                  <reference value="urn:uuid:fedc38c2-debf-47ff-b330-1f3d12544218"/>
               </entry>
               <entry>
                  <reference value="urn:uuid:67ff3d53-7961-45fa-85bb-d9a3a062da82"/>
               </entry>
               <entry>
                  <reference value="urn:uuid:199ab826-31a6-4d7e-a3c1-02b3d7ac61d9"/>
               </entry>
            </section>
            <section>
               <title value="Care Plan"/>
               <code>
                  <coding>
                     <system value="http://loinc.org"/>
                     <code value="18776-5"/>
                     <display value="Plan of care note"/>
                  </coding>
               </code>
               <text>
                  <status value="generated"/>
                  <div xmlns="http://www.w3.org/1999/xhtml">
                     <table class="hl7__ips">
                        <tr>
                           <th>Active Planned Care / Goals</th>
                           <th>Start Date</th>
                           <th>Reason</th>
                        </tr>
                        <tr>
                           <td>Self-care interventions</td>
                           <td>
                              <span class="nb">05-Mar-2001</span>
                           </td>
                           <td>-</td>
                        </tr>
                     </table>
                  </div>
               </text>
               <entry>
                  <reference value="urn:uuid:0ea91fc6-2b89-4e3b-8d83-6049b8438a24"/>
               </entry>
            </section>
            <section>
               <title value="Vital Signs"/>
               <code>
                  <coding>
                     <system value="http://loinc.org"/>
                     <code value="8716-3"/>
                     <display value="Vital signs note"/>
                  </coding>
               </code>
               <text>
                  <status value="generated"/>
                  <div xmlns="http://www.w3.org/1999/xhtml">
                     <table class="hl7__ips">
                        <tr>
                           <th>Vital Signs</th>
                           <th>2022-10-06</th>
                           <th>2020-07-17</th>
                        </tr>
                        <tr>
                           <td>Body Height</td>
                           <td>188.5 cm</td>
                           <td>-</td>
                        </tr>
                        <tr>
                           <td>Pain severity - 0-10 verbal numeric rating [Score] - Reported</td>
                           <td>3 {score}</td>
                           <td>-</td>
                        </tr>
                        <tr>
                           <td>Body Weight</td>
                           <td>88.1 kg</td>
                           <td>84.4 kg</td>
                        </tr>
                        <tr>
                           <td>Body mass index (BMI) [Ratio]</td>
                           <td>24.8 kg/m2</td>
                           <td>-</td>
                        </tr>
                        <tr>
                           <td>Diastolic Blood Pressure</td>
                           <td>88 mm[Hg]</td>
                           <td>86 mm[Hg]</td>
                        </tr>
                        <tr>
                           <td>Systolic Blood Pressure</td>
                           <td>110 mm[Hg]</td>
                           <td>113 mm[Hg]</td>
                        </tr>
                        <tr>
                           <td>Heart rate</td>
                           <td>83 /min</td>
                           <td>178.2 /min</td>
                        </tr>
                        <tr>
                           <td>Respiratory rate</td>
                           <td>14 /min</td>
                           <td>26.4 /min</td>
                        </tr>
                        <tr>
                           <td>Body temperature</td>
                           <td>-</td>
                           <td>41.7 Cel</td>
                        </tr>
                        <tr>
                           <td>Oxygen saturation in Arterial blood</td>
                           <td>-</td>
                           <td>84.8 %</td>
                        </tr>
                     </table>
                  </div>
               </text>
               <entry>
                  <reference value="urn:uuid:3856fbf0-a41d-4720-b6df-921f66e5b6b3"/>
               </entry>
               <entry>
                  <reference value="urn:uuid:92693076-30b3-46be-acbb-fe569d630a9a"/>
               </entry>
               <entry>
                  <reference value="urn:uuid:1ebda6ad-6d8c-4768-aa9a-a0ffef1e49db"/>
               </entry>
               <entry>
                  <reference value="urn:uuid:c9c4e0e7-4f7b-4940-b659-bc47e046b8d8"/>
               </entry>
               <entry>
                  <reference value="urn:uuid:d01cf4a2-edd0-45ea-bf11-9d07691968f7"/>
               </entry>
               <entry>
                  <reference value="urn:uuid:d1ad68bb-5e67-4393-95ee-e1b3fafab83a"/>
               </entry>
               <entry>
                  <reference value="urn:uuid:f4eb7452-e596-4e64-ba8c-9d8436257b92"/>
               </entry>
               <entry>
                  <reference value="urn:uuid:f9d9872c-4da2-4e08-9d6a-9dbb33e14b9c"/>
               </entry>
               <entry>
                  <reference value="urn:uuid:94684f8b-0233-4393-bf89-2be5c4bb4b86"/>
               </entry>
               <entry>
                  <reference value="urn:uuid:5d68cb0d-71ff-4b73-893e-7805d8b3f327"/>
               </entry>
               <entry>
                  <reference value="urn:uuid:02677e17-79c0-499b-ad54-881d1acef8ad"/>
               </entry>
               <entry>
                  <reference value="urn:uuid:25ead2c9-54d7-42f5-a29d-54a4ba297a72"/>
               </entry>
               <entry>
                  <reference value="urn:uuid:5c29e57c-066c-4c0f-97c7-4e6237a0c6e8"/>
               </entry>
               <entry>
                  <reference value="urn:uuid:58f39ef5-b9bc-4493-a94a-3331fac87b2b"/>
               </entry>
               <entry>
                  <reference value="urn:uuid:0c179d83-d4fb-40f8-b8fb-569d0753e674"/>
               </entry>
            </section>
            <section>
               <title value="Relevant diagnostic tests/laboratory data"/>
               <code>
                  <coding>
                     <system value="http://loinc.org"/>
                     <code value="30954-2"/>
                     <display value="Relevant diagnostic tests/laboratory data note"/>
                  </coding>
               </code>
               <text>
                  <status value="generated"/>
                  <div xmlns="http://www.w3.org/1999/xhtml">
                     <table class="hl7__ips">
                        <table class="hl7__ips">
                           <thead>
                              <tr>
                                 <th>Recent Lab Observations</th>
                                 <th>06-OCT-2022</th>
                                 <th>Reference Range</th>
                                 <th>Unit</th>
                              </tr>
                           </thead>
                           <tbody>
                              <tr>
                                 <td>Leukocytes [#/volume] in Blood by Automated count</td>
                                 <td>8.2</td>
                                 <td>3.5 - 10.5</td>
                                 <td>10*3/uL</td>
                              </tr>
                              <tr>
                                 <td>Erythrocytes [#/volume] in Blood by Automated count</td>
                                 <td>
                                    <strong>4.0 L</strong>
                                 </td>
                                 <td>4.5 - 6.2</td>
                                 <td>10*6/uL</td>
                              </tr>
                              <tr>
                                 <td>Hemoglobin [Mass/volume] in Blood</td>
                                 <td>16.0</td>
                                 <td>14 - 18</td>
                                 <td>g/dL</td>
                              </tr>
                              <tr>
                                 <td>Hematocrit [Volume Fraction] of Blood by Automated count</td>
                                 <td>48.7</td>
                                 <td>38 - 52</td>
                                 <td>%</td>
                              </tr>
                              <tr>
                                 <td>MCV [Entitic volume] by Automated count</td>
                                 <td>86.5</td>
                                 <td>80 - 98</td>
                                 <td>fL</td>
                              </tr>
                              <tr>
                                 <td>MCH [Entitic mass] by Automated count</td>
                                 <td>29.8</td>
                                 <td>27 - 33</td>
                                 <td>pg</td>
                              </tr>
                              <tr>
                                 <td>MCHC [Mass/volume] by Automated count</td>
                                 <td>33.8</td>
                                 <td>32 - 36</td>
                                 <td>g/dL</td>
                              </tr>
                              <tr>
                                 <td>Erythrocyte distribution width [Entitic volume] by Automated count</td>
                                 <td>45.7</td>
                                 <td>36 - 55</td>
                                 <td>fL</td>
                              </tr>
                              <tr>
                                 <td>Platelets [#/volume] in Blood by Automated count</td>
                                 <td>251.7</td>
                                 <td>150 - 350</td>
                                 <td>10*3/uL</td>
                              </tr>
                              <tr>
                                 <td>Platelet distribution width [Entitic volume] in Blood by Automated count</td>
                                 <td>377.3</td>
                                 <td>150 - 450</td>
                                 <td>fL</td>
                              </tr>
                              <tr>
                                 <td>Platelet mean volume [Entitic volume] in Blood by Automated count</td>
                                 <td>11.8</td>
                                 <td>9.8 - 13.8</td>
                                 <td>fL</td>
                              </tr>
                           </tbody>
                        </table>
                     </table>
                  </div>
               </text>
               <entry>
                  <reference value="urn:uuid:78209227-811c-43bc-a198-99d225bb299b"/>
               </entry>
               <entry>
                  <reference value="urn:uuid:ff985172-46ca-4456-8200-1b7f004a29ee"/>
               </entry>
               <entry>
                  <reference value="urn:uuid:eed3dbbf-7c56-40ed-bc46-2b8a0afc01d5"/>
               </entry>
               <entry>
                  <reference value="urn:uuid:b249e798-c6ad-48d4-9882-934e41825ee0"/>
               </entry>
               <entry>
                  <reference value="urn:uuid:b86f83ec-8b8c-40e2-92d6-a6af5177f20d"/>
               </entry>
               <entry>
                  <reference value="urn:uuid:9432bde0-27da-4a74-b022-342771abbb68"/>
               </entry>
               <entry>
                  <reference value="urn:uuid:d09a6af7-8c5b-456e-be8f-3f7025ad178f"/>
               </entry>
               <entry>
                  <reference value="urn:uuid:ef482f8b-827a-4734-84eb-767c82016d2b"/>
               </entry>
               <entry>
                  <reference value="urn:uuid:320ea43e-11c9-40ca-a19c-3c60a43404c4"/>
               </entry>
               <entry>
                  <reference value="urn:uuid:6d011450-ed62-4c68-aefc-100b40c68921"/>
               </entry>
               <entry>
                  <reference value="urn:uuid:decfaa92-97c8-4517-ba74-34beaab26f83"/>
               </entry>
            </section>
         </Composition>
      </resource>
   </entry>
   <entry>
      <fullUrl value="urn:uuid:b29ca268-a90f-4ed5-874c-cba8369aca54"/>
      <resource>
         <Patient>
            <id value="b29ca268-a90f-4ed5-874c-cba8369aca54"/>
            <meta>
               <profile value="http://hl7.eu/fhir/eps/StructureDefinition/patient-eu-eps"/>
               <security>
                  <system value="http://terminology.hl7.org/CodeSystem/v3-ActReason"/>
                  <code value="HTEST"/>
               </security>
               <security>
                  <system value="http://terminology.hl7.org/CodeSystem/v3-ActReason"/>
                  <code value="TRAIN"/>
               </security>
               <tag>
                  <system value="https://synderai.net/fhir/CodeSystem/tags"/>
                  <code value="synthetic"/>
                  <display value="SYNDERAI Synthetic data"/>
               </tag>
            </meta>
            <text>
               <status value="generated"/>
               <div xmlns="http://www.w3.org/1999/xhtml">
                  <table class="hl7__ips">
                     <tr>
                        <td>Hynek Kubíčková</td>
                        <td>male</td>
                        <td>24-Jun-2005</td>
                     </tr>
                  </table>
               </div>
            </text>
            <extension url="http://hl7.org/fhir/StructureDefinition/patient-nationality">
               <valueCodeableConcept>
                  <coding>
                     <system value="http://hl7.org/fhir/ValueSet/country"/>
                     <code value="CZ"/>
                  </coding>
               </valueCodeableConcept>
            </extension>
            <identifier>
               <type>
                  <coding>
                     <system value="http://terminology.hl7.org/CodeSystem/v2-0203"/>
                     <code value="PT"/>
                  </coding>
               </type>
               <system value="http://ec.europa.eu/identifier/eci"/>
               <value value="9771-756399-9"/>
            </identifier>
            <identifier>
               <type>
                  <coding>
                     <system value="http://terminology.hl7.org/CodeSystem/v2-0203"/>
                     <code value="MR"/>
                  </coding>
               </type>
               <system value="http://local.setting.eu/identifier"/>
               <value value="0a9c3ea6-b526-4dcc-cde1-545cdfca14b2"/>
            </identifier>
            <name>
               <family value="Kubíčková"/>
            </name>
            <name>
               <given value="Hynek"/>
            </name>
            <name>
               <text value="Hynek Kubíčková"/>
            </name>
            <telecom>
               <system value="phone"/>
               <value value="+420 605 458 784"/>
            </telecom>
            <gender value="male"/>
            <birthDate value="2005-06-24"/>
            <address>
               <use value="home"/>
               <type value="physical"/>
               <line value="Vraňanská 9"/>
               <city value="Frýdlant nad Ostravicí"/>
               <postalCode value="739 11"/>
               <country value="Czechia"/>
            </address>
         </Patient>
      </resource>
   </entry>
   <entry>
      <fullUrl value="urn:uuid:e6a8a1b5-37a3-4a91-8baf-a039b2d15347"/>
      <resource>
         <PractitionerRole>
            <id value="e6a8a1b5-37a3-4a91-8baf-a039b2d15347"/>
            <meta>
               <profile value="http://hl7.eu/fhir/base/StructureDefinition/practitionerRole-eu"/>
            </meta>
            <text>
               <status value="generated"/>
               <div xmlns="http://www.w3.org/1999/xhtml">
                  <table class="hl7__ips">Provider Role Id e6a8a1b5-37a3-4a91-8baf-a039b2d15347</table>
               </div>
            </text>
            <practitioner>
               <reference value="urn:uuid:8cee5b02-d63b-4d62-89fb-0317ebdfd0c2"/>
            </practitioner>
            <organization>
               <reference value="urn:uuid:8c014e56-f8f4-4ef4-b98d-8c9217f68655"/>
            </organization>
         </PractitionerRole>
      </resource>
   </entry>
   <entry>
      <fullUrl value="urn:uuid:8cee5b02-d63b-4d62-89fb-0317ebdfd0c2"/>
      <resource>
         <Practitioner>
            <id value="8cee5b02-d63b-4d62-89fb-0317ebdfd0c2"/>
            <meta>
               <profile value="http://hl7.eu/fhir/base/StructureDefinition/practitioner-eu"/>
            </meta>
            <text>
               <status value="generated"/>
               <div xmlns="http://www.w3.org/1999/xhtml">
                  <table class="hl7__ips">Dr. Hel Ping</table>
               </div>
            </text>
            <name>
               <family value="Ping"/>
               <given value="Hel"/>
               <prefix value="Dr."/>
            </name>
         </Practitioner>
      </resource>
   </entry>
   <entry>
      <fullUrl value="urn:uuid:8c014e56-f8f4-4ef4-b98d-8c9217f68655"/>
      <resource>
         <Organization>
            <id value="8c014e56-f8f4-4ef4-b98d-8c9217f68655"/>
            <meta>
               <profile value="http://hl7.eu/fhir/base/StructureDefinition/organization-eu"/>
            </meta>
            <text>
               <status value="generated"/>
               <div xmlns="http://www.w3.org/1999/xhtml">
                  <table class="hl7__ips">Beskydské rehabilitační centrum</table>
               </div>
            </text>
            <identifier>
               <system value="urn:oid:2.16.840.1.113883.2.51.999"/>
               <value value="4e6553b1-99ed-4cf2-8ff7-06ab7906fe21"/>
               <assigner>
                  <display value="HL7 Europe"/>
               </assigner>
            </identifier>
            <name value="Beskydské rehabilitační centrum"/>
            <address>
               <city value="Čeladná"/>
               <postalCode value="739 12"/>
               <country value="Czechia"/>
            </address>
         </Organization>
      </resource>
   </entry>
   <entry>
      <fullUrl value="urn:uuid:ad116520-0aff-4ce8-b91d-716082b7c8b1"/>
      <resource>
         <Condition>
            <id value="ad116520-0aff-4ce8-b91d-716082b7c8b1"/>
            <meta>
               <profile value="http://hl7.org/fhir/uv/ips/StructureDefinition/Condition-uv-ips"/>
            </meta>
            <text>
               <status value="generated"/>
               <div xmlns="http://www.w3.org/1999/xhtml">
                  <table class="hl7__ips">
                     <tr>
                        <td>No known problems or disabilities</td>
                     </tr>
                  </table>
               </div>
            </text>
            <code>
               <coding>
                  <system value="http://snomed.info/sct"/>
                  <code value="160245001"/>
                  <display value="No current problems or disability (situation)"/>
               </coding>
            </code>
            <subject>
               <reference value="Patient/b29ca268-a90f-4ed5-874c-cba8369aca54"/>
               <display value="Hynek Kubíčková"/>
            </subject>
            <onsetDateTime>
               <extension url="http://hl7.org/fhir/StructureDefinition/data-absent-reason">
                  <valueCode value="unknown&#34;"/>
               </extension>
            </onsetDateTime>
         </Condition>
      </resource>
   </entry>
   <entry>
      <fullUrl value="urn:uuid:0dddab27-e19b-45c9-8eaf-65cbe8a93c7c"/>
      <resource>
         <Medication>
            <id value="0dddab27-e19b-45c9-8eaf-65cbe8a93c7c"/>
            <meta>
               <profile value="http://hl7.eu/fhir/eps/StructureDefinition/Medication-eu-eps"/>
            </meta>
            <text>
               <status value="generated"/>
               <div xmlns="http://www.w3.org/1999/xhtml">Fexofenadine hydrochloride 30 mg oral tablet</div>
            </text>
            <code>
               <coding>
                  <system value="http://snomed.info/sct"/>
                  <code value="371748006"/>
                  <display value="Fexofenadine hydrochloride 30 mg oral tablet"/>
               </coding>
               <text value="Fexofenadine hydrochloride 30 mg oral tablet"/>
            </code>
         </Medication>
      </resource>
   </entry>
   <entry>
      <fullUrl value="urn:uuid:d574a84d-e1fc-4fbf-89b6-c44980e23302"/>
      <resource>
         <MedicationStatement>
            <id value="d574a84d-e1fc-4fbf-89b6-c44980e23302"/>
            <meta>
               <profile value="http://hl7.eu/fhir/eps/StructureDefinition/MedicationStatement-eu-eps"/>
            </meta>
            <text>
               <status value="generated"/>
               <div xmlns="http://www.w3.org/1999/xhtml">
                  <table class="hl7__ips first25">
                     <tr>
                        <th>Medication</th>
                        <th>Since</th>
                        <th>Form</th>
                        <th>Dosage</th>
                        <th>Reason</th>
                     </tr>
                     <tr>
                        <td>Fexofenadine hydrochloride 30 mg oral tablet</td>
                        <td>
                           <span class="nb">2001-03-17</span>
                        </td>
                        <td>-</td>
                        <td>1 tablet (30 mg) twice daily</td>
                        <td>-</td>
                     </tr>
                  </table>
               </div>
            </text>
            <status value="active"/>
            <medicationReference>
               <reference value="urn:uuid:0dddab27-e19b-45c9-8eaf-65cbe8a93c7c"/>
               <display value="Fexofenadine hydrochloride 30 mg oral tablet"/>
            </medicationReference>
            <subject>
               <reference value="urn:uuid:b29ca268-a90f-4ed5-874c-cba8369aca54"/>
               <display value="Hynek Kubíčková"/>
            </subject>
            <effectivePeriod>
               <start value="2001-03-17"/>
            </effectivePeriod>
            <dosage>
               <text value="1 tablet (30 mg) twice daily"/>
               <timing>
                  <repeat>
                     <frequency value="2"/>
                     <period value="1"/>
                     <periodUnit value="d"/>
                  </repeat>
               </timing>
               <asNeededBoolean value="false"/>
               <doseAndRate>
                  <doseQuantity>
                     <value value="1"/>
                     <unit value="{tbl}"/>
                     <system value="$ucum"/>
                     <code value="{tbl}"/>
                  </doseQuantity>
               </doseAndRate>
            </dosage>
         </MedicationStatement>
      </resource>
   </entry>
   <entry>
      <fullUrl value="urn:uuid:cfc5797f-b89d-4ad0-a893-62c992f2c56d"/>
      <resource>
         <Medication>
            <id value="cfc5797f-b89d-4ad0-a893-62c992f2c56d"/>
            <meta>
               <profile value="http://hl7.eu/fhir/eps/StructureDefinition/Medication-eu-eps"/>
            </meta>
            <text>
               <status value="generated"/>
               <div xmlns="http://www.w3.org/1999/xhtml">Epinephrine 1 mg/mL solution for injection</div>
            </text>
            <code>
               <coding>
                  <system value="http://snomed.info/sct"/>
                  <code value="781862008"/>
                  <display value="Epinephrine 1 mg/mL solution for injection"/>
               </coding>
               <text value="Epinephrine 1 mg/mL solution for injection"/>
            </code>
         </Medication>
      </resource>
   </entry>
   <entry>
      <fullUrl value="urn:uuid:552ee3b6-5ec2-4ccf-be7b-ac4233447d19"/>
      <resource>
         <MedicationStatement>
            <id value="552ee3b6-5ec2-4ccf-be7b-ac4233447d19"/>
            <meta>
               <profile value="http://hl7.eu/fhir/eps/StructureDefinition/MedicationStatement-eu-eps"/>
            </meta>
            <text>
               <status value="generated"/>
               <div xmlns="http://www.w3.org/1999/xhtml">
                  <table class="hl7__ips first25">
                     <tr>
                        <th>Medication</th>
                        <th>Since</th>
                        <th>Form</th>
                        <th>Dosage</th>
                        <th>Reason</th>
                     </tr>
                     <tr>
                        <td>Epinephrine 1 mg/mL solution for injection</td>
                        <td>
                           <span class="nb">2001-03-17</span>
                        </td>
                        <td>-</td>
                        <td>0.3 mg (1:1000) IM every 5 to 15 minutes as needed</td>
                        <td>-</td>
                     </tr>
                  </table>
               </div>
            </text>
            <status value="active"/>
            <medicationReference>
               <reference value="urn:uuid:cfc5797f-b89d-4ad0-a893-62c992f2c56d"/>
               <display value="Epinephrine 1 mg/mL solution for injection"/>
            </medicationReference>
            <subject>
               <reference value="urn:uuid:b29ca268-a90f-4ed5-874c-cba8369aca54"/>
               <display value="Hynek Kubíčková"/>
            </subject>
            <effectivePeriod>
               <start value="2001-03-17"/>
            </effectivePeriod>
            <dosage>
               <text value="0.3 mg (1:1000) IM every 5 to 15 minutes as needed"/>
               <timing>
                  <repeat>
                     <frequency value="1"/>
                     <period value="5"/>
                     <periodUnit value="min"/>
                  </repeat>
               </timing>
               <asNeededBoolean value="true"/>
               <doseAndRate>
                  <doseQuantity>
                     <value value="0.3"/>
                     <unit value="mg"/>
                     <system value="$ucum"/>
                     <code value="mg"/>
                  </doseQuantity>
               </doseAndRate>
            </dosage>
         </MedicationStatement>
      </resource>
   </entry>
   <entry>
      <fullUrl value="urn:uuid:14681ea0-2769-40c6-8e29-e317b16a81dd"/>
      <resource>
         <Immunization>
            <id value="14681ea0-2769-40c6-8e29-e317b16a81dd"/>
            <meta>
               <profile value="http://hl7.org/fhir/uv/ips/StructureDefinition/Immunization-uv-ips"/>
            </meta>
            <text>
               <status value="generated"/>
               <div xmlns="http://www.w3.org/1999/xhtml">
                  <table class="hl7__ips">
                     <tr>
                        <td>Hepatitis B virus antigen only vaccine product</td>
                        <td>
                           <span class="nb">06-Oct-2022</span>
                        </td>
                     </tr>
                  </table>
               </div>
            </text>
            <status value="completed"/>
            <vaccineCode>
               <coding>
                  <system value="http://snomed.info/sct"/>
                  <code value="871822003"/>
                  <display value="Vaccine product containing Hepatitis B virus antigen"/>
               </coding>
               <coding>
                  <system value="http://www.whocc.no/atc"/>
                  <code value="J07BC01"/>
                  <display value="Hepatitis B vaccines"/>
               </coding>
               <text value="Hepatitis B virus antigen only vaccine product"/>
            </vaccineCode>
            <patient>
               <reference value="urn:uuid:b29ca268-a90f-4ed5-874c-cba8369aca54"/>
               <display value="Hynek Kubíčková"/>
            </patient>
            <occurrenceDateTime value="2022-10-06"/>
            <lotNumber value="SA-HpXApQLj"/>
            <expirationDate value="2022-11-25"/>
            <site>
               <coding>
                  <system value="http://snomed.info/sct"/>
                  <code value="244979005"/>
                  <display value="Entire muscle of upper arm"/>
               </coding>
               <text value="Entire muscle of upper arm"/>
            </site>
            <route>
               <coding>
                  <system value="http://snomed.info/sct"/>
                  <code value="78421000"/>
                  <display value="Intramuscular route"/>
               </coding>
               <text value="Intramuscular route"/>
            </route>
         </Immunization>
      </resource>
   </entry>
   <entry>
      <fullUrl value="urn:uuid:eac7d742-ebcd-473e-9402-4eed4fcf3fe9"/>
      <resource>
         <Immunization>
            <id value="eac7d742-ebcd-473e-9402-4eed4fcf3fe9"/>
            <meta>
               <profile value="http://hl7.org/fhir/uv/ips/StructureDefinition/Immunization-uv-ips"/>
            </meta>
            <text>
               <status value="generated"/>
               <div xmlns="http://www.w3.org/1999/xhtml">
                  <table class="hl7__ips">
                     <tr>
                        <td>Clostridium tetani toxoid antigen adsorbed only vaccine product</td>
                        <td>
                           <span class="nb">06-Oct-2022</span>
                        </td>
                     </tr>
                  </table>
               </div>
            </text>
            <status value="completed"/>
            <vaccineCode>
               <coding>
                  <system value="http://snomed.info/sct"/>
                  <code value="777725002"/>
                  <display value="Vaccine product containing only Clostridium tetani toxoid antigen adsorbed"/>
               </coding>
               <coding>
                  <system value="http://www.whocc.no/atc"/>
                  <code value="J07AM51"/>
                  <display value="Diphtheria-tetanus vaccines, adult type"/>
               </coding>
               <text value="Clostridium tetani toxoid antigen adsorbed only vaccine product"/>
            </vaccineCode>
            <patient>
               <reference value="urn:uuid:b29ca268-a90f-4ed5-874c-cba8369aca54"/>
               <display value="Hynek Kubíčková"/>
            </patient>
            <occurrenceDateTime value="2022-10-06"/>
            <lotNumber value="NY-Ao7u4sYeh"/>
            <expirationDate value="2023-06-24"/>
            <site>
               <coding>
                  <system value="http://snomed.info/sct"/>
                  <code value="244979005"/>
                  <display value="Entire muscle of upper arm"/>
               </coding>
               <text value="Entire muscle of upper arm"/>
            </site>
            <route>
               <coding>
                  <system value="http://snomed.info/sct"/>
                  <code value="78421000"/>
                  <display value="Intramuscular route"/>
               </coding>
               <text value="Intramuscular route"/>
            </route>
         </Immunization>
      </resource>
   </entry>
   <entry>
      <fullUrl value="urn:uuid:afb59e3a-7a4c-4215-b2a2-5e62e0333e0f"/>
      <resource>
         <Immunization>
            <id value="afb59e3a-7a4c-4215-b2a2-5e62e0333e0f"/>
            <meta>
               <profile value="http://hl7.org/fhir/uv/ips/StructureDefinition/Immunization-uv-ips"/>
            </meta>
            <text>
               <status value="generated"/>
               <div xmlns="http://www.w3.org/1999/xhtml">
                  <table class="hl7__ips">
                     <tr>
                        <td>Neisseria meningitidis antigen-containing vaccine product</td>
                        <td>
                           <span class="nb">06-Oct-2022</span>
                        </td>
                     </tr>
                  </table>
               </div>
            </text>
            <status value="completed"/>
            <vaccineCode>
               <coding>
                  <system value="http://snomed.info/sct"/>
                  <code value="836401009"/>
                  <display value="Vaccine product containing Neisseria meningitidis antigen"/>
               </coding>
               <coding>
                  <system value="http://www.whocc.no/atc"/>
                  <code value="J07AH08"/>
                  <display value="Meningococcal vaccines, conjugated"/>
               </coding>
               <text value="Neisseria meningitidis antigen-containing vaccine product"/>
            </vaccineCode>
            <patient>
               <reference value="urn:uuid:b29ca268-a90f-4ed5-874c-cba8369aca54"/>
               <display value="Hynek Kubíčková"/>
            </patient>
            <occurrenceDateTime value="2022-10-06"/>
            <lotNumber value="CX-yBQVBv5L"/>
            <expirationDate value="2023-03-27"/>
            <site>
               <coding>
                  <system value="http://snomed.info/sct"/>
                  <code value="244979005"/>
                  <display value="Entire muscle of upper arm"/>
               </coding>
               <text value="Entire muscle of upper arm"/>
            </site>
            <route>
               <coding>
                  <system value="http://snomed.info/sct"/>
                  <code value="78421000"/>
                  <display value="Intramuscular route"/>
               </coding>
               <text value="Intramuscular route"/>
            </route>
         </Immunization>
      </resource>
   </entry>
   <entry>
      <fullUrl value="urn:uuid:dbc2dcfa-0bb0-45ee-99b8-31440db37854"/>
      <resource>
         <Immunization>
            <id value="dbc2dcfa-0bb0-45ee-99b8-31440db37854"/>
            <meta>
               <profile value="http://hl7.org/fhir/uv/ips/StructureDefinition/Immunization-uv-ips"/>
            </meta>
            <text>
               <status value="generated"/>
               <div xmlns="http://www.w3.org/1999/xhtml">
                  <table class="hl7__ips">
                     <tr>
                        <td>Influenza virus antigen only vaccine product</td>
                        <td>
                           <span class="nb">06-Oct-2022</span>
                        </td>
                     </tr>
                  </table>
               </div>
            </text>
            <status value="completed"/>
            <vaccineCode>
               <coding>
                  <system value="http://snomed.info/sct"/>
                  <code value="1181000221105"/>
                  <display value="Vaccine product containing Influenza virus antigen"/>
               </coding>
               <coding>
                  <system value="http://www.whocc.no/atc"/>
                  <code value="J07BB02"/>
                  <display value="Influenza, inactivated, split virus"/>
               </coding>
               <text value="Influenza virus antigen only vaccine product"/>
            </vaccineCode>
            <patient>
               <reference value="urn:uuid:b29ca268-a90f-4ed5-874c-cba8369aca54"/>
               <display value="Hynek Kubíčková"/>
            </patient>
            <occurrenceDateTime value="2022-10-06"/>
            <lotNumber value="DU-CKMFRPk"/>
            <expirationDate value="2023-05-28"/>
            <site>
               <coding>
                  <system value="http://snomed.info/sct"/>
                  <code value="244979005"/>
                  <display value="Entire muscle of upper arm"/>
               </coding>
               <text value="Entire muscle of upper arm"/>
            </site>
            <route>
               <coding>
                  <system value="http://snomed.info/sct"/>
                  <code value="78421000"/>
                  <display value="Intramuscular route"/>
               </coding>
               <text value="Intramuscular route"/>
            </route>
         </Immunization>
      </resource>
   </entry>
   <entry>
      <fullUrl value="urn:uuid:c3607847-25c0-415e-9888-27eadb7b7e86"/>
      <resource>
         <Immunization>
            <id value="c3607847-25c0-415e-9888-27eadb7b7e86"/>
            <meta>
               <profile value="http://hl7.org/fhir/uv/ips/StructureDefinition/Immunization-uv-ips"/>
            </meta>
            <text>
               <status value="generated"/>
               <div xmlns="http://www.w3.org/1999/xhtml">
                  <table class="hl7__ips">
                     <tr>
                        <td>SARS-CoV-2 mRNA vaccine</td>
                        <td>
                           <span class="nb">13-May-2021</span>
                        </td>
                     </tr>
                  </table>
               </div>
            </text>
            <status value="completed"/>
            <vaccineCode>
               <coding>
                  <system value="http://snomed.info/sct"/>
                  <code value="1119349007"/>
                  <display value="Vaccine product containing SARS-CoV-2 mRNA"/>
               </coding>
               <coding>
                  <system value="http://www.whocc.no/atc"/>
                  <code value="J07BX03"/>
                  <display value="COVID-19 mRNA vaccines"/>
               </coding>
               <text value="SARS-CoV-2 mRNA vaccine"/>
            </vaccineCode>
            <patient>
               <reference value="urn:uuid:b29ca268-a90f-4ed5-874c-cba8369aca54"/>
               <display value="Hynek Kubíčková"/>
            </patient>
            <occurrenceDateTime value="2021-05-13"/>
            <lotNumber value="MY-tFnX"/>
            <expirationDate value="2022-04-15"/>
            <site>
               <coding>
                  <system value="http://snomed.info/sct"/>
                  <code value="244979005"/>
                  <display value="Entire muscle of upper arm"/>
               </coding>
               <text value="Entire muscle of upper arm"/>
            </site>
            <route>
               <coding>
                  <system value="http://snomed.info/sct"/>
                  <code value="78421000"/>
                  <display value="Intramuscular route"/>
               </coding>
               <text value="Intramuscular route"/>
            </route>
         </Immunization>
      </resource>
   </entry>
   <entry>
      <fullUrl value="urn:uuid:e30ee8c3-38d9-4a16-aa34-538113136c1c"/>
      <resource>
         <Procedure>
            <id value="e30ee8c3-38d9-4a16-aa34-538113136c1c"/>
            <meta>
               <profile value="http://hl7.org/fhir/uv/ips/StructureDefinition/Procedure-uv-ips"/>
            </meta>
            <text>
               <status value="generated"/>
               <div xmlns="http://www.w3.org/1999/xhtml">
                  <table class="hl7__ips">
                     <tr>
                        <td>Medication reconciliation</td>
                        <td>
                           <span class="nb">22-Sep-2016</span>
                        </td>
                        <td>-</td>
                     </tr>
                  </table>
               </div>
            </text>
            <status value="completed"/>
            <code>
               <coding>
                  <system value="http://snomed.info/sct"/>
                  <code value="430193006"/>
                  <display value="Medication Reconciliation (procedure)"/>
               </coding>
               <text value="Medication reconciliation"/>
            </code>
            <subject>
               <reference value="urn:uuid:"/>
               <display value="Hynek Kubíčková"/>
            </subject>
            <performedDateTime value="2016-09-22"/>
         </Procedure>
      </resource>
   </entry>
   <entry>
      <fullUrl value="urn:uuid:968bc850-8545-4554-9b47-ba064b4b6676"/>
      <resource>
         <Procedure>
            <id value="968bc850-8545-4554-9b47-ba064b4b6676"/>
            <meta>
               <profile value="http://hl7.org/fhir/uv/ips/StructureDefinition/Procedure-uv-ips"/>
            </meta>
            <text>
               <status value="generated"/>
               <div xmlns="http://www.w3.org/1999/xhtml">
                  <table class="hl7__ips">
                     <tr>
                        <td>Depression screening</td>
                        <td>
                           <span class="nb">21-Apr-2016</span>
                        </td>
                        <td>-</td>
                     </tr>
                  </table>
               </div>
            </text>
            <status value="completed"/>
            <code>
               <coding>
                  <system value="http://snomed.info/sct"/>
                  <code value="171207006"/>
                  <display value="Depression screening (procedure)"/>
               </coding>
               <text value="Depression screening"/>
            </code>
            <subject>
               <reference value="urn:uuid:"/>
               <display value="Hynek Kubíčková"/>
            </subject>
            <performedDateTime value="2016-04-21"/>
         </Procedure>
      </resource>
   </entry>
   <entry>
      <fullUrl value="urn:uuid:081e7834-0635-4c55-a889-3396473fd010"/>
      <resource>
         <Procedure>
            <id value="081e7834-0635-4c55-a889-3396473fd010"/>
            <meta>
               <profile value="http://hl7.org/fhir/uv/ips/StructureDefinition/Procedure-uv-ips"/>
            </meta>
            <text>
               <status value="generated"/>
               <div xmlns="http://www.w3.org/1999/xhtml">
                  <table class="hl7__ips">
                     <tr>
                        <td>Anticipatory guidance</td>
                        <td>
                           <span class="nb">21-Apr-2016</span>
                        </td>
                        <td>-</td>
                     </tr>
                  </table>
               </div>
            </text>
            <status value="completed"/>
            <code>
               <coding>
                  <system value="http://snomed.info/sct"/>
                  <code value="386516004"/>
                  <display value="Anticipatory guidance (procedure)"/>
               </coding>
               <text value="Anticipatory guidance"/>
            </code>
            <subject>
               <reference value="urn:uuid:"/>
               <display value="Hynek Kubíčková"/>
            </subject>
            <performedDateTime value="2016-04-21"/>
         </Procedure>
      </resource>
   </entry>
   <entry>
      <fullUrl value="urn:uuid:832532ca-4c38-4816-92a4-48e643853f28"/>
      <resource>
         <Procedure>
            <id value="832532ca-4c38-4816-92a4-48e643853f28"/>
            <meta>
               <profile value="http://hl7.org/fhir/uv/ips/StructureDefinition/Procedure-uv-ips"/>
            </meta>
            <text>
               <status value="generated"/>
               <div xmlns="http://www.w3.org/1999/xhtml">
                  <table class="hl7__ips">
                     <tr>
                        <td>Assessment of anxiety</td>
                        <td>
                           <span class="nb">21-Apr-2016</span>
                        </td>
                        <td>-</td>
                     </tr>
                  </table>
               </div>
            </text>
            <status value="completed"/>
            <code>
               <coding>
                  <system value="http://snomed.info/sct"/>
                  <code value="710841007"/>
                  <display value="Assessment of anxiety (procedure)"/>
               </coding>
               <text value="Assessment of anxiety"/>
            </code>
            <subject>
               <reference value="urn:uuid:"/>
               <display value="Hynek Kubíčková"/>
            </subject>
            <performedDateTime value="2016-04-21"/>
         </Procedure>
      </resource>
   </entry>
   <entry>
      <fullUrl value="urn:uuid:c1e0dbcc-d199-43bd-b701-ba9ad9a2e770"/>
      <resource>
         <Procedure>
            <id value="c1e0dbcc-d199-43bd-b701-ba9ad9a2e770"/>
            <meta>
               <profile value="http://hl7.org/fhir/uv/ips/StructureDefinition/Procedure-uv-ips"/>
            </meta>
            <text>
               <status value="generated"/>
               <div xmlns="http://www.w3.org/1999/xhtml">
                  <table class="hl7__ips">
                     <tr>
                        <td>Depression screening using PHQ-9 (Patient Health Questionnaire 9) score</td>
                        <td>
                           <span class="nb">21-Apr-2016</span>
                        </td>
                        <td>-</td>
                     </tr>
                  </table>
               </div>
            </text>
            <status value="completed"/>
            <code>
               <coding>
                  <system value="http://snomed.info/sct"/>
                  <code value="715252007"/>
                  <display value="Depression screening using Patient Health Questionnaire Nine Item score (procedure)"/>
               </coding>
               <text value="Depression screening using PHQ-9 (Patient Health Questionnaire 9) score"/>
            </code>
            <subject>
               <reference value="urn:uuid:"/>
               <display value="Hynek Kubíčková"/>
            </subject>
            <performedDateTime value="2016-04-21"/>
         </Procedure>
      </resource>
   </entry>
   <entry>
      <fullUrl value="urn:uuid:bff7a652-5261-48a6-897a-dd773caa09e8"/>
      <resource>
         <Procedure>
            <id value="bff7a652-5261-48a6-897a-dd773caa09e8"/>
            <meta>
               <profile value="http://hl7.org/fhir/uv/ips/StructureDefinition/Procedure-uv-ips"/>
            </meta>
            <text>
               <status value="generated"/>
               <div xmlns="http://www.w3.org/1999/xhtml">
                  <table class="hl7__ips">
                     <tr>
                        <td>Assessment using Car</td>
                        <td>
                           <span class="nb">21-Apr-2016</span>
                        </td>
                        <td>-</td>
                     </tr>
                  </table>
               </div>
            </text>
            <status value="completed"/>
            <code>
               <coding>
                  <system value="http://snomed.info/sct"/>
                  <code value="868187001"/>
                  <display value="Assessment using Car  Relax  Alone  Forget  Friends  Trouble Screening Test (procedure)"/>
               </coding>
               <text value="Assessment using Car"/>
            </code>
            <subject>
               <reference value="urn:uuid:"/>
               <display value="Hynek Kubíčková"/>
            </subject>
            <performedDateTime value="2016-04-21"/>
         </Procedure>
      </resource>
   </entry>
   <entry>
      <fullUrl value="urn:uuid:5fbe6e36-ac45-4315-84ed-0ac62a471f8f"/>
      <resource>
         <Procedure>
            <id value="5fbe6e36-ac45-4315-84ed-0ac62a471f8f"/>
            <meta>
               <profile value="http://hl7.org/fhir/uv/ips/StructureDefinition/Procedure-uv-ips"/>
            </meta>
            <text>
               <status value="generated"/>
               <div xmlns="http://www.w3.org/1999/xhtml">
                  <table class="hl7__ips">
                     <tr>
                        <td>Assessment of substance use</td>
                        <td>
                           <span class="nb">21-Apr-2016</span>
                        </td>
                        <td>-</td>
                     </tr>
                  </table>
               </div>
            </text>
            <status value="completed"/>
            <code>
               <coding>
                  <system value="http://snomed.info/sct"/>
                  <code value="428211000124100"/>
                  <display value="Assessment of substance use (procedure)"/>
               </coding>
               <text value="Assessment of substance use"/>
            </code>
            <subject>
               <reference value="urn:uuid:"/>
               <display value="Hynek Kubíčková"/>
            </subject>
            <performedDateTime value="2016-04-21"/>
         </Procedure>
      </resource>
   </entry>
   <entry>
      <fullUrl value="urn:uuid:40d81be5-14c4-4fef-a691-7b21139ddb41"/>
      <resource>
         <AllergyIntolerance>
            <id value="40d81be5-14c4-4fef-a691-7b21139ddb41"/>
            <meta>
               <profile value="http://hl7.eu/fhir/eps/StructureDefinition/allergyIntolerance-eu-eps"/>
            </meta>
            <text>
               <status value="generated"/>
               <div xmlns="http://www.w3.org/1999/xhtml">
                  <table class="hl7__ips">
                     <tr>
                        <th>Allergy/Intolerance</th>
                        <th>Onset Date</th>
                        <th>Status</th>
                        <th>Type</th>
                        <th>Reaction</th>
                     </tr>
                     <tr>
                        <td>Aspirin</td>
                        <td>
                           <span class="nb">2001-03-17</span>
                        </td>
                        <td>active</td>
                        <td>medication</td>
                        <td>Abdominal pain (finding)</td>
                     </tr>
                  </table>
               </div>
            </text>
            <clinicalStatus>
               <coding>
                  <system value="http://terminology.hl7.org/CodeSystem/allergyintolerance-clinical"/>
                  <code value="active"/>
               </coding>
            </clinicalStatus>
            <verificationStatus>
               <coding>
                  <system value="http://terminology.hl7.org/CodeSystem/allergyintolerance-verification"/>
                  <code value="confirmed"/>
               </coding>
            </verificationStatus>
            <type value="allergy"/>
            <category value="medication"/>
            <code>
               <coding>
                  <system value="http://snomed.info/sct"/>
                  <code value="1191"/>
                  <display value="Aspirin"/>
               </coding>
               <text value="Aspirin"/>
            </code>
            <patient>
               <reference value="urn:uuid:b29ca268-a90f-4ed5-874c-cba8369aca54"/>
               <display value="Hynek Kubíčková"/>
            </patient>
            <onsetDateTime value="2001-03-17"/>
            <reaction>
               <manifestation>
                  <coding>
                     <system value="http://snomed.info/sct"/>
                     <code value="21522001"/>
                     <display value="Abdominal pain (finding)"/>
                  </coding>
               </manifestation>
               <severity value="moderate"/>
            </reaction>
         </AllergyIntolerance>
      </resource>
   </entry>
   <entry>
      <fullUrl value="urn:uuid:d0fd2f8d-c3d4-4576-81d9-4037e63e5654"/>
      <resource>
         <AllergyIntolerance>
            <id value="d0fd2f8d-c3d4-4576-81d9-4037e63e5654"/>
            <meta>
               <profile value="http://hl7.eu/fhir/eps/StructureDefinition/allergyIntolerance-eu-eps"/>
            </meta>
            <text>
               <status value="generated"/>
               <div xmlns="http://www.w3.org/1999/xhtml">
                  <table class="hl7__ips">
                     <tr>
                        <th>Allergy/Intolerance</th>
                        <th>Onset Date</th>
                        <th>Status</th>
                        <th>Type</th>
                        <th>Reaction</th>
                     </tr>
                     <tr>
                        <td>Mold</td>
                        <td>
                           <span class="nb">2001-03-17</span>
                        </td>
                        <td>active</td>
                        <td>environment</td>
                        <td/>
                     </tr>
                  </table>
               </div>
            </text>
            <clinicalStatus>
               <coding>
                  <system value="http://terminology.hl7.org/CodeSystem/allergyintolerance-clinical"/>
                  <code value="active"/>
               </coding>
            </clinicalStatus>
            <verificationStatus>
               <coding>
                  <system value="http://terminology.hl7.org/CodeSystem/allergyintolerance-verification"/>
                  <code value="confirmed"/>
               </coding>
            </verificationStatus>
            <type value="allergy"/>
            <category value="environment"/>
            <code>
               <coding>
                  <system value="http://snomed.info/sct"/>
                  <code value="84489001"/>
                  <display value="Mold (organism)"/>
               </coding>
               <text value="Mold"/>
            </code>
            <patient>
               <reference value="urn:uuid:b29ca268-a90f-4ed5-874c-cba8369aca54"/>
               <display value="Hynek Kubíčková"/>
            </patient>
            <onsetDateTime value="2001-03-17"/>
         </AllergyIntolerance>
      </resource>
   </entry>
   <entry>
      <fullUrl value="urn:uuid:8dd10ab0-2bb8-4884-8de4-817494b82e14"/>
      <resource>
         <AllergyIntolerance>
            <id value="8dd10ab0-2bb8-4884-8de4-817494b82e14"/>
            <meta>
               <profile value="http://hl7.eu/fhir/eps/StructureDefinition/allergyIntolerance-eu-eps"/>
            </meta>
            <text>
               <status value="generated"/>
               <div xmlns="http://www.w3.org/1999/xhtml">
                  <table class="hl7__ips">
                     <tr>
                        <th>Allergy/Intolerance</th>
                        <th>Onset Date</th>
                        <th>Status</th>
                        <th>Type</th>
                        <th>Reaction</th>
                     </tr>
                     <tr>
                        <td>Eggs (edible)</td>
                        <td>
                           <span class="nb">2001-03-17</span>
                        </td>
                        <td>active</td>
                        <td>food</td>
                        <td>Wheal (finding)</td>
                     </tr>
                  </table>
               </div>
            </text>
            <clinicalStatus>
               <coding>
                  <system value="http://terminology.hl7.org/CodeSystem/allergyintolerance-clinical"/>
                  <code value="active"/>
               </coding>
            </clinicalStatus>
            <verificationStatus>
               <coding>
                  <system value="http://terminology.hl7.org/CodeSystem/allergyintolerance-verification"/>
                  <code value="confirmed"/>
               </coding>
            </verificationStatus>
            <type value="allergy"/>
            <category value="food"/>
            <code>
               <coding>
                  <system value="http://snomed.info/sct"/>
                  <code value="102263004"/>
                  <display value="Eggs (edible) (substance)"/>
               </coding>
               <text value="Eggs (edible)"/>
            </code>
            <patient>
               <reference value="urn:uuid:b29ca268-a90f-4ed5-874c-cba8369aca54"/>
               <display value="Hynek Kubíčková"/>
            </patient>
            <onsetDateTime value="2001-03-17"/>
            <reaction>
               <manifestation>
                  <coding>
                     <system value="http://snomed.info/sct"/>
                     <code value="247472004"/>
                     <display value="Wheal (finding)"/>
                  </coding>
               </manifestation>
               <severity value="moderate"/>
            </reaction>
         </AllergyIntolerance>
      </resource>
   </entry>
   <entry>
      <fullUrl value="urn:uuid:cb5ca89f-4251-43ae-9f2d-661eea3a9f3d"/>
      <resource>
         <AllergyIntolerance>
            <id value="cb5ca89f-4251-43ae-9f2d-661eea3a9f3d"/>
            <meta>
               <profile value="http://hl7.eu/fhir/eps/StructureDefinition/allergyIntolerance-eu-eps"/>
            </meta>
            <text>
               <status value="generated"/>
               <div xmlns="http://www.w3.org/1999/xhtml">
                  <table class="hl7__ips">
                     <tr>
                        <th>Allergy/Intolerance</th>
                        <th>Onset Date</th>
                        <th>Status</th>
                        <th>Type</th>
                        <th>Reaction</th>
                     </tr>
                     <tr>
                        <td>Latex</td>
                        <td>
                           <span class="nb">2001-03-17</span>
                        </td>
                        <td>active</td>
                        <td>environment</td>
                        <td>Wheal (finding)</td>
                     </tr>
                  </table>
               </div>
            </text>
            <clinicalStatus>
               <coding>
                  <system value="http://terminology.hl7.org/CodeSystem/allergyintolerance-clinical"/>
                  <code value="active"/>
               </coding>
            </clinicalStatus>
            <verificationStatus>
               <coding>
                  <system value="http://terminology.hl7.org/CodeSystem/allergyintolerance-verification"/>
                  <code value="confirmed"/>
               </coding>
            </verificationStatus>
            <type value="allergy"/>
            <category value="environment"/>
            <code>
               <coding>
                  <system value="http://snomed.info/sct"/>
                  <code value="111088007"/>
                  <display value="Latex (substance)"/>
               </coding>
               <text value="Latex"/>
            </code>
            <patient>
               <reference value="urn:uuid:b29ca268-a90f-4ed5-874c-cba8369aca54"/>
               <display value="Hynek Kubíčková"/>
            </patient>
            <onsetDateTime value="2001-03-17"/>
            <reaction>
               <manifestation>
                  <coding>
                     <system value="http://snomed.info/sct"/>
                     <code value="247472004"/>
                     <display value="Wheal (finding)"/>
                  </coding>
               </manifestation>
               <severity value="mild"/>
            </reaction>
         </AllergyIntolerance>
      </resource>
   </entry>
   <entry>
      <fullUrl value="urn:uuid:bf428f45-91f0-45b3-86a4-c793482cc578"/>
      <resource>
         <AllergyIntolerance>
            <id value="bf428f45-91f0-45b3-86a4-c793482cc578"/>
            <meta>
               <profile value="http://hl7.eu/fhir/eps/StructureDefinition/allergyIntolerance-eu-eps"/>
            </meta>
            <text>
               <status value="generated"/>
               <div xmlns="http://www.w3.org/1999/xhtml">
                  <table class="hl7__ips">
                     <tr>
                        <th>Allergy/Intolerance</th>
                        <th>Onset Date</th>
                        <th>Status</th>
                        <th>Type</th>
                        <th>Reaction</th>
                     </tr>
                     <tr>
                        <td>Grass pollen</td>
                        <td>
                           <span class="nb">2001-03-17</span>
                        </td>
                        <td>active</td>
                        <td>environment</td>
                        <td/>
                     </tr>
                  </table>
               </div>
            </text>
            <clinicalStatus>
               <coding>
                  <system value="http://terminology.hl7.org/CodeSystem/allergyintolerance-clinical"/>
                  <code value="active"/>
               </coding>
            </clinicalStatus>
            <verificationStatus>
               <coding>
                  <system value="http://terminology.hl7.org/CodeSystem/allergyintolerance-verification"/>
                  <code value="confirmed"/>
               </coding>
            </verificationStatus>
            <type value="allergy"/>
            <category value="environment"/>
            <code>
               <coding>
                  <system value="http://snomed.info/sct"/>
                  <code value="256277009"/>
                  <display value="Grass pollen (substance)"/>
               </coding>
               <text value="Grass pollen"/>
            </code>
            <patient>
               <reference value="urn:uuid:b29ca268-a90f-4ed5-874c-cba8369aca54"/>
               <display value="Hynek Kubíčková"/>
            </patient>
            <onsetDateTime value="2001-03-17"/>
         </AllergyIntolerance>
      </resource>
   </entry>
   <entry>
      <fullUrl value="urn:uuid:59a3f878-2686-4584-b201-0e8c82be5a27"/>
      <resource>
         <AllergyIntolerance>
            <id value="59a3f878-2686-4584-b201-0e8c82be5a27"/>
            <meta>
               <profile value="http://hl7.eu/fhir/eps/StructureDefinition/allergyIntolerance-eu-eps"/>
            </meta>
            <text>
               <status value="generated"/>
               <div xmlns="http://www.w3.org/1999/xhtml">
                  <table class="hl7__ips">
                     <tr>
                        <th>Allergy/Intolerance</th>
                        <th>Onset Date</th>
                        <th>Status</th>
                        <th>Type</th>
                        <th>Reaction</th>
                     </tr>
                     <tr>
                        <td>House dust mite</td>
                        <td>
                           <span class="nb">2001-03-17</span>
                        </td>
                        <td>active</td>
                        <td>environment</td>
                        <td/>
                     </tr>
                  </table>
               </div>
            </text>
            <clinicalStatus>
               <coding>
                  <system value="http://terminology.hl7.org/CodeSystem/allergyintolerance-clinical"/>
                  <code value="active"/>
               </coding>
            </clinicalStatus>
            <verificationStatus>
               <coding>
                  <system value="http://terminology.hl7.org/CodeSystem/allergyintolerance-verification"/>
                  <code value="confirmed"/>
               </coding>
            </verificationStatus>
            <type value="allergy"/>
            <category value="environment"/>
            <code>
               <coding>
                  <system value="http://snomed.info/sct"/>
                  <code value="260147004"/>
                  <display value="House dust mite (organism)"/>
               </coding>
               <text value="House dust mite"/>
            </code>
            <patient>
               <reference value="urn:uuid:b29ca268-a90f-4ed5-874c-cba8369aca54"/>
               <display value="Hynek Kubíčková"/>
            </patient>
            <onsetDateTime value="2001-03-17"/>
         </AllergyIntolerance>
      </resource>
   </entry>
   <entry>
      <fullUrl value="urn:uuid:7f41451b-47c0-4141-b43b-e74bf02712bc"/>
      <resource>
         <AllergyIntolerance>
            <id value="7f41451b-47c0-4141-b43b-e74bf02712bc"/>
            <meta>
               <profile value="http://hl7.eu/fhir/eps/StructureDefinition/allergyIntolerance-eu-eps"/>
            </meta>
            <text>
               <status value="generated"/>
               <div xmlns="http://www.w3.org/1999/xhtml">
                  <table class="hl7__ips">
                     <tr>
                        <th>Allergy/Intolerance</th>
                        <th>Onset Date</th>
                        <th>Status</th>
                        <th>Type</th>
                        <th>Reaction</th>
                     </tr>
                     <tr>
                        <td>Animal dander</td>
                        <td>
                           <span class="nb">2001-03-17</span>
                        </td>
                        <td>active</td>
                        <td>environment</td>
                        <td>Rhinoconjunctivitis (disorder)<br/>Wheal (finding)</td>
                     </tr>
                  </table>
               </div>
            </text>
            <clinicalStatus>
               <coding>
                  <system value="http://terminology.hl7.org/CodeSystem/allergyintolerance-clinical"/>
                  <code value="active"/>
               </coding>
            </clinicalStatus>
            <verificationStatus>
               <coding>
                  <system value="http://terminology.hl7.org/CodeSystem/allergyintolerance-verification"/>
                  <code value="confirmed"/>
               </coding>
            </verificationStatus>
            <type value="allergy"/>
            <category value="environment"/>
            <code>
               <coding>
                  <system value="http://snomed.info/sct"/>
                  <code value="264287008"/>
                  <display value="Animal dander (substance)"/>
               </coding>
               <text value="Animal dander"/>
            </code>
            <patient>
               <reference value="urn:uuid:b29ca268-a90f-4ed5-874c-cba8369aca54"/>
               <display value="Hynek Kubíčková"/>
            </patient>
            <onsetDateTime value="2001-03-17"/>
            <reaction>
               <manifestation>
                  <coding>
                     <system value="http://snomed.info/sct"/>
                     <code value="878820003"/>
                     <display value="Rhinoconjunctivitis (disorder)"/>
                  </coding>
               </manifestation>
               <severity value="moderate"/>
            </reaction>
            <reaction>
               <manifestation>
                  <coding>
                     <system value="http://snomed.info/sct"/>
                     <code value="247472004"/>
                     <display value="Wheal (finding)"/>
                  </coding>
               </manifestation>
               <severity value="mild"/>
            </reaction>
         </AllergyIntolerance>
      </resource>
   </entry>
   <entry>
      <fullUrl value="urn:uuid:fedc38c2-debf-47ff-b330-1f3d12544218"/>
      <resource>
         <AllergyIntolerance>
            <id value="fedc38c2-debf-47ff-b330-1f3d12544218"/>
            <meta>
               <profile value="http://hl7.eu/fhir/eps/StructureDefinition/allergyIntolerance-eu-eps"/>
            </meta>
            <text>
               <status value="generated"/>
               <div xmlns="http://www.w3.org/1999/xhtml">
                  <table class="hl7__ips">
                     <tr>
                        <th>Allergy/Intolerance</th>
                        <th>Onset Date</th>
                        <th>Status</th>
                        <th>Type</th>
                        <th>Reaction</th>
                     </tr>
                     <tr>
                        <td>Allergy to substance</td>
                        <td>
                           <span class="nb">2001-03-17</span>
                        </td>
                        <td>active</td>
                        <td>environment</td>
                        <td/>
                     </tr>
                  </table>
               </div>
            </text>
            <clinicalStatus>
               <coding>
                  <system value="http://terminology.hl7.org/CodeSystem/allergyintolerance-clinical"/>
                  <code value="active"/>
               </coding>
            </clinicalStatus>
            <verificationStatus>
               <coding>
                  <system value="http://terminology.hl7.org/CodeSystem/allergyintolerance-verification"/>
                  <code value="confirmed"/>
               </coding>
            </verificationStatus>
            <type value="allergy"/>
            <category value="environment"/>
            <code>
               <coding>
                  <system value="http://snomed.info/sct"/>
                  <code value="419199007"/>
                  <display value="Allergy to substance (finding)"/>
               </coding>
               <text value="Allergy to substance"/>
            </code>
            <patient>
               <reference value="urn:uuid:b29ca268-a90f-4ed5-874c-cba8369aca54"/>
               <display value="Hynek Kubíčková"/>
            </patient>
            <onsetDateTime value="2001-03-17"/>
         </AllergyIntolerance>
      </resource>
   </entry>
   <entry>
      <fullUrl value="urn:uuid:67ff3d53-7961-45fa-85bb-d9a3a062da82"/>
      <resource>
         <AllergyIntolerance>
            <id value="67ff3d53-7961-45fa-85bb-d9a3a062da82"/>
            <meta>
               <profile value="http://hl7.eu/fhir/eps/StructureDefinition/allergyIntolerance-eu-eps"/>
            </meta>
            <text>
               <status value="generated"/>
               <div xmlns="http://www.w3.org/1999/xhtml">
                  <table class="hl7__ips">
                     <tr>
                        <th>Allergy/Intolerance</th>
                        <th>Onset Date</th>
                        <th>Status</th>
                        <th>Type</th>
                        <th>Reaction</th>
                     </tr>
                     <tr>
                        <td>Fish</td>
                        <td>
                           <span class="nb">2001-03-17</span>
                        </td>
                        <td>active</td>
                        <td>food</td>
                        <td>Dyspnea (finding)<br/>Eruption of skin (disorder)</td>
                     </tr>
                  </table>
               </div>
            </text>
            <clinicalStatus>
               <coding>
                  <system value="http://terminology.hl7.org/CodeSystem/allergyintolerance-clinical"/>
                  <code value="active"/>
               </coding>
            </clinicalStatus>
            <verificationStatus>
               <coding>
                  <system value="http://terminology.hl7.org/CodeSystem/allergyintolerance-verification"/>
                  <code value="confirmed"/>
               </coding>
            </verificationStatus>
            <type value="allergy"/>
            <category value="food"/>
            <code>
               <coding>
                  <system value="http://snomed.info/sct"/>
                  <code value="735971005"/>
                  <display value="Fish (substance)"/>
               </coding>
               <text value="Fish"/>
            </code>
            <patient>
               <reference value="urn:uuid:b29ca268-a90f-4ed5-874c-cba8369aca54"/>
               <display value="Hynek Kubíčková"/>
            </patient>
            <onsetDateTime value="2001-03-17"/>
            <reaction>
               <manifestation>
                  <coding>
                     <system value="http://snomed.info/sct"/>
                     <code value="267036007"/>
                     <display value="Dyspnea (finding)"/>
                  </coding>
               </manifestation>
               <severity value="moderate"/>
            </reaction>
            <reaction>
               <manifestation>
                  <coding>
                     <system value="http://snomed.info/sct"/>
                     <code value="271807003"/>
                     <display value="Eruption of skin (disorder)"/>
                  </coding>
               </manifestation>
               <severity value="mild"/>
            </reaction>
         </AllergyIntolerance>
      </resource>
   </entry>
   <entry>
      <fullUrl value="urn:uuid:199ab826-31a6-4d7e-a3c1-02b3d7ac61d9"/>
      <resource>
         <AllergyIntolerance>
            <id value="199ab826-31a6-4d7e-a3c1-02b3d7ac61d9"/>
            <meta>
               <profile value="http://hl7.eu/fhir/eps/StructureDefinition/allergyIntolerance-eu-eps"/>
            </meta>
            <text>
               <status value="generated"/>
               <div xmlns="http://www.w3.org/1999/xhtml">
                  <table class="hl7__ips">
                     <tr>
                        <th>Allergy/Intolerance</th>
                        <th>Onset Date</th>
                        <th>Status</th>
                        <th>Type</th>
                        <th>Reaction</th>
                     </tr>
                     <tr>
                        <td>Tree pollen</td>
                        <td>
                           <span class="nb">2001-03-17</span>
                        </td>
                        <td>active</td>
                        <td>environment</td>
                        <td/>
                     </tr>
                  </table>
               </div>
            </text>
            <clinicalStatus>
               <coding>
                  <system value="http://terminology.hl7.org/CodeSystem/allergyintolerance-clinical"/>
                  <code value="active"/>
               </coding>
            </clinicalStatus>
            <verificationStatus>
               <coding>
                  <system value="http://terminology.hl7.org/CodeSystem/allergyintolerance-verification"/>
                  <code value="confirmed"/>
               </coding>
            </verificationStatus>
            <type value="allergy"/>
            <category value="environment"/>
            <code>
               <coding>
                  <system value="http://snomed.info/sct"/>
                  <code value="782576004"/>
                  <display value="Tree pollen (substance)"/>
               </coding>
               <text value="Tree pollen"/>
            </code>
            <patient>
               <reference value="urn:uuid:b29ca268-a90f-4ed5-874c-cba8369aca54"/>
               <display value="Hynek Kubíčková"/>
            </patient>
            <onsetDateTime value="2001-03-17"/>
         </AllergyIntolerance>
      </resource>
   </entry>
   <entry>
      <fullUrl value="urn:uuid:0ea91fc6-2b89-4e3b-8d83-6049b8438a24"/>
      <resource>
         <CarePlan>
            <id value="0ea91fc6-2b89-4e3b-8d83-6049b8438a24"/>
            <text>
               <status value="generated"/>
               <div xmlns="http://www.w3.org/1999/xhtml">
                  <table class="hl7__ips first25">
                     <tr>
                        <th>Active Planned Care / Goals</th>
                        <th>Start Date</th>
                        <th>Reason</th>
                     </tr>
                     <tr>
                        <td>Self-care interventions</td>
                        <td>
                           <span class="nb">05-Mar-2001</span>
                        </td>
                        <td>-</td>
                     </tr>
                  </table>
               </div>
            </text>
            <status value="active"/>
            <intent value="plan"/>
            <category>
               <coding>
                  <system value="http://terminology.hl7.org/CodeSystem/care-plan-category"/>
                  <code value="assess-plan"/>
                  <display value="Assessment and Plan"/>
               </coding>
            </category>
            <subject>
               <reference value="urn:uuid:b29ca268-a90f-4ed5-874c-cba8369aca54"/>
               <display value="Hynek Kubíčková"/>
            </subject>
            <period>
               <start value="2001-03-05"/>
            </period>
            <activity>
               <detail>
                  <kind value="Appointment"/>
                  <code>
                     <coding>
                        <system value="http://snomed.info/sct"/>
                        <code value="384758001"/>
                        <display value="Self-care interventions (procedure)"/>
                     </coding>
                  </code>
                  <status value="unknown"/>
                  <description value="Self-care interventions"/>
               </detail>
            </activity>
         </CarePlan>
      </resource>
   </entry>
   <entry>
      <fullUrl value="urn:uuid:3856fbf0-a41d-4720-b6df-921f66e5b6b3"/>
      <resource>
         <Observation>
            <id value="3856fbf0-a41d-4720-b6df-921f66e5b6b3"/>
            <meta>
               <profile value="http://hl7.org/fhir/StructureDefinition/vitalsigns"/>
            </meta>
            <text>
               <status value="generated"/>
               <div xmlns="http://www.w3.org/1999/xhtml">
                  <table class="hl7__ips">
                     <tr>
                        <th>Vital Sign</th>
                        <th>Date</th>
                        <th>Measurement</th>
                     </tr>
                     <tr>
                        <td>Body Height</td>
                        <td>06-Oct-2022</td>
                        <td>188.5 cm</td>
                     </tr>
                  </table>
               </div>
            </text>
            <status value="final"/>
            <category>
               <coding>
                  <system value="http://terminology.hl7.org/CodeSystem/observation-category"/>
                  <code value="vital-signs"/>
                  <display value="Vital Signs"/>
               </coding>
            </category>
            <code>
               <coding>
                  <system value="http://loinc.org"/>
                  <code value="$8302-2"/>
                  <display value="Body Height"/>
               </coding>
            </code>
            <subject>
               <reference value="urn:uuid:b29ca268-a90f-4ed5-874c-cba8369aca54"/>
               <display value="Hynek Kubíčková"/>
            </subject>
            <effectiveDateTime value="2022-10-06"/>
            <valueQuantity>
               <value value="188.5"/>
               <unit value="cm"/>
               <code value="cm"/>
            </valueQuantity>
         </Observation>
      </resource>
   </entry>
   <entry>
      <fullUrl value="urn:uuid:92693076-30b3-46be-acbb-fe569d630a9a"/>
      <resource>
         <Observation>
            <id value="92693076-30b3-46be-acbb-fe569d630a9a"/>
            <meta>
               <profile value="http://hl7.org/fhir/StructureDefinition/vitalsigns"/>
            </meta>
            <text>
               <status value="generated"/>
               <div xmlns="http://www.w3.org/1999/xhtml">
                  <table class="hl7__ips">
                     <tr>
                        <th>Vital Sign</th>
                        <th>Date</th>
                        <th>Measurement</th>
                     </tr>
                     <tr>
                        <td>Pain severity - 0-10 verbal numeric rating [Score] - Reported</td>
                        <td>06-Oct-2022</td>
                        <td>3 {score}</td>
                     </tr>
                  </table>
               </div>
            </text>
            <status value="final"/>
            <category>
               <coding>
                  <system value="http://terminology.hl7.org/CodeSystem/observation-category"/>
                  <code value="vital-signs"/>
                  <display value="Vital Signs"/>
               </coding>
            </category>
            <code>
               <coding>
                  <system value="http://loinc.org"/>
                  <code value="$72514-3"/>
                  <display value="Pain severity - 0-10 verbal numeric rating [Score] - Reported"/>
               </coding>
            </code>
            <subject>
               <reference value="urn:uuid:b29ca268-a90f-4ed5-874c-cba8369aca54"/>
               <display value="Hynek Kubíčková"/>
            </subject>
            <effectiveDateTime value="2022-10-06"/>
            <valueQuantity>
               <value value="3"/>
               <unit value="{score}"/>
               <code value="{score}"/>
            </valueQuantity>
         </Observation>
      </resource>
   </entry>
   <entry>
      <fullUrl value="urn:uuid:1ebda6ad-6d8c-4768-aa9a-a0ffef1e49db"/>
      <resource>
         <Observation>
            <id value="1ebda6ad-6d8c-4768-aa9a-a0ffef1e49db"/>
            <meta>
               <profile value="http://hl7.org/fhir/StructureDefinition/vitalsigns"/>
            </meta>
            <text>
               <status value="generated"/>
               <div xmlns="http://www.w3.org/1999/xhtml">
                  <table class="hl7__ips">
                     <tr>
                        <th>Vital Sign</th>
                        <th>Date</th>
                        <th>Measurement</th>
                     </tr>
                     <tr>
                        <td>Body Weight</td>
                        <td>06-Oct-2022</td>
                        <td>88.1 kg</td>
                     </tr>
                  </table>
               </div>
            </text>
            <status value="final"/>
            <category>
               <coding>
                  <system value="http://terminology.hl7.org/CodeSystem/observation-category"/>
                  <code value="vital-signs"/>
                  <display value="Vital Signs"/>
               </coding>
            </category>
            <code>
               <coding>
                  <system value="http://loinc.org"/>
                  <code value="$29463-7"/>
                  <display value="Body Weight"/>
               </coding>
            </code>
            <subject>
               <reference value="urn:uuid:b29ca268-a90f-4ed5-874c-cba8369aca54"/>
               <display value="Hynek Kubíčková"/>
            </subject>
            <effectiveDateTime value="2022-10-06"/>
            <valueQuantity>
               <value value="88.1"/>
               <unit value="kg"/>
               <code value="kg"/>
            </valueQuantity>
         </Observation>
      </resource>
   </entry>
   <entry>
      <fullUrl value="urn:uuid:c9c4e0e7-4f7b-4940-b659-bc47e046b8d8"/>
      <resource>
         <Observation>
            <id value="c9c4e0e7-4f7b-4940-b659-bc47e046b8d8"/>
            <meta>
               <profile value="http://hl7.org/fhir/StructureDefinition/vitalsigns"/>
            </meta>
            <text>
               <status value="generated"/>
               <div xmlns="http://www.w3.org/1999/xhtml">
                  <table class="hl7__ips">
                     <tr>
                        <th>Vital Sign</th>
                        <th>Date</th>
                        <th>Measurement</th>
                     </tr>
                     <tr>
                        <td>Body mass index (BMI) [Ratio]</td>
                        <td>06-Oct-2022</td>
                        <td>24.8 kg/m2</td>
                     </tr>
                  </table>
               </div>
            </text>
            <status value="final"/>
            <category>
               <coding>
                  <system value="http://terminology.hl7.org/CodeSystem/observation-category"/>
                  <code value="vital-signs"/>
                  <display value="Vital Signs"/>
               </coding>
            </category>
            <code>
               <coding>
                  <system value="http://loinc.org"/>
                  <code value="$39156-5"/>
                  <display value="Body mass index (BMI) [Ratio]"/>
               </coding>
            </code>
            <subject>
               <reference value="urn:uuid:b29ca268-a90f-4ed5-874c-cba8369aca54"/>
               <display value="Hynek Kubíčková"/>
            </subject>
            <effectiveDateTime value="2022-10-06"/>
            <valueQuantity>
               <value value="24.8"/>
               <unit value="kg/m2"/>
               <code value="kg/m2"/>
            </valueQuantity>
         </Observation>
      </resource>
   </entry>
   <entry>
      <fullUrl value="urn:uuid:d01cf4a2-edd0-45ea-bf11-9d07691968f7"/>
      <resource>
         <Observation>
            <id value="d01cf4a2-edd0-45ea-bf11-9d07691968f7"/>
            <meta>
               <profile value="http://hl7.org/fhir/StructureDefinition/vitalsigns"/>
            </meta>
            <text>
               <status value="generated"/>
               <div xmlns="http://www.w3.org/1999/xhtml">
                  <table class="hl7__ips">
                     <tr>
                        <th>Vital Sign</th>
                        <th>Date</th>
                        <th>Measurement</th>
                     </tr>
                     <tr>
                        <td>Diastolic Blood Pressure</td>
                        <td>06-Oct-2022</td>
                        <td>88 mm[Hg]</td>
                     </tr>
                  </table>
               </div>
            </text>
            <status value="final"/>
            <category>
               <coding>
                  <system value="http://terminology.hl7.org/CodeSystem/observation-category"/>
                  <code value="vital-signs"/>
                  <display value="Vital Signs"/>
               </coding>
            </category>
            <code>
               <coding>
                  <system value="http://loinc.org"/>
                  <code value="$8462-4"/>
                  <display value="Diastolic Blood Pressure"/>
               </coding>
            </code>
            <subject>
               <reference value="urn:uuid:b29ca268-a90f-4ed5-874c-cba8369aca54"/>
               <display value="Hynek Kubíčková"/>
            </subject>
            <effectiveDateTime value="2022-10-06"/>
            <valueQuantity>
               <value value="88"/>
               <unit value="mm[Hg]"/>
               <code value="mm[Hg]"/>
            </valueQuantity>
         </Observation>
      </resource>
   </entry>
   <entry>
      <fullUrl value="urn:uuid:d1ad68bb-5e67-4393-95ee-e1b3fafab83a"/>
      <resource>
         <Observation>
            <id value="d1ad68bb-5e67-4393-95ee-e1b3fafab83a"/>
            <meta>
               <profile value="http://hl7.org/fhir/StructureDefinition/vitalsigns"/>
            </meta>
            <text>
               <status value="generated"/>
               <div xmlns="http://www.w3.org/1999/xhtml">
                  <table class="hl7__ips">
                     <tr>
                        <th>Vital Sign</th>
                        <th>Date</th>
                        <th>Measurement</th>
                     </tr>
                     <tr>
                        <td>Systolic Blood Pressure</td>
                        <td>06-Oct-2022</td>
                        <td>110 mm[Hg]</td>
                     </tr>
                  </table>
               </div>
            </text>
            <status value="final"/>
            <category>
               <coding>
                  <system value="http://terminology.hl7.org/CodeSystem/observation-category"/>
                  <code value="vital-signs"/>
                  <display value="Vital Signs"/>
               </coding>
            </category>
            <code>
               <coding>
                  <system value="http://loinc.org"/>
                  <code value="$8480-6"/>
                  <display value="Systolic Blood Pressure"/>
               </coding>
            </code>
            <subject>
               <reference value="urn:uuid:b29ca268-a90f-4ed5-874c-cba8369aca54"/>
               <display value="Hynek Kubíčková"/>
            </subject>
            <effectiveDateTime value="2022-10-06"/>
            <valueQuantity>
               <value value="110"/>
               <unit value="mm[Hg]"/>
               <code value="mm[Hg]"/>
            </valueQuantity>
         </Observation>
      </resource>
   </entry>
   <entry>
      <fullUrl value="urn:uuid:f4eb7452-e596-4e64-ba8c-9d8436257b92"/>
      <resource>
         <Observation>
            <id value="f4eb7452-e596-4e64-ba8c-9d8436257b92"/>
            <meta>
               <profile value="http://hl7.org/fhir/StructureDefinition/vitalsigns"/>
            </meta>
            <text>
               <status value="generated"/>
               <div xmlns="http://www.w3.org/1999/xhtml">
                  <table class="hl7__ips">
                     <tr>
                        <th>Vital Sign</th>
                        <th>Date</th>
                        <th>Measurement</th>
                     </tr>
                     <tr>
                        <td>Heart rate</td>
                        <td>06-Oct-2022</td>
                        <td>83 /min</td>
                     </tr>
                  </table>
               </div>
            </text>
            <status value="final"/>
            <category>
               <coding>
                  <system value="http://terminology.hl7.org/CodeSystem/observation-category"/>
                  <code value="vital-signs"/>
                  <display value="Vital Signs"/>
               </coding>
            </category>
            <code>
               <coding>
                  <system value="http://loinc.org"/>
                  <code value="$8867-4"/>
                  <display value="Heart rate"/>
               </coding>
            </code>
            <subject>
               <reference value="urn:uuid:b29ca268-a90f-4ed5-874c-cba8369aca54"/>
               <display value="Hynek Kubíčková"/>
            </subject>
            <effectiveDateTime value="2022-10-06"/>
            <valueQuantity>
               <value value="83"/>
               <unit value="/min"/>
               <code value="/min"/>
            </valueQuantity>
         </Observation>
      </resource>
   </entry>
   <entry>
      <fullUrl value="urn:uuid:f9d9872c-4da2-4e08-9d6a-9dbb33e14b9c"/>
      <resource>
         <Observation>
            <id value="f9d9872c-4da2-4e08-9d6a-9dbb33e14b9c"/>
            <meta>
               <profile value="http://hl7.org/fhir/StructureDefinition/vitalsigns"/>
            </meta>
            <text>
               <status value="generated"/>
               <div xmlns="http://www.w3.org/1999/xhtml">
                  <table class="hl7__ips">
                     <tr>
                        <th>Vital Sign</th>
                        <th>Date</th>
                        <th>Measurement</th>
                     </tr>
                     <tr>
                        <td>Respiratory rate</td>
                        <td>06-Oct-2022</td>
                        <td>14 /min</td>
                     </tr>
                  </table>
               </div>
            </text>
            <status value="final"/>
            <category>
               <coding>
                  <system value="http://terminology.hl7.org/CodeSystem/observation-category"/>
                  <code value="vital-signs"/>
                  <display value="Vital Signs"/>
               </coding>
            </category>
            <code>
               <coding>
                  <system value="http://loinc.org"/>
                  <code value="$9279-1"/>
                  <display value="Respiratory rate"/>
               </coding>
            </code>
            <subject>
               <reference value="urn:uuid:b29ca268-a90f-4ed5-874c-cba8369aca54"/>
               <display value="Hynek Kubíčková"/>
            </subject>
            <effectiveDateTime value="2022-10-06"/>
            <valueQuantity>
               <value value="14"/>
               <unit value="/min"/>
               <code value="/min"/>
            </valueQuantity>
         </Observation>
      </resource>
   </entry>
   <entry>
      <fullUrl value="urn:uuid:94684f8b-0233-4393-bf89-2be5c4bb4b86"/>
      <resource>
         <Observation>
            <id value="94684f8b-0233-4393-bf89-2be5c4bb4b86"/>
            <meta>
               <profile value="http://hl7.org/fhir/StructureDefinition/vitalsigns"/>
            </meta>
            <text>
               <status value="generated"/>
               <div xmlns="http://www.w3.org/1999/xhtml">
                  <table class="hl7__ips">
                     <tr>
                        <th>Vital Sign</th>
                        <th>Date</th>
                        <th>Measurement</th>
                     </tr>
                     <tr>
                        <td>Body temperature</td>
                        <td>17-Jul-2020</td>
                        <td>41.7 Cel</td>
                     </tr>
                  </table>
               </div>
            </text>
            <status value="final"/>
            <category>
               <coding>
                  <system value="http://terminology.hl7.org/CodeSystem/observation-category"/>
                  <code value="vital-signs"/>
                  <display value="Vital Signs"/>
               </coding>
            </category>
            <code>
               <coding>
                  <system value="http://loinc.org"/>
                  <code value="$8310-5"/>
                  <display value="Body temperature"/>
               </coding>
            </code>
            <subject>
               <reference value="urn:uuid:b29ca268-a90f-4ed5-874c-cba8369aca54"/>
               <display value="Hynek Kubíčková"/>
            </subject>
            <effectiveDateTime value="2020-07-17"/>
            <valueQuantity>
               <value value="41.7"/>
               <unit value="Cel"/>
               <code value="Cel"/>
            </valueQuantity>
         </Observation>
      </resource>
   </entry>
   <entry>
      <fullUrl value="urn:uuid:5d68cb0d-71ff-4b73-893e-7805d8b3f327"/>
      <resource>
         <Observation>
            <id value="5d68cb0d-71ff-4b73-893e-7805d8b3f327"/>
            <meta>
               <profile value="http://hl7.org/fhir/StructureDefinition/vitalsigns"/>
            </meta>
            <text>
               <status value="generated"/>
               <div xmlns="http://www.w3.org/1999/xhtml">
                  <table class="hl7__ips">
                     <tr>
                        <th>Vital Sign</th>
                        <th>Date</th>
                        <th>Measurement</th>
                     </tr>
                     <tr>
                        <td>Respiratory rate</td>
                        <td>17-Jul-2020</td>
                        <td>26.4 /min</td>
                     </tr>
                  </table>
               </div>
            </text>
            <status value="final"/>
            <category>
               <coding>
                  <system value="http://terminology.hl7.org/CodeSystem/observation-category"/>
                  <code value="vital-signs"/>
                  <display value="Vital Signs"/>
               </coding>
            </category>
            <code>
               <coding>
                  <system value="http://loinc.org"/>
                  <code value="$9279-1"/>
                  <display value="Respiratory rate"/>
               </coding>
            </code>
            <subject>
               <reference value="urn:uuid:b29ca268-a90f-4ed5-874c-cba8369aca54"/>
               <display value="Hynek Kubíčková"/>
            </subject>
            <effectiveDateTime value="2020-07-17"/>
            <valueQuantity>
               <value value="26.4"/>
               <unit value="/min"/>
               <code value="/min"/>
            </valueQuantity>
         </Observation>
      </resource>
   </entry>
   <entry>
      <fullUrl value="urn:uuid:02677e17-79c0-499b-ad54-881d1acef8ad"/>
      <resource>
         <Observation>
            <id value="02677e17-79c0-499b-ad54-881d1acef8ad"/>
            <meta>
               <profile value="http://hl7.org/fhir/StructureDefinition/vitalsigns"/>
            </meta>
            <text>
               <status value="generated"/>
               <div xmlns="http://www.w3.org/1999/xhtml">
                  <table class="hl7__ips">
                     <tr>
                        <th>Vital Sign</th>
                        <th>Date</th>
                        <th>Measurement</th>
                     </tr>
                     <tr>
                        <td>Heart rate</td>
                        <td>17-Jul-2020</td>
                        <td>178.2 /min</td>
                     </tr>
                  </table>
               </div>
            </text>
            <status value="final"/>
            <category>
               <coding>
                  <system value="http://terminology.hl7.org/CodeSystem/observation-category"/>
                  <code value="vital-signs"/>
                  <display value="Vital Signs"/>
               </coding>
            </category>
            <code>
               <coding>
                  <system value="http://loinc.org"/>
                  <code value="$8867-4"/>
                  <display value="Heart rate"/>
               </coding>
            </code>
            <subject>
               <reference value="urn:uuid:b29ca268-a90f-4ed5-874c-cba8369aca54"/>
               <display value="Hynek Kubíčková"/>
            </subject>
            <effectiveDateTime value="2020-07-17"/>
            <valueQuantity>
               <value value="178.2"/>
               <unit value="/min"/>
               <code value="/min"/>
            </valueQuantity>
         </Observation>
      </resource>
   </entry>
   <entry>
      <fullUrl value="urn:uuid:25ead2c9-54d7-42f5-a29d-54a4ba297a72"/>
      <resource>
         <Observation>
            <id value="25ead2c9-54d7-42f5-a29d-54a4ba297a72"/>
            <meta>
               <profile value="http://hl7.org/fhir/StructureDefinition/vitalsigns"/>
            </meta>
            <text>
               <status value="generated"/>
               <div xmlns="http://www.w3.org/1999/xhtml">
                  <table class="hl7__ips">
                     <tr>
                        <th>Vital Sign</th>
                        <th>Date</th>
                        <th>Measurement</th>
                     </tr>
                     <tr>
                        <td>Oxygen saturation in Arterial blood</td>
                        <td>17-Jul-2020</td>
                        <td>84.8 %</td>
                     </tr>
                  </table>
               </div>
            </text>
            <status value="final"/>
            <category>
               <coding>
                  <system value="http://terminology.hl7.org/CodeSystem/observation-category"/>
                  <code value="vital-signs"/>
                  <display value="Vital Signs"/>
               </coding>
            </category>
            <code>
               <coding>
                  <system value="http://loinc.org"/>
                  <code value="$2708-6"/>
                  <display value="Oxygen saturation in Arterial blood"/>
               </coding>
            </code>
            <subject>
               <reference value="urn:uuid:b29ca268-a90f-4ed5-874c-cba8369aca54"/>
               <display value="Hynek Kubíčková"/>
            </subject>
            <effectiveDateTime value="2020-07-17"/>
            <valueQuantity>
               <value value="84.8"/>
               <unit value="%"/>
               <code value="%"/>
            </valueQuantity>
         </Observation>
      </resource>
   </entry>
   <entry>
      <fullUrl value="urn:uuid:5c29e57c-066c-4c0f-97c7-4e6237a0c6e8"/>
      <resource>
         <Observation>
            <id value="5c29e57c-066c-4c0f-97c7-4e6237a0c6e8"/>
            <meta>
               <profile value="http://hl7.org/fhir/StructureDefinition/vitalsigns"/>
            </meta>
            <text>
               <status value="generated"/>
               <div xmlns="http://www.w3.org/1999/xhtml">
                  <table class="hl7__ips">
                     <tr>
                        <th>Vital Sign</th>
                        <th>Date</th>
                        <th>Measurement</th>
                     </tr>
                     <tr>
                        <td>Diastolic Blood Pressure</td>
                        <td>17-Jul-2020</td>
                        <td>86 mm[Hg]</td>
                     </tr>
                  </table>
               </div>
            </text>
            <status value="final"/>
            <category>
               <coding>
                  <system value="http://terminology.hl7.org/CodeSystem/observation-category"/>
                  <code value="vital-signs"/>
                  <display value="Vital Signs"/>
               </coding>
            </category>
            <code>
               <coding>
                  <system value="http://loinc.org"/>
                  <code value="$8462-4"/>
                  <display value="Diastolic Blood Pressure"/>
               </coding>
            </code>
            <subject>
               <reference value="urn:uuid:b29ca268-a90f-4ed5-874c-cba8369aca54"/>
               <display value="Hynek Kubíčková"/>
            </subject>
            <effectiveDateTime value="2020-07-17"/>
            <valueQuantity>
               <value value="86"/>
               <unit value="mm[Hg]"/>
               <code value="mm[Hg]"/>
            </valueQuantity>
         </Observation>
      </resource>
   </entry>
   <entry>
      <fullUrl value="urn:uuid:58f39ef5-b9bc-4493-a94a-3331fac87b2b"/>
      <resource>
         <Observation>
            <id value="58f39ef5-b9bc-4493-a94a-3331fac87b2b"/>
            <meta>
               <profile value="http://hl7.org/fhir/StructureDefinition/vitalsigns"/>
            </meta>
            <text>
               <status value="generated"/>
               <div xmlns="http://www.w3.org/1999/xhtml">
                  <table class="hl7__ips">
                     <tr>
                        <th>Vital Sign</th>
                        <th>Date</th>
                        <th>Measurement</th>
                     </tr>
                     <tr>
                        <td>Systolic Blood Pressure</td>
                        <td>17-Jul-2020</td>
                        <td>113 mm[Hg]</td>
                     </tr>
                  </table>
               </div>
            </text>
            <status value="final"/>
            <category>
               <coding>
                  <system value="http://terminology.hl7.org/CodeSystem/observation-category"/>
                  <code value="vital-signs"/>
                  <display value="Vital Signs"/>
               </coding>
            </category>
            <code>
               <coding>
                  <system value="http://loinc.org"/>
                  <code value="$8480-6"/>
                  <display value="Systolic Blood Pressure"/>
               </coding>
            </code>
            <subject>
               <reference value="urn:uuid:b29ca268-a90f-4ed5-874c-cba8369aca54"/>
               <display value="Hynek Kubíčková"/>
            </subject>
            <effectiveDateTime value="2020-07-17"/>
            <valueQuantity>
               <value value="113"/>
               <unit value="mm[Hg]"/>
               <code value="mm[Hg]"/>
            </valueQuantity>
         </Observation>
      </resource>
   </entry>
   <entry>
      <fullUrl value="urn:uuid:0c179d83-d4fb-40f8-b8fb-569d0753e674"/>
      <resource>
         <Observation>
            <id value="0c179d83-d4fb-40f8-b8fb-569d0753e674"/>
            <meta>
               <profile value="http://hl7.org/fhir/StructureDefinition/vitalsigns"/>
            </meta>
            <text>
               <status value="generated"/>
               <div xmlns="http://www.w3.org/1999/xhtml">
                  <table class="hl7__ips">
                     <tr>
                        <th>Vital Sign</th>
                        <th>Date</th>
                        <th>Measurement</th>
                     </tr>
                     <tr>
                        <td>Body Weight</td>
                        <td>17-Jul-2020</td>
                        <td>84.4 kg</td>
                     </tr>
                  </table>
               </div>
            </text>
            <status value="final"/>
            <category>
               <coding>
                  <system value="http://terminology.hl7.org/CodeSystem/observation-category"/>
                  <code value="vital-signs"/>
                  <display value="Vital Signs"/>
               </coding>
            </category>
            <code>
               <coding>
                  <system value="http://loinc.org"/>
                  <code value="$29463-7"/>
                  <display value="Body Weight"/>
               </coding>
            </code>
            <subject>
               <reference value="urn:uuid:b29ca268-a90f-4ed5-874c-cba8369aca54"/>
               <display value="Hynek Kubíčková"/>
            </subject>
            <effectiveDateTime value="2020-07-17"/>
            <valueQuantity>
               <value value="84.4"/>
               <unit value="kg"/>
               <code value="kg"/>
            </valueQuantity>
         </Observation>
      </resource>
   </entry>
   <entry>
      <fullUrl value="urn:uuid:78209227-811c-43bc-a198-99d225bb299b"/>
      <resource>
         <Observation>
            <id value="78209227-811c-43bc-a198-99d225bb299b"/>
            <meta>
               <profile value="http://hl7.eu/fhir/laboratory/StructureDefinition/Observation-resultslab-eu-lab"/>
            </meta>
            <text>
               <status value="generated"/>
               <div xmlns="http://www.w3.org/1999/xhtml">
                  <table class="hl7__eu__lab__report">
                     <tr>
                        <th>Test</th>
                        <th>06-Oct-2022</th>
                        <th>Reference Range</th>
                        <th>Unit</th>
                     </tr>
                     <tr>
                        <td>Leukocytes [#/volume] in Blood by Automated count</td>
                        <td>8.2</td>
                        <td>3.5 - 10.5</td>
                        <td/>
                        <td>10*3/uL</td>
                     </tr>
                  </table>
               </div>
            </text>
            <status value="final"/>
            <category>
               <coding>
                  <system value="http://terminology.hl7.org/CodeSystem/observation-category"/>
                  <code value="laboratory"/>
               </coding>
            </category>
            <code>
               <coding>
                  <system value="http://loinc.org"/>
                  <code value="6690-2"/>
                  <display value="Leukocytes [#/volume] in Blood by Automated count"/>
               </coding>
               <text value="Leukocytes [#/volume] in Blood by Automated count"/>
            </code>
            <subject>
               <reference value="urn:uuid:b29ca268-a90f-4ed5-874c-cba8369aca54"/>
               <display value="Hynek Kubíčková"/>
            </subject>
            <effectiveDateTime value="2022-10-06T12:02:45Z"/>
            <performer>
               <display value="The Central European Lab"/>
            </performer>
            <valueQuantity>
               <value value="8.2"/>
               <unit value="10*3/uL"/>
               <system value="http://unitsofmeasure.org"/>
               <code value="10*3/uL"/>
            </valueQuantity>
            <referenceRange>
               <low>
                  <value value="3.5"/>
                  <system value="http://unitsofmeasure.org"/>
                  <code value="10*3/uL"/>
               </low>
            </referenceRange>
            <referenceRange>
               <high>
                  <value value="10.5"/>
                  <system value="http://unitsofmeasure.org"/>
                  <code value="10*3/uL"/>
               </high>
            </referenceRange>
         </Observation>
      </resource>
   </entry>
   <entry>
      <fullUrl value="urn:uuid:ff985172-46ca-4456-8200-1b7f004a29ee"/>
      <resource>
         <Observation>
            <id value="ff985172-46ca-4456-8200-1b7f004a29ee"/>
            <meta>
               <profile value="http://hl7.eu/fhir/laboratory/StructureDefinition/Observation-resultslab-eu-lab"/>
            </meta>
            <text>
               <status value="generated"/>
               <div xmlns="http://www.w3.org/1999/xhtml">
                  <table class="hl7__eu__lab__report">
                     <tr>
                        <th>Test</th>
                        <th>06-Oct-2022</th>
                        <th>Reference Range</th>
                        <th>Unit</th>
                     </tr>
                     <tr>
                        <td>Erythrocytes [#/volume] in Blood by Automated count</td>
                        <td>4.0</td>
                        <td>4.5 - 6.2</td>
                        <td>L</td>
                        <td>10*6/uL</td>
                     </tr>
                  </table>
               </div>
            </text>
            <status value="final"/>
            <category>
               <coding>
                  <system value="http://terminology.hl7.org/CodeSystem/observation-category"/>
                  <code value="laboratory"/>
               </coding>
            </category>
            <code>
               <coding>
                  <system value="http://loinc.org"/>
                  <code value="789-8"/>
                  <display value="Erythrocytes [#/volume] in Blood by Automated count"/>
               </coding>
               <text value="Erythrocytes [#/volume] in Blood by Automated count"/>
            </code>
            <subject>
               <reference value="urn:uuid:b29ca268-a90f-4ed5-874c-cba8369aca54"/>
               <display value="Hynek Kubíčková"/>
            </subject>
            <effectiveDateTime value="2022-10-06T12:02:45Z"/>
            <performer>
               <display value="The Central European Lab"/>
            </performer>
            <valueQuantity>
               <value value="4"/>
               <unit value="10*6/uL"/>
               <system value="http://unitsofmeasure.org"/>
               <code value="10*6/uL"/>
            </valueQuantity>
            <interpretation>
               <coding>
                  <system value="http://terminology.hl7.org/CodeSystem/v3-ObservationInterpretation"/>
                  <code value="L"/>
                  <display value="Low"/>
               </coding>
            </interpretation>
            <referenceRange>
               <low>
                  <value value="4.5"/>
                  <system value="http://unitsofmeasure.org"/>
                  <code value="10*6/uL"/>
               </low>
            </referenceRange>
            <referenceRange>
               <high>
                  <value value="6.2"/>
                  <system value="http://unitsofmeasure.org"/>
                  <code value="10*6/uL"/>
               </high>
            </referenceRange>
         </Observation>
      </resource>
   </entry>
   <entry>
      <fullUrl value="urn:uuid:eed3dbbf-7c56-40ed-bc46-2b8a0afc01d5"/>
      <resource>
         <Observation>
            <id value="eed3dbbf-7c56-40ed-bc46-2b8a0afc01d5"/>
            <meta>
               <profile value="http://hl7.eu/fhir/laboratory/StructureDefinition/Observation-resultslab-eu-lab"/>
            </meta>
            <text>
               <status value="generated"/>
               <div xmlns="http://www.w3.org/1999/xhtml">
                  <table class="hl7__eu__lab__report">
                     <tr>
                        <th>Test</th>
                        <th>06-Oct-2022</th>
                        <th>Reference Range</th>
                        <th>Unit</th>
                     </tr>
                     <tr>
                        <td>Hemoglobin [Mass/volume] in Blood</td>
                        <td>16.0</td>
                        <td>14 - 18</td>
                        <td/>
                        <td>g/dL</td>
                     </tr>
                  </table>
               </div>
            </text>
            <status value="final"/>
            <category>
               <coding>
                  <system value="http://terminology.hl7.org/CodeSystem/observation-category"/>
                  <code value="laboratory"/>
               </coding>
            </category>
            <code>
               <coding>
                  <system value="http://loinc.org"/>
                  <code value="718-7"/>
                  <display value="Hemoglobin [Mass/volume] in Blood"/>
               </coding>
               <text value="Hemoglobin [Mass/volume] in Blood"/>
            </code>
            <subject>
               <reference value="urn:uuid:b29ca268-a90f-4ed5-874c-cba8369aca54"/>
               <display value="Hynek Kubíčková"/>
            </subject>
            <effectiveDateTime value="2022-10-06T12:02:45Z"/>
            <performer>
               <display value="The Central European Lab"/>
            </performer>
            <valueQuantity>
               <value value="16"/>
               <unit value="g/dL"/>
               <system value="http://unitsofmeasure.org"/>
               <code value="g/dL"/>
            </valueQuantity>
            <referenceRange>
               <low>
                  <value value="14"/>
                  <system value="http://unitsofmeasure.org"/>
                  <code value="g/dL"/>
               </low>
            </referenceRange>
            <referenceRange>
               <high>
                  <value value="18"/>
                  <system value="http://unitsofmeasure.org"/>
                  <code value="g/dL"/>
               </high>
            </referenceRange>
         </Observation>
      </resource>
   </entry>
   <entry>
      <fullUrl value="urn:uuid:b249e798-c6ad-48d4-9882-934e41825ee0"/>
      <resource>
         <Observation>
            <id value="b249e798-c6ad-48d4-9882-934e41825ee0"/>
            <meta>
               <profile value="http://hl7.eu/fhir/laboratory/StructureDefinition/Observation-resultslab-eu-lab"/>
            </meta>
            <text>
               <status value="generated"/>
               <div xmlns="http://www.w3.org/1999/xhtml">
                  <table class="hl7__eu__lab__report">
                     <tr>
                        <th>Test</th>
                        <th>06-Oct-2022</th>
                        <th>Reference Range</th>
                        <th>Unit</th>
                     </tr>
                     <tr>
                        <td>Hematocrit [Volume Fraction] of Blood by Automated count</td>
                        <td>48.7</td>
                        <td>38 - 52</td>
                        <td/>
                        <td>%</td>
                     </tr>
                  </table>
               </div>
            </text>
            <status value="final"/>
            <category>
               <coding>
                  <system value="http://terminology.hl7.org/CodeSystem/observation-category"/>
                  <code value="laboratory"/>
               </coding>
            </category>
            <code>
               <coding>
                  <system value="http://loinc.org"/>
                  <code value="4544-3"/>
                  <display value="Hematocrit [Volume Fraction] of Blood by Automated count"/>
               </coding>
               <text value="Hematocrit [Volume Fraction] of Blood by Automated count"/>
            </code>
            <subject>
               <reference value="urn:uuid:b29ca268-a90f-4ed5-874c-cba8369aca54"/>
               <display value="Hynek Kubíčková"/>
            </subject>
            <effectiveDateTime value="2022-10-06T12:02:45Z"/>
            <performer>
               <display value="The Central European Lab"/>
            </performer>
            <valueQuantity>
               <value value="48.7"/>
               <unit value="%"/>
               <system value="http://unitsofmeasure.org"/>
               <code value="%"/>
            </valueQuantity>
            <referenceRange>
               <low>
                  <value value="38"/>
                  <system value="http://unitsofmeasure.org"/>
                  <code value="%"/>
               </low>
            </referenceRange>
            <referenceRange>
               <high>
                  <value value="52"/>
                  <system value="http://unitsofmeasure.org"/>
                  <code value="%"/>
               </high>
            </referenceRange>
         </Observation>
      </resource>
   </entry>
   <entry>
      <fullUrl value="urn:uuid:b86f83ec-8b8c-40e2-92d6-a6af5177f20d"/>
      <resource>
         <Observation>
            <id value="b86f83ec-8b8c-40e2-92d6-a6af5177f20d"/>
            <meta>
               <profile value="http://hl7.eu/fhir/laboratory/StructureDefinition/Observation-resultslab-eu-lab"/>
            </meta>
            <text>
               <status value="generated"/>
               <div xmlns="http://www.w3.org/1999/xhtml">
                  <table class="hl7__eu__lab__report">
                     <tr>
                        <th>Test</th>
                        <th>06-Oct-2022</th>
                        <th>Reference Range</th>
                        <th>Unit</th>
                     </tr>
                     <tr>
                        <td>MCV [Entitic volume] by Automated count</td>
                        <td>86.5</td>
                        <td>80 - 98</td>
                        <td/>
                        <td>fL</td>
                     </tr>
                  </table>
               </div>
            </text>
            <status value="final"/>
            <category>
               <coding>
                  <system value="http://terminology.hl7.org/CodeSystem/observation-category"/>
                  <code value="laboratory"/>
               </coding>
            </category>
            <code>
               <coding>
                  <system value="http://loinc.org"/>
                  <code value="787-2"/>
                  <display value="MCV [Entitic volume] by Automated count"/>
               </coding>
               <text value="MCV [Entitic volume] by Automated count"/>
            </code>
            <subject>
               <reference value="urn:uuid:b29ca268-a90f-4ed5-874c-cba8369aca54"/>
               <display value="Hynek Kubíčková"/>
            </subject>
            <effectiveDateTime value="2022-10-06T12:02:45Z"/>
            <performer>
               <display value="The Central European Lab"/>
            </performer>
            <valueQuantity>
               <value value="86.5"/>
               <unit value="fL"/>
               <system value="http://unitsofmeasure.org"/>
               <code value="fL"/>
            </valueQuantity>
            <referenceRange>
               <low>
                  <value value="80"/>
                  <system value="http://unitsofmeasure.org"/>
                  <code value="fL"/>
               </low>
            </referenceRange>
            <referenceRange>
               <high>
                  <value value="98"/>
                  <system value="http://unitsofmeasure.org"/>
                  <code value="fL"/>
               </high>
            </referenceRange>
         </Observation>
      </resource>
   </entry>
   <entry>
      <fullUrl value="urn:uuid:9432bde0-27da-4a74-b022-342771abbb68"/>
      <resource>
         <Observation>
            <id value="9432bde0-27da-4a74-b022-342771abbb68"/>
            <meta>
               <profile value="http://hl7.eu/fhir/laboratory/StructureDefinition/Observation-resultslab-eu-lab"/>
            </meta>
            <text>
               <status value="generated"/>
               <div xmlns="http://www.w3.org/1999/xhtml">
                  <table class="hl7__eu__lab__report">
                     <tr>
                        <th>Test</th>
                        <th>06-Oct-2022</th>
                        <th>Reference Range</th>
                        <th>Unit</th>
                     </tr>
                     <tr>
                        <td>MCH [Entitic mass] by Automated count</td>
                        <td>29.8</td>
                        <td>27 - 33</td>
                        <td/>
                        <td>pg</td>
                     </tr>
                  </table>
               </div>
            </text>
            <status value="final"/>
            <category>
               <coding>
                  <system value="http://terminology.hl7.org/CodeSystem/observation-category"/>
                  <code value="laboratory"/>
               </coding>
            </category>
            <code>
               <coding>
                  <system value="http://loinc.org"/>
                  <code value="785-6"/>
                  <display value="MCH [Entitic mass] by Automated count"/>
               </coding>
               <text value="MCH [Entitic mass] by Automated count"/>
            </code>
            <subject>
               <reference value="urn:uuid:b29ca268-a90f-4ed5-874c-cba8369aca54"/>
               <display value="Hynek Kubíčková"/>
            </subject>
            <effectiveDateTime value="2022-10-06T12:02:45Z"/>
            <performer>
               <display value="The Central European Lab"/>
            </performer>
            <valueQuantity>
               <value value="29.8"/>
               <unit value="pg"/>
               <system value="http://unitsofmeasure.org"/>
               <code value="pg"/>
            </valueQuantity>
            <referenceRange>
               <low>
                  <value value="27"/>
                  <system value="http://unitsofmeasure.org"/>
                  <code value="pg"/>
               </low>
            </referenceRange>
            <referenceRange>
               <high>
                  <value value="33"/>
                  <system value="http://unitsofmeasure.org"/>
                  <code value="pg"/>
               </high>
            </referenceRange>
         </Observation>
      </resource>
   </entry>
   <entry>
      <fullUrl value="urn:uuid:d09a6af7-8c5b-456e-be8f-3f7025ad178f"/>
      <resource>
         <Observation>
            <id value="d09a6af7-8c5b-456e-be8f-3f7025ad178f"/>
            <meta>
               <profile value="http://hl7.eu/fhir/laboratory/StructureDefinition/Observation-resultslab-eu-lab"/>
            </meta>
            <text>
               <status value="generated"/>
               <div xmlns="http://www.w3.org/1999/xhtml">
                  <table class="hl7__eu__lab__report">
                     <tr>
                        <th>Test</th>
                        <th>06-Oct-2022</th>
                        <th>Reference Range</th>
                        <th>Unit</th>
                     </tr>
                     <tr>
                        <td>MCHC [Mass/volume] by Automated count</td>
                        <td>33.8</td>
                        <td>32 - 36</td>
                        <td/>
                        <td>g/dL</td>
                     </tr>
                  </table>
               </div>
            </text>
            <status value="final"/>
            <category>
               <coding>
                  <system value="http://terminology.hl7.org/CodeSystem/observation-category"/>
                  <code value="laboratory"/>
               </coding>
            </category>
            <code>
               <coding>
                  <system value="http://loinc.org"/>
                  <code value="786-4"/>
                  <display value="MCHC [Mass/volume] by Automated count"/>
               </coding>
               <text value="MCHC [Mass/volume] by Automated count"/>
            </code>
            <subject>
               <reference value="urn:uuid:b29ca268-a90f-4ed5-874c-cba8369aca54"/>
               <display value="Hynek Kubíčková"/>
            </subject>
            <effectiveDateTime value="2022-10-06T12:02:45Z"/>
            <performer>
               <display value="The Central European Lab"/>
            </performer>
            <valueQuantity>
               <value value="33.8"/>
               <unit value="g/dL"/>
               <system value="http://unitsofmeasure.org"/>
               <code value="g/dL"/>
            </valueQuantity>
            <referenceRange>
               <low>
                  <value value="32"/>
                  <system value="http://unitsofmeasure.org"/>
                  <code value="g/dL"/>
               </low>
            </referenceRange>
            <referenceRange>
               <high>
                  <value value="36"/>
                  <system value="http://unitsofmeasure.org"/>
                  <code value="g/dL"/>
               </high>
            </referenceRange>
         </Observation>
      </resource>
   </entry>
   <entry>
      <fullUrl value="urn:uuid:ef482f8b-827a-4734-84eb-767c82016d2b"/>
      <resource>
         <Observation>
            <id value="ef482f8b-827a-4734-84eb-767c82016d2b"/>
            <meta>
               <profile value="http://hl7.eu/fhir/laboratory/StructureDefinition/Observation-resultslab-eu-lab"/>
            </meta>
            <text>
               <status value="generated"/>
               <div xmlns="http://www.w3.org/1999/xhtml">
                  <table class="hl7__eu__lab__report">
                     <tr>
                        <th>Test</th>
                        <th>06-Oct-2022</th>
                        <th>Reference Range</th>
                        <th>Unit</th>
                     </tr>
                     <tr>
                        <td>Erythrocyte distribution width [Entitic volume] by Automated count</td>
                        <td>45.7</td>
                        <td>36 - 55</td>
                        <td/>
                        <td>fL</td>
                     </tr>
                  </table>
               </div>
            </text>
            <status value="final"/>
            <category>
               <coding>
                  <system value="http://terminology.hl7.org/CodeSystem/observation-category"/>
                  <code value="laboratory"/>
               </coding>
            </category>
            <code>
               <coding>
                  <system value="http://loinc.org"/>
                  <code value="21000-5"/>
                  <display value="Erythrocyte distribution width [Entitic volume] by Automated count"/>
               </coding>
               <text value="Erythrocyte distribution width [Entitic volume] by Automated count"/>
            </code>
            <subject>
               <reference value="urn:uuid:b29ca268-a90f-4ed5-874c-cba8369aca54"/>
               <display value="Hynek Kubíčková"/>
            </subject>
            <effectiveDateTime value="2022-10-06T12:02:45Z"/>
            <performer>
               <display value="The Central European Lab"/>
            </performer>
            <valueQuantity>
               <value value="45.7"/>
               <unit value="fL"/>
               <system value="http://unitsofmeasure.org"/>
               <code value="fL"/>
            </valueQuantity>
            <referenceRange>
               <low>
                  <value value="36"/>
                  <system value="http://unitsofmeasure.org"/>
                  <code value="fL"/>
               </low>
            </referenceRange>
            <referenceRange>
               <high>
                  <value value="55"/>
                  <system value="http://unitsofmeasure.org"/>
                  <code value="fL"/>
               </high>
            </referenceRange>
         </Observation>
      </resource>
   </entry>
   <entry>
      <fullUrl value="urn:uuid:320ea43e-11c9-40ca-a19c-3c60a43404c4"/>
      <resource>
         <Observation>
            <id value="320ea43e-11c9-40ca-a19c-3c60a43404c4"/>
            <meta>
               <profile value="http://hl7.eu/fhir/laboratory/StructureDefinition/Observation-resultslab-eu-lab"/>
            </meta>
            <text>
               <status value="generated"/>
               <div xmlns="http://www.w3.org/1999/xhtml">
                  <table class="hl7__eu__lab__report">
                     <tr>
                        <th>Test</th>
                        <th>06-Oct-2022</th>
                        <th>Reference Range</th>
                        <th>Unit</th>
                     </tr>
                     <tr>
                        <td>Platelets [#/volume] in Blood by Automated count</td>
                        <td>251.7</td>
                        <td>150 - 350</td>
                        <td/>
                        <td>10*3/uL</td>
                     </tr>
                  </table>
               </div>
            </text>
            <status value="final"/>
            <category>
               <coding>
                  <system value="http://terminology.hl7.org/CodeSystem/observation-category"/>
                  <code value="laboratory"/>
               </coding>
            </category>
            <code>
               <coding>
                  <system value="http://loinc.org"/>
                  <code value="777-3"/>
                  <display value="Platelets [#/volume] in Blood by Automated count"/>
               </coding>
               <text value="Platelets [#/volume] in Blood by Automated count"/>
            </code>
            <subject>
               <reference value="urn:uuid:b29ca268-a90f-4ed5-874c-cba8369aca54"/>
               <display value="Hynek Kubíčková"/>
            </subject>
            <effectiveDateTime value="2022-10-06T12:02:45Z"/>
            <performer>
               <display value="The Central European Lab"/>
            </performer>
            <valueQuantity>
               <value value="251.7"/>
               <unit value="10*3/uL"/>
               <system value="http://unitsofmeasure.org"/>
               <code value="10*3/uL"/>
            </valueQuantity>
            <referenceRange>
               <low>
                  <value value="150"/>
                  <system value="http://unitsofmeasure.org"/>
                  <code value="10*3/uL"/>
               </low>
            </referenceRange>
            <referenceRange>
               <high>
                  <value value="350"/>
                  <system value="http://unitsofmeasure.org"/>
                  <code value="10*3/uL"/>
               </high>
            </referenceRange>
         </Observation>
      </resource>
   </entry>
   <entry>
      <fullUrl value="urn:uuid:6d011450-ed62-4c68-aefc-100b40c68921"/>
      <resource>
         <Observation>
            <id value="6d011450-ed62-4c68-aefc-100b40c68921"/>
            <meta>
               <profile value="http://hl7.eu/fhir/laboratory/StructureDefinition/Observation-resultslab-eu-lab"/>
            </meta>
            <text>
               <status value="generated"/>
               <div xmlns="http://www.w3.org/1999/xhtml">
                  <table class="hl7__eu__lab__report">
                     <tr>
                        <th>Test</th>
                        <th>06-Oct-2022</th>
                        <th>Reference Range</th>
                        <th>Unit</th>
                     </tr>
                     <tr>
                        <td>Platelet distribution width [Entitic volume] in Blood by Automated count</td>
                        <td>377.3</td>
                        <td>150 - 450</td>
                        <td/>
                        <td>fL</td>
                     </tr>
                  </table>
               </div>
            </text>
            <status value="final"/>
            <category>
               <coding>
                  <system value="http://terminology.hl7.org/CodeSystem/observation-category"/>
                  <code value="laboratory"/>
               </coding>
            </category>
            <code>
               <coding>
                  <system value="http://loinc.org"/>
                  <code value="32207-3"/>
                  <display value="Platelet distribution width [Entitic volume] in Blood by Automated count"/>
               </coding>
               <text value="Platelet distribution width [Entitic volume] in Blood by Automated count"/>
            </code>
            <subject>
               <reference value="urn:uuid:b29ca268-a90f-4ed5-874c-cba8369aca54"/>
               <display value="Hynek Kubíčková"/>
            </subject>
            <effectiveDateTime value="2022-10-06T12:02:45Z"/>
            <performer>
               <display value="The Central European Lab"/>
            </performer>
            <valueQuantity>
               <value value="377.3"/>
               <unit value="fL"/>
               <system value="http://unitsofmeasure.org"/>
               <code value="fL"/>
            </valueQuantity>
            <referenceRange>
               <low>
                  <value value="150"/>
                  <system value="http://unitsofmeasure.org"/>
                  <code value="fL"/>
               </low>
            </referenceRange>
            <referenceRange>
               <high>
                  <value value="450"/>
                  <system value="http://unitsofmeasure.org"/>
                  <code value="fL"/>
               </high>
            </referenceRange>
         </Observation>
      </resource>
   </entry>
   <entry>
      <fullUrl value="urn:uuid:decfaa92-97c8-4517-ba74-34beaab26f83"/>
      <resource>
         <Observation>
            <id value="decfaa92-97c8-4517-ba74-34beaab26f83"/>
            <meta>
               <profile value="http://hl7.eu/fhir/laboratory/StructureDefinition/Observation-resultslab-eu-lab"/>
            </meta>
            <text>
               <status value="generated"/>
               <div xmlns="http://www.w3.org/1999/xhtml">
                  <table class="hl7__eu__lab__report">
                     <tr>
                        <th>Test</th>
                        <th>06-Oct-2022</th>
                        <th>Reference Range</th>
                        <th>Unit</th>
                     </tr>
                     <tr>
                        <td>Platelet mean volume [Entitic volume] in Blood by Automated count</td>
                        <td>11.8</td>
                        <td>9.8 - 13.8</td>
                        <td/>
                        <td>fL</td>
                     </tr>
                  </table>
               </div>
            </text>
            <status value="final"/>
            <category>
               <coding>
                  <system value="http://terminology.hl7.org/CodeSystem/observation-category"/>
                  <code value="laboratory"/>
               </coding>
            </category>
            <code>
               <coding>
                  <system value="http://loinc.org"/>
                  <code value="32623-1"/>
                  <display value="Platelet mean volume [Entitic volume] in Blood by Automated count"/>
               </coding>
               <text value="Platelet mean volume [Entitic volume] in Blood by Automated count"/>
            </code>
            <subject>
               <reference value="urn:uuid:b29ca268-a90f-4ed5-874c-cba8369aca54"/>
               <display value="Hynek Kubíčková"/>
            </subject>
            <effectiveDateTime value="2022-10-06T12:02:45Z"/>
            <performer>
               <display value="The Central European Lab"/>
            </performer>
            <valueQuantity>
               <value value="11.8"/>
               <unit value="fL"/>
               <system value="http://unitsofmeasure.org"/>
               <code value="fL"/>
            </valueQuantity>
            <referenceRange>
               <low>
                  <value value="9.8"/>
                  <system value="http://unitsofmeasure.org"/>
                  <code value="fL"/>
               </low>
            </referenceRange>
            <referenceRange>
               <high>
                  <value value="13.8"/>
                  <system value="http://unitsofmeasure.org"/>
                  <code value="fL"/>
               </high>
            </referenceRange>
         </Observation>
      </resource>
   </entry>
   <entry>
      <fullUrl value="urn:uuid:79bc8e67-8fcf-4dce-a16e-f47b8ad5f30b"/>
      <resource>
         <Device>
            <id value="79bc8e67-8fcf-4dce-a16e-f47b8ad5f30b"/>
            <text>
               <status value="generated"/>
               <div xmlns="http://www.w3.org/1999/xhtml">SYNDERAI Synthetic Generator v5.0</div>
            </text>
            <status value="active&#34;"/>
            <distinctIdentifier value="synderai-generator-50"/>
            <manufacturer value="SYNDERAI Project"/>
            <deviceName>
               <name value="SYNDERAI Synthetic Generator"/>
               <type value="manufacturer-name"/>
            </deviceName>
            <version>
               <value value="5.0"/>
            </version>
         </Device>
      </resource>
   </entry>
   <entry>
      <fullUrl value="urn:uuid:47c6ff58-5a53-41f9-af32-80b71f6639b8"/>
      <resource>
         <Provenance>
            <id value="47c6ff58-5a53-41f9-af32-80b71f6639b8"/>
            <text>
               <status value="generated"/>
               <div xmlns="http://www.w3.org/1999/xhtml">Provenance for SYNDERAI Synthetic Example Data Resource</div>
            </text>
            <target>
               <reference value="Patient/b29ca268-a90f-4ed5-874c-cba8369aca54"/>
            </target>
            <target>
               <reference value="Bundle/bea25003-aa8d-4440-82ad-f77bc84771fa"/>
            </target>
            <target>
               <reference value="Composition/ab13b8be-6c83-436c-90db-65b95d884d53"/>
            </target>
            <target>
               <reference value="PractitionerRole/e6a8a1b5-37a3-4a91-8baf-a039b2d15347"/>
            </target>
            <target>
               <reference value="Organization/8c014e56-f8f4-4ef4-b98d-8c9217f68655"/>
            </target>
            <target>
               <reference value="Practitioner/8cee5b02-d63b-4d62-89fb-0317ebdfd0c2"/>
            </target>
            <recorded value="2022-10-06T12:02:45Z"/>
            <policy value="https://synderai.net/synderai-synthetic-data-policy"/>
            <reason>
               <text value="Interoperability Testing and Training (non-clinical use)"/>
            </reason>
            <activity>
               <text value="Synthetic Example Data Generation"/>
            </activity>
            <agent>
               <type>
                  <text value="author"/>
               </type>
               <who>
                  <reference value="Device/79bc8e67-8fcf-4dce-a16e-f47b8ad5f30b"/>
               </who>
            </agent>
         </Provenance>
      </resource>
   </entry>
</Bundle>