{
  "resourceType": "Bundle",
  "id": "3264a0ef-1259-4ba4-b4e4-67371acddfe9",
  "meta": {
    "profile": [
      "http://hl7.eu/fhir/eps/StructureDefinition/bundle-eu-eps"
    ]
  },
  "identifier": {
    "assigner": {
      "display": "HL7 Europe"
    },
    "system": "urn:oid:2.16.840.1.113883.2.51.999",
    "value": "a160f337-5766-4951-8e0b-a811f2f52809"
  },
  "entry": [
    {
      "fullUrl": "urn:uuid:f17d92b9-6f96-42c2-aa40-16ab896fedf5",
      "resource": {
        "resourceType": "Composition",
        "id": "f17d92b9-6f96-42c2-aa40-16ab896fedf5",
        "meta": {
          "security": [
            {
              "system": "http://terminology.hl7.org/CodeSystem/v3-ActReason",
              "code": "HTEST"
            },
            {
              "system": "http://terminology.hl7.org/CodeSystem/v3-ActReason",
              "code": "TRAIN"
            }
          ],
          "tag": [
            {
              "system": "https://synderai.net/fhir/CodeSystem/tags",
              "code": "synthetic",
              "display": "SYNDERAI Synthetic data"
            }
          ],
          "profile": [
            "http://hl7.eu/fhir/eps/StructureDefinition/composition-eu-eps"
          ]
        },
        "identifier": {
          "assigner": {
            "display": "HL7 Europe"
          },
          "system": "urn:oid:2.16.840.1.113883.2.51.999",
          "value": "95de1057-86d3-49f1-ad66-b9ae89f0d8ad"
        },
        "type": {
          "coding": [
            {
              "system": "http://loinc.org",
              "code": "60591-5",
              "display": "Patient summary Document"
            }
          ],
          "text": "Patient summary Document"
        },
        "author": [
          {
            "reference": "urn:uuid:53f29a0f-472b-49e1-a28f-fc0ef345d368"
          }
        ],
        "section": [
          {
            "text": {
              "status": "generated",
              "div": "<div xmlns=\"http://www.w3.org/1999/xhtml\"><table class=\"hl7__ips\"><tr><th>Condition</th><th>Onset Date</th><th>Status</th></tr><tr><td>Chronic kidney disease stage 2</td><td><span class=\"nb\">06-Feb-2024</span></td><td>active</td></tr><tr><td>Microalbuminuria due to type 2 diabetes mellitus</td><td><span class=\"nb\">06-Feb-2024</span></td><td>active</td></tr><tr><td>Disorder of kidney due to diabetes mellitus</td><td><span class=\"nb\">29-Mar-2022</span></td><td>active</td></tr><tr><td>Chronic kidney disease stage 1</td><td><span class=\"nb\">29-Mar-2022</span></td><td>active</td></tr><tr><td>Essential hypertension</td><td><span class=\"nb\">16-Dec-2003</span></td><td>active</td></tr></table></div>"
            },
            "entry": [
              {
                "reference": "urn:uuid:45cd07e0-7df5-47b4-9462-709fcdecaf15"
              },
              {
                "reference": "urn:uuid:e2467dc5-11e6-4e28-89cc-680bb10a6e96"
              },
              {
                "reference": "urn:uuid:53639397-ca2b-4e07-a15e-e44684862b33"
              },
              {
                "reference": "urn:uuid:108139f8-b8ce-4484-b8f8-ebea924df1b3"
              },
              {
                "reference": "urn:uuid:e7c866b5-e7fe-44c8-903f-c30eda78ec69"
              }
            ],
            "code": {
              "coding": [
                {
                  "system": "http://loinc.org",
                  "code": "11450-4",
                  "display": "Problem list - Reported"
                }
              ]
            },
            "title": "Problem list"
          },
          {
            "text": {
              "status": "generated",
              "div": "<div xmlns=\"http://www.w3.org/1999/xhtml\"><table class=\"hl7__ips\"><tr><th>Medication</th><th>Since</th><th>Form</th><th>Dosage</th><th>Reason</th></tr><tr><td>Amlodipine (as amlodipine besylate) 2.5 mg oral tablet</td><td><span class=\"nb\">2025-04-15</span></td><td>-</td><td>1 tablet (2.5 mg) by mouth once daily</td><td>Essential hypertension (disorder)</td></tr><tr><td>Hydrochlorothiazide 25 mg oral tablet</td><td><span class=\"nb\">2025-04-15</span></td><td>-</td><td>1 tablet (25 mg) by mouth once daily</td><td>Essential hypertension (disorder)</td></tr><tr><td>Lisinopril 10 mg oral tablet</td><td><span class=\"nb\">2025-04-15</span></td><td>-</td><td>1 tablet (10 mg) by mouth once daily</td><td>Essential hypertension (disorder)</td></tr></table></div>"
            },
            "entry": [
              {
                "reference": "urn:uuid:378c9d8a-60d5-44d6-b0c4-fdc2b01da868"
              },
              {
                "reference": "urn:uuid:55e456a7-2f0b-4068-b72d-8f7d9862675e"
              },
              {
                "reference": "urn:uuid:c417a16f-ecac-4ea4-9097-0f1074a8c852"
              }
            ],
            "code": {
              "coding": [
                {
                  "system": "http://loinc.org",
                  "code": "10160-0",
                  "display": "History of Medication use Narrative"
                }
              ]
            },
            "title": "Medication list"
          },
          {
            "text": {
              "status": "generated",
              "div": "<div xmlns=\"http://www.w3.org/1999/xhtml\"><table class=\"hl7__ips\"><tr><th>Vaccine</th><th>Date</th></tr><tr><td>Clostridium tetani toxoid antigen adsorbed only vaccine product</td><td><span class=\"nb\">28-Jan-2025</span></td></tr><tr><td>Influenza virus antigen only vaccine product</td><td><span class=\"nb\">28-Jan-2025</span></td></tr><tr><td>SARS-CoV-2 mRNA vaccine</td><td><span class=\"nb\">09-Mar-2021</span></td></tr></table></div>"
            },
            "entry": [
              {
                "reference": "urn:uuid:576f2d67-dd6f-405c-8ad2-56dc58f4f2f0"
              },
              {
                "reference": "urn:uuid:20af5ba9-a758-4f19-a763-fc6146070328"
              },
              {
                "reference": "urn:uuid:ee6d6521-2566-4b00-96e4-2a64c4a658a3"
              }
            ],
            "code": {
              "coding": [
                {
                  "system": "http://loinc.org",
                  "code": "11369-6",
                  "display": "History of Immunization note"
                }
              ]
            },
            "title": "Immunizations list"
          },
          {
            "text": {
              "status": "generated",
              "div": "<div xmlns=\"http://www.w3.org/1999/xhtml\"><table class=\"hl7__ips\"><tr><th>Procedure</th><th>Date</th><th>Reason</th></tr><tr><td>Suture open wound</td><td><span class=\"nb\">23-Apr-2024</span></td><td>Laceration of thigh</td></tr><tr><td>Depression screening</td><td><span class=\"nb\">13-Dec-2022</span></td><td>-</td></tr><tr><td>Medication reconciliation</td><td><span class=\"nb\">13-Dec-2022</span></td><td>-</td></tr><tr><td>Assessment of health and social care needs</td><td><span class=\"nb\">13-Dec-2022</span></td><td>-</td></tr><tr><td>Assessment of anxiety</td><td><span class=\"nb\">13-Dec-2022</span></td><td>-</td></tr><tr><td>Screening for domestic abuse</td><td><span class=\"nb\">13-Dec-2022</span></td><td>-</td></tr><tr><td>Depression screening using Patient Health Questionnaire Two-Item score (procedure)</td><td><span class=\"nb\">13-Dec-2022</span></td><td>-</td></tr><tr><td>Assessment using AUDIT-C (Alcohol Use Disorders Identification Test - Consumption)</td><td><span class=\"nb\">29-Nov-2022</span></td><td>-</td></tr><tr><td>Assessment of substance use</td><td><span class=\"nb\">29-Nov-2022</span></td><td>-</td></tr></table></div>"
            },
            "entry": [
              {
                "reference": "urn:uuid:bd20ea41-1ef7-41d8-8f48-5cbd2141dd92"
              },
              {
                "reference": "urn:uuid:39a81bd1-93fb-4c48-8448-fab291a13c82"
              },
              {
                "reference": "urn:uuid:2cadc833-56a8-4afd-8476-5baf6c8ec7e0"
              },
              {
                "reference": "urn:uuid:538758be-886d-4656-8ad8-16f350cfdb42"
              },
              {
                "reference": "urn:uuid:9b68a112-d525-451a-8590-337cc40df86c"
              },
              {
                "reference": "urn:uuid:617d7a27-d440-488f-9219-0715a9489022"
              },
              {
                "reference": "urn:uuid:9e83467c-0a77-47e9-9162-a6b65a414588"
              },
              {
                "reference": "urn:uuid:b309b776-4b04-4090-b53c-5aa47df8ec05"
              },
              {
                "reference": "urn:uuid:2ef07a2e-cc76-4e19-9cf6-9c91767d3761"
              }
            ],
            "code": {
              "coding": [
                {
                  "system": "http://loinc.org",
                  "code": "47519-4",
                  "display": "History of Procedures Document"
                }
              ]
            },
            "title": "Procedure History list"
          },
          {
            "text": {
              "status": "generated",
              "div": "<div xmlns=\"http://www.w3.org/1999/xhtml\"><table class=\"hl7__ips\"><tr><th>Allergy/Intolerance</th><th>Onset Date</th><th>Status</th><th>Type</th><th>Reaction</th></tr><tr><td>Inadequate digital access affecting health care</td><td><span class=\"nb\">2025-10-22</span></td><td>active</td><td>environment</td><td></td></tr></table></div>"
            },
            "entry": [
              {
                "reference": "urn:uuid:98ba8d09-ef37-47b4-8a52-25f4ecdbaed7"
              }
            ],
            "code": {
              "coding": [
                {
                  "system": "http://loinc.org",
                  "code": "48765-2",
                  "display": "Allergies and adverse reactions Document"
                }
              ]
            },
            "title": "Allergies and Intolerances"
          },
          {
            "text": {
              "status": "generated",
              "div": "<div xmlns=\"http://www.w3.org/1999/xhtml\"><table class=\"hl7__ips\"><tr><th>Active Planned Care / Goals</th><th>Start Date</th><th>Reason</th></tr><tr><td>Lifestyle education regarding hypertension</td><td><span class=\"nb\">16-Dec-2003</span></td><td>Essential hypertension (disorder)</td></tr><tr><td><ul><li>Maintain blood pressure below 130/80 mmHg to reduce risk of kidney disease progression and cardiovascular complications.</li><li>Implement dietary changes, increase physical activity, and reduce sodium intake to support blood pressure control.</li></ul></td><td></td><td></td></tr><tr><td>Routine antenatal care</td><td><span class=\"nb\">09-Jan-1996</span></td><td>-</td></tr></table></div>"
            },
            "entry": [
              {
                "reference": "urn:uuid:df476c17-5437-4f7c-bf17-7192e07a1937"
              },
              {
                "reference": "urn:uuid:19bf1794-3dea-4390-9952-4a89f952cf29"
              }
            ],
            "code": {
              "coding": [
                {
                  "system": "http://loinc.org",
                  "code": "18776-5",
                  "display": "Plan of care note"
                }
              ]
            },
            "title": "Care Plan"
          },
          {
            "text": {
              "status": "generated",
              "div": "<div xmlns=\"http://www.w3.org/1999/xhtml\"><table class=\"hl7__ips\"><tr><th>Vital Signs</th><th>2025-04-15</th><th>2025-01-28</th></tr><tr><td>Body Height</td><td>172.4 cm</td><td>172.4 cm</td></tr><tr><td>Pain severity - 0-10 verbal numeric rating [Score] - Reported</td><td>3 {score}</td><td>1 {score}</td></tr><tr><td>Body Weight</td><td>102.9 kg</td><td>102.9 kg</td></tr><tr><td>Body mass index (BMI) [Ratio]</td><td>34.6 kg/m2</td><td>34.6 kg/m2</td></tr><tr><td>Diastolic Blood Pressure</td><td>79 mm[Hg]</td><td>79 mm[Hg]</td></tr><tr><td>Systolic Blood Pressure</td><td>103 mm[Hg]</td><td>94 mm[Hg]</td></tr><tr><td>Heart rate</td><td>72 /min</td><td>87 /min</td></tr><tr><td>Respiratory rate</td><td>14 /min</td><td>14 /min</td></tr></table></div>"
            },
            "entry": [
              {
                "reference": "urn:uuid:4af0f035-1068-49b9-89cb-d097c4cc3c6e"
              },
              {
                "reference": "urn:uuid:5aba9004-41ce-47b0-afe7-526e05172ce9"
              },
              {
                "reference": "urn:uuid:0a8fd375-405d-49f0-a09e-d4b3e43eceef"
              },
              {
                "reference": "urn:uuid:035332dd-2d49-4c0f-92e3-647a3e0c4ea8"
              },
              {
                "reference": "urn:uuid:620369d5-89d8-4e0b-aca1-8615fa870dcf"
              },
              {
                "reference": "urn:uuid:f49c933d-58a2-4b3a-932f-69d8581956f3"
              },
              {
                "reference": "urn:uuid:a2edc98a-685a-4c92-bc82-ac91c06a99b6"
              },
              {
                "reference": "urn:uuid:7eb839ae-f707-4d21-bc27-0da28a269aa4"
              },
              {
                "reference": "urn:uuid:2085aa79-e89a-44fc-a2da-114ae67cb028"
              },
              {
                "reference": "urn:uuid:71cf112d-a7f5-4ae5-8ba2-bccbc7ecc58e"
              },
              {
                "reference": "urn:uuid:efb7fdbe-3ddf-40ad-84d9-31be33b2779a"
              },
              {
                "reference": "urn:uuid:c3470543-c5d5-4a17-bc83-4356c32a5973"
              },
              {
                "reference": "urn:uuid:bd8f4b92-6fe9-4f63-83ee-ccd8c400731e"
              },
              {
                "reference": "urn:uuid:54f39df7-52b4-4065-afe6-f3f77cf94cfa"
              },
              {
                "reference": "urn:uuid:244022ea-c247-4886-9c99-e466d641deb6"
              },
              {
                "reference": "urn:uuid:b1816cf9-e9f0-48cf-9115-390f9b3772eb"
              }
            ],
            "code": {
              "coding": [
                {
                  "system": "http://loinc.org",
                  "code": "8716-3",
                  "display": "Vital signs note"
                }
              ]
            },
            "title": "Vital Signs"
          },
          {
            "text": {
              "status": "generated",
              "div": "<div xmlns=\"http://www.w3.org/1999/xhtml\"><table class=\"hl7__ips\"><table class=\"hl7__ips\"><thead><tr><th>Recent Lab Observations</th><th>15-APR-2025</th><th>Reference&#xA0;Range</th><th>Unit</th></tr></thead><tbody><tr><td>Glucose [Mass/volume] in Serum or Plasma</td><td>74.5</td><td>70 - 139</td><td>mg/dL</td></tr><tr><td>Urea nitrogen [Mass/volume] in Serum or Plasma</td><td>7.7</td><td>7 - 20</td><td>mg/dL</td></tr><tr><td>Creatinine [Mass/volume] in Serum or Plasma</td><td><strong>2.0 H</strong></td><td>0.6 - 1.1</td><td>mg/dL</td></tr><tr><td>Calcium [Mass/volume] in Serum or Plasma</td><td>9.5</td><td>8.5 - 10.4</td><td>mg/dL</td></tr><tr><td>Sodium [Moles/volume] in Serum or Plasma</td><td>138.4</td><td>135 - 145</td><td>mmol/L</td></tr><tr><td>Potassium [Moles/volume] in Serum or Plasma</td><td>4.3</td><td>3.5 - 5.1</td><td>mmol/L</td></tr><tr><td>Chloride [Moles/volume] in Serum or Plasma</td><td>101.8</td><td>98 - 110</td><td>mmol/L</td></tr><tr><td>Carbon dioxide, total [Moles/volume] in Serum or Plasma</td><td>22.7</td><td>22 - 32</td><td>mmol/L</td></tr><tr><td>Appearance of Urine</td><td>Cloudy urine</td><td></td><td></td></tr><tr><td>Odor of Urine</td><td>Urine smell ammoniacal</td><td></td><td></td></tr><tr><td>Clarity of Urine</td><td>Translucent</td><td></td><td></td></tr><tr><td>Color of Urine</td><td>Brown color</td><td></td><td></td></tr><tr><td>Glucose [Mass/volume] in Urine by Test strip</td><td><strong>2.4 H</strong></td><td>0 - 0</td><td>mg/dL</td></tr><tr><td>Glucose [Presence] in Urine by Test strip</td><td>++</td><td></td><td></td></tr><tr><td>Bilirubin.total [Mass/volume] in Urine by Test strip</td><td>1.4</td><td>0 - 1.6</td><td>mg/dL</td></tr><tr><td>Bilirubin.total [Presence] in Urine by Test strip</td><td>Finding of bilirubin in urine</td><td></td><td></td></tr><tr><td>Ketones [Mass/volume] in Urine by Test strip</td><td><strong>14.2 H</strong></td><td>0 - 0.5</td><td>mg/dL</td></tr><tr><td>Ketones [Presence] in Urine by Test strip</td><td>Urine ketone test = +</td><td></td><td></td></tr><tr><td>Specific gravity of Urine by Test strip</td><td><strong>1.0 L</strong></td><td>1.005 - 1.03</td><td>{nominal}</td></tr><tr><td>pH of Urine by Test strip</td><td>6.7</td><td>4.5 - 7.5</td><td>pH</td></tr><tr><td>Protein [Mass/volume] in Urine by Test strip</td><td><strong>169.0 H</strong></td><td>0 - 15</td><td>mg/dL</td></tr><tr><td>Protein [Presence] in Urine by Test strip</td><td>Urine protein test = ++</td><td></td><td></td></tr><tr><td>Nitrite [Presence] in Urine by Test strip</td><td>Urine nitrite negative</td><td></td><td></td></tr><tr><td>Hemoglobin [Presence] in Urine by Test strip</td><td>Urine blood test = negative</td><td></td><td></td></tr><tr><td>Leukocyte esterase [Presence] in Urine by Test strip</td><td>Urine leukocyte test negative</td><td></td><td></td></tr></tbody></table></table></div>"
            },
            "entry": [
              {
                "reference": "urn:uuid:d6cdab3e-4a4c-4a3e-86c4-0ed534b50e65"
              },
              {
                "reference": "urn:uuid:40cb2b99-9966-40a0-92aa-f5817b7c77c9"
              },
              {
                "reference": "urn:uuid:2705db9e-efd4-4138-89c3-0aebb6aad9f9"
              },
              {
                "reference": "urn:uuid:d73b03cc-047f-4aac-be8e-1f8fa1836aa3"
              },
              {
                "reference": "urn:uuid:30929a67-5051-48cc-b6fd-95b80df3d082"
              },
              {
                "reference": "urn:uuid:977417e8-5065-4ee2-9703-2a70e1da5105"
              },
              {
                "reference": "urn:uuid:8b1468ff-9bc4-4473-a215-4d7199259525"
              },
              {
                "reference": "urn:uuid:6d3645d3-9260-4a27-ab76-4df862fdb1fa"
              },
              {
                "reference": "urn:uuid:75c85c30-eb1c-4918-9932-0751e4a26656"
              },
              {
                "reference": "urn:uuid:55a05323-7cdc-4c81-9a8f-42426c46a988"
              },
              {
                "reference": "urn:uuid:a95c25d1-f158-4c58-9fc6-52e19f8e8e9c"
              },
              {
                "reference": "urn:uuid:7c29ff29-e14d-4b4a-8b78-45cdbd2eca69"
              },
              {
                "reference": "urn:uuid:0438fa15-eb50-42b2-875b-4098af4016df"
              },
              {
                "reference": "urn:uuid:5d085c77-23e9-47da-b70a-0644b1ab9bc5"
              },
              {
                "reference": "urn:uuid:ae972cdb-34c9-4d01-9c6f-5645266f610f"
              },
              {
                "reference": "urn:uuid:d2eeaa58-6bb9-4504-bf24-54e54c27333c"
              },
              {
                "reference": "urn:uuid:82c0f81e-f320-4851-ab5c-5224693d9d44"
              },
              {
                "reference": "urn:uuid:0dfc2bd3-b6bb-429d-a108-1d49fc812e42"
              },
              {
                "reference": "urn:uuid:72ee7d6c-86be-4614-954d-c513ecc8690a"
              },
              {
                "reference": "urn:uuid:13cca999-2010-4fdf-8f19-d8edbc1e00cf"
              },
              {
                "reference": "urn:uuid:b3686e8b-de94-45bb-b27a-f8c93bb4e25d"
              },
              {
                "reference": "urn:uuid:fe28acfc-b007-49f1-be98-543b713e65b1"
              },
              {
                "reference": "urn:uuid:d9698c9d-3e90-4644-a6d7-fc883ea3ddf6"
              },
              {
                "reference": "urn:uuid:75fd57db-23e3-4c3b-b04f-0d810a18d1f6"
              },
              {
                "reference": "urn:uuid:a7c5980e-474a-4296-9e1d-5611996dffda"
              }
            ],
            "code": {
              "coding": [
                {
                  "system": "http://loinc.org",
                  "code": "30954-2",
                  "display": "Relevant diagnostic tests/laboratory data note"
                }
              ]
            },
            "title": "Relevant diagnostic tests/laboratory data"
          }
        ],
        "title": "European Patient Summary",
        "status": "final",
        "subject": {
          "reference": "urn:uuid:aef48ed6-e5df-4853-9e26-95b7f24d36a6",
          "display": "Hortense Gallet"
        },
        "custodian": {
          "reference": "urn:uuid:2da84427-44a9-4f5f-9a0e-cc2abe8239cf"
        },
        "date": "2025-04-15",
        "confidentiality": "N"
      }
    },
    {
      "fullUrl": "urn:uuid:aef48ed6-e5df-4853-9e26-95b7f24d36a6",
      "resource": {
        "resourceType": "Patient",
        "id": "aef48ed6-e5df-4853-9e26-95b7f24d36a6",
        "meta": {
          "security": [
            {
              "system": "http://terminology.hl7.org/CodeSystem/v3-ActReason",
              "code": "HTEST"
            },
            {
              "system": "http://terminology.hl7.org/CodeSystem/v3-ActReason",
              "code": "TRAIN"
            }
          ],
          "tag": [
            {
              "system": "https://synderai.net/fhir/CodeSystem/tags",
              "code": "synthetic",
              "display": "SYNDERAI Synthetic data"
            }
          ],
          "profile": [
            "http://hl7.eu/fhir/eps/StructureDefinition/patient-eu-eps"
          ]
        },
        "identifier": [
          {
            "type": {
              "coding": [
                {
                  "code": "PT",
                  "system": "http://terminology.hl7.org/CodeSystem/v2-0203"
                }
              ]
            },
            "system": "http://ec.europa.eu/identifier/eci",
            "value": "7727-126450-7"
          },
          {
            "type": {
              "coding": [
                {
                  "code": "MR",
                  "system": "http://terminology.hl7.org/CodeSystem/v2-0203"
                }
              ]
            },
            "system": "http://local.setting.eu/identifier",
            "value": "7f40b956-404d-dd5b-92ca-442ee97c8277"
          }
        ],
        "name": [
          {
            "family": "Gallet"
          },
          {
            "given": [
              "Hortense"
            ]
          },
          {
            "text": "Hortense Gallet"
          }
        ],
        "address": [
          {
            "line": [
              "98, boulevard de Faure"
            ],
            "use": "home",
            "type": "physical",
            "postalCode": "03210",
            "city": "Besson",
            "country": "France"
          }
        ],
        "telecom": [
          {
            "system": "phone",
            "value": "03 26 87 89 04"
          }
        ],
        "extension": [
          {
            "url": "http://hl7.org/fhir/StructureDefinition/patient-nationality",
            "valueCodeableConcept": {
              "coding": [
                {
                  "code": "FR",
                  "system": "http://hl7.org/fhir/ValueSet/country"
                }
              ]
            }
          }
        ],
        "text": {
          "status": "generated",
          "div": "<div xmlns=\"http://www.w3.org/1999/xhtml\"><table class=\"hl7__ips\"><tr><td>Hortense Gallet</td><td>female</td><td>14-Feb-1967</td></tr></table></div>"
        },
        "gender": "female",
        "birthDate": "1967-02-14"
      }
    },
    {
      "fullUrl": "urn:uuid:53f29a0f-472b-49e1-a28f-fc0ef345d368",
      "resource": {
        "resourceType": "PractitionerRole",
        "id": "53f29a0f-472b-49e1-a28f-fc0ef345d368",
        "meta": {
          "profile": [
            "http://hl7.eu/fhir/base/StructureDefinition/practitionerRole-eu"
          ]
        },
        "text": {
          "status": "generated",
          "div": "<div xmlns=\"http://www.w3.org/1999/xhtml\"><table class=\"hl7__ips\">Provider Role Id 53f29a0f-472b-49e1-a28f-fc0ef345d368</table></div>"
        },
        "practitioner": {
          "reference": "urn:uuid:970e8e65-4129-4a2d-a7e5-f361d3155d4d"
        },
        "organization": {
          "reference": "urn:uuid:2da84427-44a9-4f5f-9a0e-cc2abe8239cf"
        }
      }
    },
    {
      "fullUrl": "urn:uuid:970e8e65-4129-4a2d-a7e5-f361d3155d4d",
      "resource": {
        "resourceType": "Practitioner",
        "id": "970e8e65-4129-4a2d-a7e5-f361d3155d4d",
        "meta": {
          "profile": [
            "http://hl7.eu/fhir/base/StructureDefinition/practitioner-eu"
          ]
        },
        "name": [
          {
            "prefix": [
              "Dr."
            ],
            "given": [
              "Hel"
            ],
            "family": "Ping"
          }
        ],
        "text": {
          "status": "generated",
          "div": "<div xmlns=\"http://www.w3.org/1999/xhtml\"><table class=\"hl7__ips\">Dr. Hel Ping</table></div>"
        }
      }
    },
    {
      "fullUrl": "urn:uuid:2da84427-44a9-4f5f-9a0e-cc2abe8239cf",
      "resource": {
        "resourceType": "Organization",
        "id": "2da84427-44a9-4f5f-9a0e-cc2abe8239cf",
        "meta": {
          "profile": [
            "http://hl7.eu/fhir/base/StructureDefinition/organization-eu"
          ]
        },
        "identifier": [
          {
            "assigner": {
              "display": "HL7 Europe"
            },
            "system": "urn:oid:2.16.840.1.113883.2.51.999",
            "value": "42c5c901-d4f3-4f47-95df-71c0f0fa5aa8"
          }
        ],
        "address": [
          {
            "line": [
              "Rue Jean Jaurès 140"
            ],
            "city": "Vichy",
            "postalCode": "03200",
            "country": "France"
          }
        ],
        "text": {
          "status": "generated",
          "div": "<div xmlns=\"http://www.w3.org/1999/xhtml\"><table class=\"hl7__ips\">Centre La Chrysalide</table></div>"
        },
        "name": "Centre La Chrysalide"
      }
    },
    {
      "fullUrl": "urn:uuid:45cd07e0-7df5-47b4-9462-709fcdecaf15",
      "resource": {
        "resourceType": "Condition",
        "id": "45cd07e0-7df5-47b4-9462-709fcdecaf15",
        "meta": {
          "profile": [
            "http://hl7.org/fhir/uv/ips/StructureDefinition/Condition-uv-ips"
          ]
        },
        "category": [
          {
            "coding": [
              {
                "code": "problem-list-item",
                "system": "http://terminology.hl7.org/CodeSystem/condition-category",
                "display": "Problem List Item"
              }
            ]
          }
        ],
        "code": {
          "coding": [
            {
              "code": "431856006",
              "system": "http://snomed.info/sct",
              "display": "Chronic kidney disease stage 2 (disorder)"
            }
          ],
          "text": "Chronic kidney disease stage 2"
        },
        "text": {
          "status": "generated",
          "div": "<div xmlns=\"http://www.w3.org/1999/xhtml\"><table class=\"hl7__ips\"><tr><td>Chronic kidney disease stage 2</td><td><span class=\"nb\">06-Feb-2024</span></td><td>active</td></tr></table></div>"
        },
        "onsetDateTime": "2024-02-06",
        "subject": {
          "reference": "urn:uuid:",
          "display": "Hortense Gallet"
        },
        "asserter": {
          "reference": "urn:uuid:",
          "display": "Centre La Chrysalide"
        }
      }
    },
    {
      "fullUrl": "urn:uuid:e2467dc5-11e6-4e28-89cc-680bb10a6e96",
      "resource": {
        "resourceType": "Condition",
        "id": "e2467dc5-11e6-4e28-89cc-680bb10a6e96",
        "meta": {
          "profile": [
            "http://hl7.org/fhir/uv/ips/StructureDefinition/Condition-uv-ips"
          ]
        },
        "category": [
          {
            "coding": [
              {
                "code": "problem-list-item",
                "system": "http://terminology.hl7.org/CodeSystem/condition-category",
                "display": "Problem List Item"
              }
            ]
          }
        ],
        "code": {
          "coding": [
            {
              "code": "90781000119102",
              "system": "http://snomed.info/sct",
              "display": "Microalbuminuria due to type 2 diabetes mellitus (disorder)"
            }
          ],
          "text": "Microalbuminuria due to type 2 diabetes mellitus"
        },
        "text": {
          "status": "generated",
          "div": "<div xmlns=\"http://www.w3.org/1999/xhtml\"><table class=\"hl7__ips\"><tr><td>Microalbuminuria due to type 2 diabetes mellitus</td><td><span class=\"nb\">06-Feb-2024</span></td><td>active</td></tr></table></div>"
        },
        "onsetDateTime": "2024-02-06",
        "subject": {
          "reference": "urn:uuid:",
          "display": "Hortense Gallet"
        },
        "asserter": {
          "reference": "urn:uuid:",
          "display": "Centre La Chrysalide"
        }
      }
    },
    {
      "fullUrl": "urn:uuid:53639397-ca2b-4e07-a15e-e44684862b33",
      "resource": {
        "resourceType": "Condition",
        "id": "53639397-ca2b-4e07-a15e-e44684862b33",
        "meta": {
          "profile": [
            "http://hl7.org/fhir/uv/ips/StructureDefinition/Condition-uv-ips"
          ]
        },
        "category": [
          {
            "coding": [
              {
                "code": "problem-list-item",
                "system": "http://terminology.hl7.org/CodeSystem/condition-category",
                "display": "Problem List Item"
              }
            ]
          }
        ],
        "code": {
          "coding": [
            {
              "code": "127013003",
              "system": "http://snomed.info/sct",
              "display": "Disorder of kidney due to diabetes mellitus (disorder)"
            }
          ],
          "text": "Disorder of kidney due to diabetes mellitus"
        },
        "text": {
          "status": "generated",
          "div": "<div xmlns=\"http://www.w3.org/1999/xhtml\"><table class=\"hl7__ips\"><tr><td>Disorder of kidney due to diabetes mellitus</td><td><span class=\"nb\">29-Mar-2022</span></td><td>active</td></tr></table></div>"
        },
        "onsetDateTime": "2022-03-29",
        "subject": {
          "reference": "urn:uuid:",
          "display": "Hortense Gallet"
        },
        "asserter": {
          "reference": "urn:uuid:",
          "display": "Centre La Chrysalide"
        }
      }
    },
    {
      "fullUrl": "urn:uuid:108139f8-b8ce-4484-b8f8-ebea924df1b3",
      "resource": {
        "resourceType": "Condition",
        "id": "108139f8-b8ce-4484-b8f8-ebea924df1b3",
        "meta": {
          "profile": [
            "http://hl7.org/fhir/uv/ips/StructureDefinition/Condition-uv-ips"
          ]
        },
        "category": [
          {
            "coding": [
              {
                "code": "problem-list-item",
                "system": "http://terminology.hl7.org/CodeSystem/condition-category",
                "display": "Problem List Item"
              }
            ]
          }
        ],
        "code": {
          "coding": [
            {
              "code": "431855005",
              "system": "http://snomed.info/sct",
              "display": "Chronic kidney disease stage 1 (disorder)"
            }
          ],
          "text": "Chronic kidney disease stage 1"
        },
        "text": {
          "status": "generated",
          "div": "<div xmlns=\"http://www.w3.org/1999/xhtml\"><table class=\"hl7__ips\"><tr><td>Chronic kidney disease stage 1</td><td><span class=\"nb\">29-Mar-2022</span></td><td>active</td></tr></table></div>"
        },
        "onsetDateTime": "2022-03-29",
        "subject": {
          "reference": "urn:uuid:",
          "display": "Hortense Gallet"
        },
        "asserter": {
          "reference": "urn:uuid:",
          "display": "Centre La Chrysalide"
        }
      }
    },
    {
      "fullUrl": "urn:uuid:e7c866b5-e7fe-44c8-903f-c30eda78ec69",
      "resource": {
        "resourceType": "Condition",
        "id": "e7c866b5-e7fe-44c8-903f-c30eda78ec69",
        "meta": {
          "profile": [
            "http://hl7.org/fhir/uv/ips/StructureDefinition/Condition-uv-ips"
          ]
        },
        "category": [
          {
            "coding": [
              {
                "code": "problem-list-item",
                "system": "http://terminology.hl7.org/CodeSystem/condition-category",
                "display": "Problem List Item"
              }
            ]
          }
        ],
        "code": {
          "coding": [
            {
              "code": "59621000",
              "system": "http://snomed.info/sct",
              "display": "Essential hypertension (disorder)"
            }
          ],
          "text": "Essential hypertension"
        },
        "text": {
          "status": "generated",
          "div": "<div xmlns=\"http://www.w3.org/1999/xhtml\"><table class=\"hl7__ips\"><tr><td>Essential hypertension</td><td><span class=\"nb\">16-Dec-2003</span></td><td>active</td></tr></table></div>"
        },
        "onsetDateTime": "2003-12-16",
        "subject": {
          "reference": "urn:uuid:",
          "display": "Hortense Gallet"
        },
        "asserter": {
          "reference": "urn:uuid:",
          "display": "Centre La Chrysalide"
        }
      }
    },
    {
      "fullUrl": "urn:uuid:9329110a-c96b-41ab-8939-c4ec16407174",
      "resource": {
        "resourceType": "Condition",
        "id": "9329110a-c96b-41ab-8939-c4ec16407174",
        "meta": {
          "profile": [
            "http://hl7.org/fhir/uv/ips/StructureDefinition/Condition-uv-ips"
          ]
        },
        "category": [
          {
            "coding": [
              {
                "code": "problem-list-item",
                "system": "http://terminology.hl7.org/CodeSystem/condition-category",
                "display": "Problem List Item"
              }
            ]
          }
        ],
        "code": {
          "coding": [
            {
              "code": "283385000",
              "system": "http://snomed.info/sct",
              "display": "Laceration of thigh (disorder)"
            }
          ],
          "text": "Laceration of thigh"
        },
        "text": {
          "status": "generated",
          "div": "<div xmlns=\"http://www.w3.org/1999/xhtml\"><table class=\"hl7__ips\"><tr><td><span class=\"grayedout\">Laceration of thigh</span></td><td><span class=\"nb\">23-Apr-2024 - 15-May-2024</span></td><td><span class=\"grayedout\">inactive</span></td></tr></table></div>"
        },
        "onsetDateTime": "2024-04-23",
        "abatementDateTime": "2024-05-15",
        "subject": {
          "reference": "urn:uuid:",
          "display": "Hortense Gallet"
        },
        "asserter": {
          "reference": "urn:uuid:",
          "display": "Centre La Chrysalide"
        }
      }
    },
    {
      "fullUrl": "urn:uuid:3316736f-90cf-435b-acde-f14b15f12114",
      "resource": {
        "resourceType": "Condition",
        "id": "3316736f-90cf-435b-acde-f14b15f12114",
        "meta": {
          "profile": [
            "http://hl7.org/fhir/uv/ips/StructureDefinition/Condition-uv-ips"
          ]
        },
        "category": [
          {
            "coding": [
              {
                "code": "problem-list-item",
                "system": "http://terminology.hl7.org/CodeSystem/condition-category",
                "display": "Problem List Item"
              }
            ]
          }
        ],
        "code": {
          "coding": [
            {
              "code": "312608009",
              "system": "http://snomed.info/sct",
              "display": "Laceration - injury (disorder)"
            }
          ],
          "text": "Laceration - injury"
        },
        "text": {
          "status": "generated",
          "div": "<div xmlns=\"http://www.w3.org/1999/xhtml\"><table class=\"hl7__ips\"><tr><td><span class=\"grayedout\">Laceration - injury</span></td><td><span class=\"nb\">23-Apr-2024 - 15-May-2024</span></td><td><span class=\"grayedout\">inactive</span></td></tr></table></div>"
        },
        "onsetDateTime": "2024-04-23",
        "abatementDateTime": "2024-05-15",
        "subject": {
          "reference": "urn:uuid:",
          "display": "Hortense Gallet"
        },
        "asserter": {
          "reference": "urn:uuid:",
          "display": "Centre La Chrysalide"
        }
      }
    },
    {
      "fullUrl": "urn:uuid:bdad5194-af4a-4a98-b3a9-27283896c802",
      "resource": {
        "resourceType": "Condition",
        "id": "bdad5194-af4a-4a98-b3a9-27283896c802",
        "meta": {
          "profile": [
            "http://hl7.org/fhir/uv/ips/StructureDefinition/Condition-uv-ips"
          ]
        },
        "category": [
          {
            "coding": [
              {
                "code": "problem-list-item",
                "system": "http://terminology.hl7.org/CodeSystem/condition-category",
                "display": "Problem List Item"
              }
            ]
          }
        ],
        "code": {
          "coding": [
            {
              "code": "10509002",
              "system": "http://snomed.info/sct",
              "display": "Acute bronchitis (disorder)"
            }
          ],
          "text": "Acute bronchitis"
        },
        "text": {
          "status": "generated",
          "div": "<div xmlns=\"http://www.w3.org/1999/xhtml\"><table class=\"hl7__ips\"><tr><td><span class=\"grayedout\">Acute bronchitis</span></td><td><span class=\"nb\">27-Dec-2022 - 03-Jan-2023</span></td><td><span class=\"grayedout\">inactive</span></td></tr></table></div>"
        },
        "onsetDateTime": "2022-12-27",
        "abatementDateTime": "2023-01-03",
        "subject": {
          "reference": "urn:uuid:",
          "display": "Hortense Gallet"
        },
        "asserter": {
          "reference": "urn:uuid:",
          "display": "Centre La Chrysalide"
        }
      }
    },
    {
      "fullUrl": "urn:uuid:c84ea5f0-9089-41bd-a044-359993bcd7e4",
      "resource": {
        "resourceType": "Condition",
        "id": "c84ea5f0-9089-41bd-a044-359993bcd7e4",
        "meta": {
          "profile": [
            "http://hl7.org/fhir/uv/ips/StructureDefinition/Condition-uv-ips"
          ]
        },
        "category": [
          {
            "coding": [
              {
                "code": "problem-list-item",
                "system": "http://terminology.hl7.org/CodeSystem/condition-category",
                "display": "Problem List Item"
              }
            ]
          }
        ],
        "code": {
          "coding": [
            {
              "code": "195662009",
              "system": "http://snomed.info/sct",
              "display": "Acute viral pharyngitis (disorder)"
            }
          ],
          "text": "Acute viral pharyngitis"
        },
        "text": {
          "status": "generated",
          "div": "<div xmlns=\"http://www.w3.org/1999/xhtml\"><table class=\"hl7__ips\"><tr><td><span class=\"grayedout\">Acute viral pharyngitis</span></td><td><span class=\"nb\">03-Nov-2018 - 14-Nov-2018</span></td><td><span class=\"grayedout\">inactive</span></td></tr></table></div>"
        },
        "onsetDateTime": "2018-11-03",
        "abatementDateTime": "2018-11-14",
        "subject": {
          "reference": "urn:uuid:",
          "display": "Hortense Gallet"
        },
        "asserter": {
          "reference": "urn:uuid:",
          "display": "Centre La Chrysalide"
        }
      }
    },
    {
      "fullUrl": "urn:uuid:9228e7e2-dd67-46bb-840e-6685360f67ed",
      "resource": {
        "resourceType": "Condition",
        "id": "9228e7e2-dd67-46bb-840e-6685360f67ed",
        "meta": {
          "profile": [
            "http://hl7.org/fhir/uv/ips/StructureDefinition/Condition-uv-ips"
          ]
        },
        "category": [
          {
            "coding": [
              {
                "code": "problem-list-item",
                "system": "http://terminology.hl7.org/CodeSystem/condition-category",
                "display": "Problem List Item"
              }
            ]
          }
        ],
        "code": {
          "coding": [
            {
              "code": "10509002",
              "system": "http://snomed.info/sct",
              "display": "Acute bronchitis (disorder)"
            }
          ],
          "text": "Acute bronchitis"
        },
        "text": {
          "status": "generated",
          "div": "<div xmlns=\"http://www.w3.org/1999/xhtml\"><table class=\"hl7__ips\"><tr><td><span class=\"grayedout\">Acute bronchitis</span></td><td><span class=\"nb\">08-May-2018 - 26-May-2018</span></td><td><span class=\"grayedout\">inactive</span></td></tr></table></div>"
        },
        "onsetDateTime": "2018-05-08",
        "abatementDateTime": "2018-05-26",
        "subject": {
          "reference": "urn:uuid:",
          "display": "Hortense Gallet"
        },
        "asserter": {
          "reference": "urn:uuid:",
          "display": "Centre La Chrysalide"
        }
      }
    },
    {
      "fullUrl": "urn:uuid:60133d7a-6e10-4a5e-bec9-0aecb14f16ad",
      "resource": {
        "resourceType": "Medication",
        "id": "60133d7a-6e10-4a5e-bec9-0aecb14f16ad",
        "meta": {
          "profile": [
            "http://hl7.eu/fhir/eps/StructureDefinition/Medication-eu-eps"
          ]
        },
        "code": {
          "coding": [
            {
              "code": "1153431000",
              "system": "http://snomed.info/sct",
              "display": "Amlodipine (as amlodipine besylate) 2.5 mg oral tablet"
            }
          ],
          "text": "Amlodipine (as amlodipine besylate) 2.5 mg oral tablet"
        },
        "text": {
          "status": "generated",
          "div": "<div xmlns=\"http://www.w3.org/1999/xhtml\">Amlodipine (as amlodipine besylate) 2.5 mg oral tablet</div>"
        }
      }
    },
    {
      "fullUrl": "urn:uuid:378c9d8a-60d5-44d6-b0c4-fdc2b01da868",
      "resource": {
        "resourceType": "MedicationStatement",
        "id": "378c9d8a-60d5-44d6-b0c4-fdc2b01da868",
        "meta": {
          "profile": [
            "http://hl7.eu/fhir/eps/StructureDefinition/MedicationStatement-eu-eps"
          ]
        },
        "effectivePeriod": {
          "start": "2025-04-15"
        },
        "dosage": [
          {
            "doseAndRate": [
              {
                "doseQuantity": {
                  "value": 1,
                  "unit": "{tbl}",
                  "code": "{tbl}"
                }
              }
            ],
            "timing": {
              "repeat": {
                "frequency": 1,
                "period": 1,
                "periodUnit": "d"
              }
            },
            "text": "1 tablet (2.5 mg) by mouth once daily",
            "asNeededBoolean": false
          }
        ],
        "reasonCode": [
          {
            "coding": [
              {
                "code": "59621000",
                "system": "http://snomed.info/sct",
                "display": "Essential hypertension (disorder)"
              }
            ]
          }
        ],
        "text": {
          "status": "generated",
          "div": "<div xmlns=\"http://www.w3.org/1999/xhtml\"><table class=\"hl7__ips first25\"><tr><th>Medication</th><th>Since</th><th>Form</th><th>Dosage</th><th>Reason</th></tr><tr><td>Amlodipine (as amlodipine besylate) 2.5 mg oral tablet</td><td><span class=\"nb\">2025-04-15</span></td><td>-</td><td>1 tablet (2.5 mg) by mouth once daily</td><td>Essential hypertension (disorder)</td></tr></table></div>"
        },
        "status": "active",
        "medicationReference": {
          "reference": "urn:uuid:60133d7a-6e10-4a5e-bec9-0aecb14f16ad",
          "display": "Amlodipine (as amlodipine besylate) 2.5 mg oral tablet"
        },
        "subject": {
          "reference": "urn:uuid:aef48ed6-e5df-4853-9e26-95b7f24d36a6",
          "display": "Hortense Gallet"
        }
      }
    },
    {
      "fullUrl": "urn:uuid:65bc7e22-6f66-4d7f-8404-c51aab2bf5b9",
      "resource": {
        "resourceType": "Medication",
        "id": "65bc7e22-6f66-4d7f-8404-c51aab2bf5b9",
        "meta": {
          "profile": [
            "http://hl7.eu/fhir/eps/StructureDefinition/Medication-eu-eps"
          ]
        },
        "code": {
          "coding": [
            {
              "code": "376209006",
              "system": "http://snomed.info/sct",
              "display": "Hydrochlorothiazide 25 mg oral tablet"
            }
          ],
          "text": "Hydrochlorothiazide 25 mg oral tablet"
        },
        "text": {
          "status": "generated",
          "div": "<div xmlns=\"http://www.w3.org/1999/xhtml\">Hydrochlorothiazide 25 mg oral tablet</div>"
        }
      }
    },
    {
      "fullUrl": "urn:uuid:55e456a7-2f0b-4068-b72d-8f7d9862675e",
      "resource": {
        "resourceType": "MedicationStatement",
        "id": "55e456a7-2f0b-4068-b72d-8f7d9862675e",
        "meta": {
          "profile": [
            "http://hl7.eu/fhir/eps/StructureDefinition/MedicationStatement-eu-eps"
          ]
        },
        "effectivePeriod": {
          "start": "2025-04-15"
        },
        "dosage": [
          {
            "doseAndRate": [
              {
                "doseQuantity": {
                  "value": 1,
                  "unit": "{tbl}",
                  "code": "{tbl}"
                }
              }
            ],
            "timing": {
              "repeat": {
                "frequency": 1,
                "period": 1,
                "periodUnit": "d"
              }
            },
            "text": "1 tablet (25 mg) by mouth once daily",
            "asNeededBoolean": false
          }
        ],
        "reasonCode": [
          {
            "coding": [
              {
                "code": "59621000",
                "system": "http://snomed.info/sct",
                "display": "Essential hypertension (disorder)"
              }
            ]
          }
        ],
        "text": {
          "status": "generated",
          "div": "<div xmlns=\"http://www.w3.org/1999/xhtml\"><table class=\"hl7__ips first25\"><tr><th>Medication</th><th>Since</th><th>Form</th><th>Dosage</th><th>Reason</th></tr><tr><td>Hydrochlorothiazide 25 mg oral tablet</td><td><span class=\"nb\">2025-04-15</span></td><td>-</td><td>1 tablet (25 mg) by mouth once daily</td><td>Essential hypertension (disorder)</td></tr></table></div>"
        },
        "status": "active",
        "medicationReference": {
          "reference": "urn:uuid:65bc7e22-6f66-4d7f-8404-c51aab2bf5b9",
          "display": "Hydrochlorothiazide 25 mg oral tablet"
        },
        "subject": {
          "reference": "urn:uuid:aef48ed6-e5df-4853-9e26-95b7f24d36a6",
          "display": "Hortense Gallet"
        }
      }
    },
    {
      "fullUrl": "urn:uuid:739d38ff-d475-4d2f-93f3-2d4bb2a28d83",
      "resource": {
        "resourceType": "Medication",
        "id": "739d38ff-d475-4d2f-93f3-2d4bb2a28d83",
        "meta": {
          "profile": [
            "http://hl7.eu/fhir/eps/StructureDefinition/Medication-eu-eps"
          ]
        },
        "code": {
          "coding": [
            {
              "code": "318859000",
              "system": "http://snomed.info/sct",
              "display": "Lisinopril 10 mg oral tablet"
            }
          ],
          "text": "Lisinopril 10 mg oral tablet"
        },
        "text": {
          "status": "generated",
          "div": "<div xmlns=\"http://www.w3.org/1999/xhtml\">Lisinopril 10 mg oral tablet</div>"
        }
      }
    },
    {
      "fullUrl": "urn:uuid:c417a16f-ecac-4ea4-9097-0f1074a8c852",
      "resource": {
        "resourceType": "MedicationStatement",
        "id": "c417a16f-ecac-4ea4-9097-0f1074a8c852",
        "meta": {
          "profile": [
            "http://hl7.eu/fhir/eps/StructureDefinition/MedicationStatement-eu-eps"
          ]
        },
        "effectivePeriod": {
          "start": "2025-04-15"
        },
        "dosage": [
          {
            "doseAndRate": [
              {
                "doseQuantity": {
                  "value": 1,
                  "unit": "{tbl}",
                  "code": "{tbl}"
                }
              }
            ],
            "timing": {
              "repeat": {
                "frequency": 1,
                "period": 1,
                "periodUnit": "d"
              }
            },
            "text": "1 tablet (10 mg) by mouth once daily",
            "asNeededBoolean": false
          }
        ],
        "reasonCode": [
          {
            "coding": [
              {
                "code": "59621000",
                "system": "http://snomed.info/sct",
                "display": "Essential hypertension (disorder)"
              }
            ]
          }
        ],
        "text": {
          "status": "generated",
          "div": "<div xmlns=\"http://www.w3.org/1999/xhtml\"><table class=\"hl7__ips first25\"><tr><th>Medication</th><th>Since</th><th>Form</th><th>Dosage</th><th>Reason</th></tr><tr><td>Lisinopril 10 mg oral tablet</td><td><span class=\"nb\">2025-04-15</span></td><td>-</td><td>1 tablet (10 mg) by mouth once daily</td><td>Essential hypertension (disorder)</td></tr></table></div>"
        },
        "status": "active",
        "medicationReference": {
          "reference": "urn:uuid:739d38ff-d475-4d2f-93f3-2d4bb2a28d83",
          "display": "Lisinopril 10 mg oral tablet"
        },
        "subject": {
          "reference": "urn:uuid:aef48ed6-e5df-4853-9e26-95b7f24d36a6",
          "display": "Hortense Gallet"
        }
      }
    },
    {
      "fullUrl": "urn:uuid:576f2d67-dd6f-405c-8ad2-56dc58f4f2f0",
      "resource": {
        "resourceType": "Immunization",
        "id": "576f2d67-dd6f-405c-8ad2-56dc58f4f2f0",
        "meta": {
          "profile": [
            "http://hl7.org/fhir/uv/ips/StructureDefinition/Immunization-uv-ips"
          ]
        },
        "vaccineCode": {
          "coding": [
            {
              "code": "777725002",
              "system": "http://snomed.info/sct",
              "display": "Vaccine product containing only Clostridium tetani toxoid antigen adsorbed"
            },
            {
              "code": "J07AM51",
              "system": "http://www.whocc.no/atc",
              "display": "Diphtheria-tetanus vaccines, adult type"
            }
          ],
          "text": "Clostridium tetani toxoid antigen adsorbed only vaccine product"
        },
        "site": {
          "coding": [
            {
              "code": "244979005",
              "system": "http://snomed.info/sct",
              "display": "Entire muscle of upper arm"
            }
          ],
          "text": "Entire muscle of upper arm"
        },
        "route": {
          "coding": [
            {
              "code": "78421000",
              "system": "http://snomed.info/sct",
              "display": "Intramuscular route"
            }
          ],
          "text": "Intramuscular route"
        },
        "text": {
          "status": "generated",
          "div": "<div xmlns=\"http://www.w3.org/1999/xhtml\"><table class=\"hl7__ips\"><tr><td>Clostridium tetani toxoid antigen adsorbed only vaccine product</td><td><span class=\"nb\">28-Jan-2025</span></td></tr></table></div>"
        },
        "status": "completed",
        "patient": {
          "reference": "urn:uuid:aef48ed6-e5df-4853-9e26-95b7f24d36a6",
          "display": "Hortense Gallet"
        },
        "occurrenceDateTime": "2025-01-28",
        "lotNumber": "AS-5i4OmcEJ",
        "expirationDate": "2025-08-10"
      }
    },
    {
      "fullUrl": "urn:uuid:20af5ba9-a758-4f19-a763-fc6146070328",
      "resource": {
        "resourceType": "Immunization",
        "id": "20af5ba9-a758-4f19-a763-fc6146070328",
        "meta": {
          "profile": [
            "http://hl7.org/fhir/uv/ips/StructureDefinition/Immunization-uv-ips"
          ]
        },
        "vaccineCode": {
          "coding": [
            {
              "code": "1181000221105",
              "system": "http://snomed.info/sct",
              "display": "Vaccine product containing Influenza virus antigen"
            },
            {
              "code": "J07BB02",
              "system": "http://www.whocc.no/atc",
              "display": "Influenza, inactivated, split virus"
            }
          ],
          "text": "Influenza virus antigen only vaccine product"
        },
        "site": {
          "coding": [
            {
              "code": "244979005",
              "system": "http://snomed.info/sct",
              "display": "Entire muscle of upper arm"
            }
          ],
          "text": "Entire muscle of upper arm"
        },
        "route": {
          "coding": [
            {
              "code": "78421000",
              "system": "http://snomed.info/sct",
              "display": "Intramuscular route"
            }
          ],
          "text": "Intramuscular route"
        },
        "text": {
          "status": "generated",
          "div": "<div xmlns=\"http://www.w3.org/1999/xhtml\"><table class=\"hl7__ips\"><tr><td>Influenza virus antigen only vaccine product</td><td><span class=\"nb\">28-Jan-2025</span></td></tr></table></div>"
        },
        "status": "completed",
        "patient": {
          "reference": "urn:uuid:aef48ed6-e5df-4853-9e26-95b7f24d36a6",
          "display": "Hortense Gallet"
        },
        "occurrenceDateTime": "2025-01-28",
        "lotNumber": "IP-zvsXDj",
        "expirationDate": "2025-04-30"
      }
    },
    {
      "fullUrl": "urn:uuid:ee6d6521-2566-4b00-96e4-2a64c4a658a3",
      "resource": {
        "resourceType": "Immunization",
        "id": "ee6d6521-2566-4b00-96e4-2a64c4a658a3",
        "meta": {
          "profile": [
            "http://hl7.org/fhir/uv/ips/StructureDefinition/Immunization-uv-ips"
          ]
        },
        "vaccineCode": {
          "coding": [
            {
              "code": "1119349007",
              "system": "http://snomed.info/sct",
              "display": "Vaccine product containing SARS-CoV-2 mRNA"
            },
            {
              "code": "J07BX03",
              "system": "http://www.whocc.no/atc",
              "display": "COVID-19 mRNA vaccines"
            }
          ],
          "text": "SARS-CoV-2 mRNA vaccine"
        },
        "site": {
          "coding": [
            {
              "code": "244979005",
              "system": "http://snomed.info/sct",
              "display": "Entire muscle of upper arm"
            }
          ],
          "text": "Entire muscle of upper arm"
        },
        "route": {
          "coding": [
            {
              "code": "78421000",
              "system": "http://snomed.info/sct",
              "display": "Intramuscular route"
            }
          ],
          "text": "Intramuscular route"
        },
        "text": {
          "status": "generated",
          "div": "<div xmlns=\"http://www.w3.org/1999/xhtml\"><table class=\"hl7__ips\"><tr><td>SARS-CoV-2 mRNA vaccine</td><td><span class=\"nb\">09-Mar-2021</span></td></tr></table></div>"
        },
        "status": "completed",
        "patient": {
          "reference": "urn:uuid:aef48ed6-e5df-4853-9e26-95b7f24d36a6",
          "display": "Hortense Gallet"
        },
        "occurrenceDateTime": "2021-03-09",
        "lotNumber": "LX-tlSFu9",
        "expirationDate": "2021-07-16"
      }
    },
    {
      "fullUrl": "urn:uuid:bd20ea41-1ef7-41d8-8f48-5cbd2141dd92",
      "resource": {
        "resourceType": "Procedure",
        "id": "bd20ea41-1ef7-41d8-8f48-5cbd2141dd92",
        "meta": {
          "profile": [
            "http://hl7.org/fhir/uv/ips/StructureDefinition/Procedure-uv-ips"
          ]
        },
        "code": {
          "coding": [
            {
              "code": "288086009",
              "system": "http://snomed.info/sct",
              "display": "Suture open wound"
            }
          ],
          "text": "Suture open wound"
        },
        "reasonCode": [
          {
            "coding": [
              {
                "code": "283385000",
                "system": "http://snomed.info/sct",
                "display": "Laceration of thigh"
              }
            ]
          }
        ],
        "text": {
          "status": "generated",
          "div": "<div xmlns=\"http://www.w3.org/1999/xhtml\"><table class=\"hl7__ips\"><tr><td>Suture open wound</td><td><span class=\"nb\">23-Apr-2024</span></td><td>Laceration of thigh</td></tr></table></div>"
        },
        "status": "completed",
        "performedDateTime": "2024-04-23",
        "subject": {
          "reference": "urn:uuid:",
          "display": "Hortense Gallet"
        }
      }
    },
    {
      "fullUrl": "urn:uuid:39a81bd1-93fb-4c48-8448-fab291a13c82",
      "resource": {
        "resourceType": "Procedure",
        "id": "39a81bd1-93fb-4c48-8448-fab291a13c82",
        "meta": {
          "profile": [
            "http://hl7.org/fhir/uv/ips/StructureDefinition/Procedure-uv-ips"
          ]
        },
        "code": {
          "coding": [
            {
              "code": "171207006",
              "system": "http://snomed.info/sct",
              "display": "Depression screening (procedure)"
            }
          ],
          "text": "Depression screening"
        },
        "text": {
          "status": "generated",
          "div": "<div xmlns=\"http://www.w3.org/1999/xhtml\"><table class=\"hl7__ips\"><tr><td>Depression screening</td><td><span class=\"nb\">13-Dec-2022</span></td><td>-</td></tr></table></div>"
        },
        "status": "completed",
        "performedDateTime": "2022-12-13",
        "subject": {
          "reference": "urn:uuid:",
          "display": "Hortense Gallet"
        }
      }
    },
    {
      "fullUrl": "urn:uuid:2cadc833-56a8-4afd-8476-5baf6c8ec7e0",
      "resource": {
        "resourceType": "Procedure",
        "id": "2cadc833-56a8-4afd-8476-5baf6c8ec7e0",
        "meta": {
          "profile": [
            "http://hl7.org/fhir/uv/ips/StructureDefinition/Procedure-uv-ips"
          ]
        },
        "code": {
          "coding": [
            {
              "code": "430193006",
              "system": "http://snomed.info/sct",
              "display": "Medication Reconciliation (procedure)"
            }
          ],
          "text": "Medication reconciliation"
        },
        "text": {
          "status": "generated",
          "div": "<div xmlns=\"http://www.w3.org/1999/xhtml\"><table class=\"hl7__ips\"><tr><td>Medication reconciliation</td><td><span class=\"nb\">13-Dec-2022</span></td><td>-</td></tr></table></div>"
        },
        "status": "completed",
        "performedDateTime": "2022-12-13",
        "subject": {
          "reference": "urn:uuid:",
          "display": "Hortense Gallet"
        }
      }
    },
    {
      "fullUrl": "urn:uuid:538758be-886d-4656-8ad8-16f350cfdb42",
      "resource": {
        "resourceType": "Procedure",
        "id": "538758be-886d-4656-8ad8-16f350cfdb42",
        "meta": {
          "profile": [
            "http://hl7.org/fhir/uv/ips/StructureDefinition/Procedure-uv-ips"
          ]
        },
        "code": {
          "coding": [
            {
              "code": "710824005",
              "system": "http://snomed.info/sct",
              "display": "Assessment of health and social care needs (procedure)"
            }
          ],
          "text": "Assessment of health and social care needs"
        },
        "text": {
          "status": "generated",
          "div": "<div xmlns=\"http://www.w3.org/1999/xhtml\"><table class=\"hl7__ips\"><tr><td>Assessment of health and social care needs</td><td><span class=\"nb\">13-Dec-2022</span></td><td>-</td></tr></table></div>"
        },
        "status": "completed",
        "performedDateTime": "2022-12-13",
        "subject": {
          "reference": "urn:uuid:",
          "display": "Hortense Gallet"
        }
      }
    },
    {
      "fullUrl": "urn:uuid:9b68a112-d525-451a-8590-337cc40df86c",
      "resource": {
        "resourceType": "Procedure",
        "id": "9b68a112-d525-451a-8590-337cc40df86c",
        "meta": {
          "profile": [
            "http://hl7.org/fhir/uv/ips/StructureDefinition/Procedure-uv-ips"
          ]
        },
        "code": {
          "coding": [
            {
              "code": "710841007",
              "system": "http://snomed.info/sct",
              "display": "Assessment of anxiety (procedure)"
            }
          ],
          "text": "Assessment of anxiety"
        },
        "text": {
          "status": "generated",
          "div": "<div xmlns=\"http://www.w3.org/1999/xhtml\"><table class=\"hl7__ips\"><tr><td>Assessment of anxiety</td><td><span class=\"nb\">13-Dec-2022</span></td><td>-</td></tr></table></div>"
        },
        "status": "completed",
        "performedDateTime": "2022-12-13",
        "subject": {
          "reference": "urn:uuid:",
          "display": "Hortense Gallet"
        }
      }
    },
    {
      "fullUrl": "urn:uuid:617d7a27-d440-488f-9219-0715a9489022",
      "resource": {
        "resourceType": "Procedure",
        "id": "617d7a27-d440-488f-9219-0715a9489022",
        "meta": {
          "profile": [
            "http://hl7.org/fhir/uv/ips/StructureDefinition/Procedure-uv-ips"
          ]
        },
        "code": {
          "coding": [
            {
              "code": "866148006",
              "system": "http://snomed.info/sct",
              "display": "Screening for domestic abuse (procedure)"
            }
          ],
          "text": "Screening for domestic abuse"
        },
        "text": {
          "status": "generated",
          "div": "<div xmlns=\"http://www.w3.org/1999/xhtml\"><table class=\"hl7__ips\"><tr><td>Screening for domestic abuse</td><td><span class=\"nb\">13-Dec-2022</span></td><td>-</td></tr></table></div>"
        },
        "status": "completed",
        "performedDateTime": "2022-12-13",
        "subject": {
          "reference": "urn:uuid:",
          "display": "Hortense Gallet"
        }
      }
    },
    {
      "fullUrl": "urn:uuid:9e83467c-0a77-47e9-9162-a6b65a414588",
      "resource": {
        "resourceType": "Procedure",
        "id": "9e83467c-0a77-47e9-9162-a6b65a414588",
        "meta": {
          "profile": [
            "http://hl7.org/fhir/uv/ips/StructureDefinition/Procedure-uv-ips"
          ]
        },
        "code": {
          "coding": [
            {
              "code": "454711000124102",
              "system": "http://snomed.info/sct",
              "display": "Depression screening using Patient Health Questionnaire Two-Item score (procedure)"
            }
          ]
        },
        "text": {
          "status": "generated",
          "div": "<div xmlns=\"http://www.w3.org/1999/xhtml\"><table class=\"hl7__ips\"><tr><td>Depression screening using Patient Health Questionnaire Two-Item score (procedure)</td><td><span class=\"nb\">13-Dec-2022</span></td><td>-</td></tr></table></div>"
        },
        "status": "completed",
        "performedDateTime": "2022-12-13",
        "subject": {
          "reference": "urn:uuid:",
          "display": "Hortense Gallet"
        }
      }
    },
    {
      "fullUrl": "urn:uuid:b309b776-4b04-4090-b53c-5aa47df8ec05",
      "resource": {
        "resourceType": "Procedure",
        "id": "b309b776-4b04-4090-b53c-5aa47df8ec05",
        "meta": {
          "profile": [
            "http://hl7.org/fhir/uv/ips/StructureDefinition/Procedure-uv-ips"
          ]
        },
        "code": {
          "coding": [
            {
              "code": "763302001",
              "system": "http://snomed.info/sct",
              "display": "Assessment using Alcohol Use Disorders Identification Test - Consumption (procedure)"
            }
          ],
          "text": "Assessment using AUDIT-C (Alcohol Use Disorders Identification Test - Consumption)"
        },
        "text": {
          "status": "generated",
          "div": "<div xmlns=\"http://www.w3.org/1999/xhtml\"><table class=\"hl7__ips\"><tr><td>Assessment using AUDIT-C (Alcohol Use Disorders Identification Test - Consumption)</td><td><span class=\"nb\">29-Nov-2022</span></td><td>-</td></tr></table></div>"
        },
        "status": "completed",
        "performedDateTime": "2022-11-29",
        "subject": {
          "reference": "urn:uuid:",
          "display": "Hortense Gallet"
        }
      }
    },
    {
      "fullUrl": "urn:uuid:2ef07a2e-cc76-4e19-9cf6-9c91767d3761",
      "resource": {
        "resourceType": "Procedure",
        "id": "2ef07a2e-cc76-4e19-9cf6-9c91767d3761",
        "meta": {
          "profile": [
            "http://hl7.org/fhir/uv/ips/StructureDefinition/Procedure-uv-ips"
          ]
        },
        "code": {
          "coding": [
            {
              "code": "428211000124100",
              "system": "http://snomed.info/sct",
              "display": "Assessment of substance use (procedure)"
            }
          ],
          "text": "Assessment of substance use"
        },
        "text": {
          "status": "generated",
          "div": "<div xmlns=\"http://www.w3.org/1999/xhtml\"><table class=\"hl7__ips\"><tr><td>Assessment of substance use</td><td><span class=\"nb\">29-Nov-2022</span></td><td>-</td></tr></table></div>"
        },
        "status": "completed",
        "performedDateTime": "2022-11-29",
        "subject": {
          "reference": "urn:uuid:",
          "display": "Hortense Gallet"
        }
      }
    },
    {
      "fullUrl": "urn:uuid:98ba8d09-ef37-47b4-8a52-25f4ecdbaed7",
      "resource": {
        "resourceType": "AllergyIntolerance",
        "id": "98ba8d09-ef37-47b4-8a52-25f4ecdbaed7",
        "meta": {
          "profile": [
            "http://hl7.eu/fhir/eps/StructureDefinition/allergyIntolerance-eu-eps"
          ]
        },
        "code": {
          "coding": [
            {
              "code": "1343356001",
              "system": "http://snomed.info/sct",
              "display": "Inadequate digital access affecting health care"
            }
          ],
          "text": "Inadequate digital access affecting health care"
        },
        "clinicalStatus": {
          "coding": [
            {
              "code": "active",
              "system": "http://terminology.hl7.org/CodeSystem/allergyintolerance-clinical"
            }
          ]
        },
        "category": [
          "environment"
        ],
        "text": {
          "status": "generated",
          "div": "<div xmlns=\"http://www.w3.org/1999/xhtml\"><table class=\"hl7__ips\"><tr><th>Allergy/Intolerance</th><th>Onset Date</th><th>Status</th><th>Type</th><th>Reaction</th></tr><tr><td>Inadequate digital access affecting health care</td><td><span class=\"nb\">2025-10-22</span></td><td>active</td><td>environment</td><td></td></tr></table></div>"
        },
        "onsetDateTime": "2025-10-22",
        "verificationStatus": {
          "coding": [
            {
              "code": "confirmed",
              "system": "http://terminology.hl7.org/CodeSystem/allergyintolerance-verification"
            }
          ]
        },
        "type": "intolerance",
        "patient": {
          "reference": "urn:uuid:aef48ed6-e5df-4853-9e26-95b7f24d36a6",
          "display": "Hortense Gallet"
        }
      }
    },
    {
      "fullUrl": "urn:uuid:df476c17-5437-4f7c-bf17-7192e07a1937",
      "resource": {
        "resourceType": "CarePlan",
        "id": "df476c17-5437-4f7c-bf17-7192e07a1937",
        "category": [
          {
            "coding": [
              {
                "code": "assess-plan",
                "system": "http://terminology.hl7.org/CodeSystem/care-plan-category",
                "display": "Assessment and Plan"
              }
            ]
          }
        ],
        "activity": [
          {
            "detail": {
              "code": {
                "coding": [
                  {
                    "code": "443402002",
                    "system": "http://snomed.info/sct",
                    "display": "Lifestyle education regarding hypertension (procedure)"
                  }
                ]
              },
              "reasonCode": [
                {
                  "coding": [
                    {
                      "code": "59621000",
                      "system": "http://snomed.info/sct",
                      "display": "Essential hypertension (disorder)"
                    }
                  ]
                }
              ],
              "status": "unknown",
              "description": "Lifestyle education regarding hypertension",
              "kind": "Appointment"
            }
          }
        ],
        "period": {
          "start": "2003-12-16"
        },
        "goal": [
          {
            "reference": "urn:uuid:7d3bebdf-6b08-4dbe-8acd-66f8403642ba"
          },
          {
            "reference": "urn:uuid:84c3622f-c75f-4fc9-b006-0109595c9eba"
          }
        ],
        "text": {
          "status": "generated",
          "div": "<div xmlns=\"http://www.w3.org/1999/xhtml\"><table class=\"hl7__ips first25\"><tr><th>Active Planned Care / Goals</th><th>Start Date</th><th>Reason</th></tr><tr><td>Lifestyle education regarding hypertension</td><td><span class=\"nb\">16-Dec-2003</span></td><td>Essential hypertension (disorder)</td></tr><tr><td><ul><li>Maintain blood pressure below 130/80 mmHg to reduce risk of kidney disease progression and cardiovascular complications.</li><li>Implement dietary changes, increase physical activity, and reduce sodium intake to support blood pressure control.</li></ul></td><td></td><td></td></tr></table></div>"
        },
        "status": "active",
        "intent": "plan",
        "subject": {
          "reference": "urn:uuid:aef48ed6-e5df-4853-9e26-95b7f24d36a6",
          "display": "Hortense Gallet"
        }
      }
    },
    {
      "fullUrl": "urn:uuid:19bf1794-3dea-4390-9952-4a89f952cf29",
      "resource": {
        "resourceType": "CarePlan",
        "id": "19bf1794-3dea-4390-9952-4a89f952cf29",
        "category": [
          {
            "coding": [
              {
                "code": "assess-plan",
                "system": "http://terminology.hl7.org/CodeSystem/care-plan-category",
                "display": "Assessment and Plan"
              }
            ]
          }
        ],
        "activity": [
          {
            "detail": {
              "code": {
                "coding": [
                  {
                    "code": "134435003",
                    "system": "http://snomed.info/sct",
                    "display": "Routine antenatal care (regime/therapy)"
                  }
                ]
              },
              "status": "unknown",
              "description": "Routine antenatal care",
              "kind": "Appointment"
            }
          }
        ],
        "period": {
          "start": "1996-01-09"
        },
        "text": {
          "status": "generated",
          "div": "<div xmlns=\"http://www.w3.org/1999/xhtml\"><table class=\"hl7__ips first25\"><tr><th>Active Planned Care / Goals</th><th>Start Date</th><th>Reason</th></tr><tr><td>Routine antenatal care</td><td><span class=\"nb\">09-Jan-1996</span></td><td>-</td></tr></table></div>"
        },
        "status": "active",
        "intent": "plan",
        "subject": {
          "reference": "urn:uuid:aef48ed6-e5df-4853-9e26-95b7f24d36a6",
          "display": "Hortense Gallet"
        }
      }
    },
    {
      "fullUrl": "urn:uuid:4af0f035-1068-49b9-89cb-d097c4cc3c6e",
      "resource": {
        "resourceType": "Observation",
        "id": "4af0f035-1068-49b9-89cb-d097c4cc3c6e",
        "meta": {
          "profile": [
            "http://hl7.org/fhir/StructureDefinition/vitalsigns"
          ]
        },
        "category": [
          {
            "coding": [
              {
                "system": "http://terminology.hl7.org/CodeSystem/observation-category",
                "code": "vital-signs",
                "display": "Vital Signs"
              }
            ]
          }
        ],
        "valueQuantity": {
          "value": 172.4,
          "code": "cm",
          "unit": "cm"
        },
        "text": {
          "status": "generated",
          "div": "<div xmlns=\"http://www.w3.org/1999/xhtml\"><table class=\"hl7__ips\"><tr><th>Vital Sign</th><th>Date</th><th>Measurement</th></tr><tr><td>Body Height</td><td>15-Apr-2025</td><td>172.4 cm</td></tr></table></div>"
        },
        "status": "final",
        "code": {
          "coding": [
            {
              "code": "$8302-2",
              "system": "http://loinc.org",
              "display": "Body Height"
            }
          ]
        },
        "subject": {
          "reference": "urn:uuid:aef48ed6-e5df-4853-9e26-95b7f24d36a6",
          "display": "Hortense Gallet"
        },
        "effectiveDateTime": "2025-04-15"
      }
    },
    {
      "fullUrl": "urn:uuid:5aba9004-41ce-47b0-afe7-526e05172ce9",
      "resource": {
        "resourceType": "Observation",
        "id": "5aba9004-41ce-47b0-afe7-526e05172ce9",
        "meta": {
          "profile": [
            "http://hl7.org/fhir/StructureDefinition/vitalsigns"
          ]
        },
        "category": [
          {
            "coding": [
              {
                "system": "http://terminology.hl7.org/CodeSystem/observation-category",
                "code": "vital-signs",
                "display": "Vital Signs"
              }
            ]
          }
        ],
        "valueQuantity": {
          "value": 3,
          "code": "{score}",
          "unit": "{score}"
        },
        "text": {
          "status": "generated",
          "div": "<div xmlns=\"http://www.w3.org/1999/xhtml\"><table class=\"hl7__ips\"><tr><th>Vital Sign</th><th>Date</th><th>Measurement</th></tr><tr><td>Pain severity - 0-10 verbal numeric rating [Score] - Reported</td><td>15-Apr-2025</td><td>3 {score}</td></tr></table></div>"
        },
        "status": "final",
        "code": {
          "coding": [
            {
              "code": "$72514-3",
              "system": "http://loinc.org",
              "display": "Pain severity - 0-10 verbal numeric rating [Score] - Reported"
            }
          ]
        },
        "subject": {
          "reference": "urn:uuid:aef48ed6-e5df-4853-9e26-95b7f24d36a6",
          "display": "Hortense Gallet"
        },
        "effectiveDateTime": "2025-04-15"
      }
    },
    {
      "fullUrl": "urn:uuid:0a8fd375-405d-49f0-a09e-d4b3e43eceef",
      "resource": {
        "resourceType": "Observation",
        "id": "0a8fd375-405d-49f0-a09e-d4b3e43eceef",
        "meta": {
          "profile": [
            "http://hl7.org/fhir/StructureDefinition/vitalsigns"
          ]
        },
        "category": [
          {
            "coding": [
              {
                "system": "http://terminology.hl7.org/CodeSystem/observation-category",
                "code": "vital-signs",
                "display": "Vital Signs"
              }
            ]
          }
        ],
        "valueQuantity": {
          "value": 102.9,
          "code": "kg",
          "unit": "kg"
        },
        "text": {
          "status": "generated",
          "div": "<div xmlns=\"http://www.w3.org/1999/xhtml\"><table class=\"hl7__ips\"><tr><th>Vital Sign</th><th>Date</th><th>Measurement</th></tr><tr><td>Body Weight</td><td>15-Apr-2025</td><td>102.9 kg</td></tr></table></div>"
        },
        "status": "final",
        "code": {
          "coding": [
            {
              "code": "$29463-7",
              "system": "http://loinc.org",
              "display": "Body Weight"
            }
          ]
        },
        "subject": {
          "reference": "urn:uuid:aef48ed6-e5df-4853-9e26-95b7f24d36a6",
          "display": "Hortense Gallet"
        },
        "effectiveDateTime": "2025-04-15"
      }
    },
    {
      "fullUrl": "urn:uuid:035332dd-2d49-4c0f-92e3-647a3e0c4ea8",
      "resource": {
        "resourceType": "Observation",
        "id": "035332dd-2d49-4c0f-92e3-647a3e0c4ea8",
        "meta": {
          "profile": [
            "http://hl7.org/fhir/StructureDefinition/vitalsigns"
          ]
        },
        "category": [
          {
            "coding": [
              {
                "system": "http://terminology.hl7.org/CodeSystem/observation-category",
                "code": "vital-signs",
                "display": "Vital Signs"
              }
            ]
          }
        ],
        "valueQuantity": {
          "value": 34.6,
          "code": "kg/m2",
          "unit": "kg/m2"
        },
        "text": {
          "status": "generated",
          "div": "<div xmlns=\"http://www.w3.org/1999/xhtml\"><table class=\"hl7__ips\"><tr><th>Vital Sign</th><th>Date</th><th>Measurement</th></tr><tr><td>Body mass index (BMI) [Ratio]</td><td>15-Apr-2025</td><td>34.6 kg/m2</td></tr></table></div>"
        },
        "status": "final",
        "code": {
          "coding": [
            {
              "code": "$39156-5",
              "system": "http://loinc.org",
              "display": "Body mass index (BMI) [Ratio]"
            }
          ]
        },
        "subject": {
          "reference": "urn:uuid:aef48ed6-e5df-4853-9e26-95b7f24d36a6",
          "display": "Hortense Gallet"
        },
        "effectiveDateTime": "2025-04-15"
      }
    },
    {
      "fullUrl": "urn:uuid:620369d5-89d8-4e0b-aca1-8615fa870dcf",
      "resource": {
        "resourceType": "Observation",
        "id": "620369d5-89d8-4e0b-aca1-8615fa870dcf",
        "meta": {
          "profile": [
            "http://hl7.org/fhir/StructureDefinition/vitalsigns"
          ]
        },
        "category": [
          {
            "coding": [
              {
                "system": "http://terminology.hl7.org/CodeSystem/observation-category",
                "code": "vital-signs",
                "display": "Vital Signs"
              }
            ]
          }
        ],
        "valueQuantity": {
          "value": 79,
          "code": "mm[Hg]",
          "unit": "mm[Hg]"
        },
        "text": {
          "status": "generated",
          "div": "<div xmlns=\"http://www.w3.org/1999/xhtml\"><table class=\"hl7__ips\"><tr><th>Vital Sign</th><th>Date</th><th>Measurement</th></tr><tr><td>Diastolic Blood Pressure</td><td>15-Apr-2025</td><td>79 mm[Hg]</td></tr></table></div>"
        },
        "status": "final",
        "code": {
          "coding": [
            {
              "code": "$8462-4",
              "system": "http://loinc.org",
              "display": "Diastolic Blood Pressure"
            }
          ]
        },
        "subject": {
          "reference": "urn:uuid:aef48ed6-e5df-4853-9e26-95b7f24d36a6",
          "display": "Hortense Gallet"
        },
        "effectiveDateTime": "2025-04-15"
      }
    },
    {
      "fullUrl": "urn:uuid:f49c933d-58a2-4b3a-932f-69d8581956f3",
      "resource": {
        "resourceType": "Observation",
        "id": "f49c933d-58a2-4b3a-932f-69d8581956f3",
        "meta": {
          "profile": [
            "http://hl7.org/fhir/StructureDefinition/vitalsigns"
          ]
        },
        "category": [
          {
            "coding": [
              {
                "system": "http://terminology.hl7.org/CodeSystem/observation-category",
                "code": "vital-signs",
                "display": "Vital Signs"
              }
            ]
          }
        ],
        "valueQuantity": {
          "value": 103,
          "code": "mm[Hg]",
          "unit": "mm[Hg]"
        },
        "text": {
          "status": "generated",
          "div": "<div xmlns=\"http://www.w3.org/1999/xhtml\"><table class=\"hl7__ips\"><tr><th>Vital Sign</th><th>Date</th><th>Measurement</th></tr><tr><td>Systolic Blood Pressure</td><td>15-Apr-2025</td><td>103 mm[Hg]</td></tr></table></div>"
        },
        "status": "final",
        "code": {
          "coding": [
            {
              "code": "$8480-6",
              "system": "http://loinc.org",
              "display": "Systolic Blood Pressure"
            }
          ]
        },
        "subject": {
          "reference": "urn:uuid:aef48ed6-e5df-4853-9e26-95b7f24d36a6",
          "display": "Hortense Gallet"
        },
        "effectiveDateTime": "2025-04-15"
      }
    },
    {
      "fullUrl": "urn:uuid:a2edc98a-685a-4c92-bc82-ac91c06a99b6",
      "resource": {
        "resourceType": "Observation",
        "id": "a2edc98a-685a-4c92-bc82-ac91c06a99b6",
        "meta": {
          "profile": [
            "http://hl7.org/fhir/StructureDefinition/vitalsigns"
          ]
        },
        "category": [
          {
            "coding": [
              {
                "system": "http://terminology.hl7.org/CodeSystem/observation-category",
                "code": "vital-signs",
                "display": "Vital Signs"
              }
            ]
          }
        ],
        "valueQuantity": {
          "value": 72,
          "code": "/min",
          "unit": "/min"
        },
        "text": {
          "status": "generated",
          "div": "<div xmlns=\"http://www.w3.org/1999/xhtml\"><table class=\"hl7__ips\"><tr><th>Vital Sign</th><th>Date</th><th>Measurement</th></tr><tr><td>Heart rate</td><td>15-Apr-2025</td><td>72 /min</td></tr></table></div>"
        },
        "status": "final",
        "code": {
          "coding": [
            {
              "code": "$8867-4",
              "system": "http://loinc.org",
              "display": "Heart rate"
            }
          ]
        },
        "subject": {
          "reference": "urn:uuid:aef48ed6-e5df-4853-9e26-95b7f24d36a6",
          "display": "Hortense Gallet"
        },
        "effectiveDateTime": "2025-04-15"
      }
    },
    {
      "fullUrl": "urn:uuid:7eb839ae-f707-4d21-bc27-0da28a269aa4",
      "resource": {
        "resourceType": "Observation",
        "id": "7eb839ae-f707-4d21-bc27-0da28a269aa4",
        "meta": {
          "profile": [
            "http://hl7.org/fhir/StructureDefinition/vitalsigns"
          ]
        },
        "category": [
          {
            "coding": [
              {
                "system": "http://terminology.hl7.org/CodeSystem/observation-category",
                "code": "vital-signs",
                "display": "Vital Signs"
              }
            ]
          }
        ],
        "valueQuantity": {
          "value": 14,
          "code": "/min",
          "unit": "/min"
        },
        "text": {
          "status": "generated",
          "div": "<div xmlns=\"http://www.w3.org/1999/xhtml\"><table class=\"hl7__ips\"><tr><th>Vital Sign</th><th>Date</th><th>Measurement</th></tr><tr><td>Respiratory rate</td><td>15-Apr-2025</td><td>14 /min</td></tr></table></div>"
        },
        "status": "final",
        "code": {
          "coding": [
            {
              "code": "$9279-1",
              "system": "http://loinc.org",
              "display": "Respiratory rate"
            }
          ]
        },
        "subject": {
          "reference": "urn:uuid:aef48ed6-e5df-4853-9e26-95b7f24d36a6",
          "display": "Hortense Gallet"
        },
        "effectiveDateTime": "2025-04-15"
      }
    },
    {
      "fullUrl": "urn:uuid:2085aa79-e89a-44fc-a2da-114ae67cb028",
      "resource": {
        "resourceType": "Observation",
        "id": "2085aa79-e89a-44fc-a2da-114ae67cb028",
        "meta": {
          "profile": [
            "http://hl7.org/fhir/StructureDefinition/vitalsigns"
          ]
        },
        "category": [
          {
            "coding": [
              {
                "system": "http://terminology.hl7.org/CodeSystem/observation-category",
                "code": "vital-signs",
                "display": "Vital Signs"
              }
            ]
          }
        ],
        "valueQuantity": {
          "value": 172.4,
          "code": "cm",
          "unit": "cm"
        },
        "text": {
          "status": "generated",
          "div": "<div xmlns=\"http://www.w3.org/1999/xhtml\"><table class=\"hl7__ips\"><tr><th>Vital Sign</th><th>Date</th><th>Measurement</th></tr><tr><td>Body Height</td><td>28-Jan-2025</td><td>172.4 cm</td></tr></table></div>"
        },
        "status": "final",
        "code": {
          "coding": [
            {
              "code": "$8302-2",
              "system": "http://loinc.org",
              "display": "Body Height"
            }
          ]
        },
        "subject": {
          "reference": "urn:uuid:aef48ed6-e5df-4853-9e26-95b7f24d36a6",
          "display": "Hortense Gallet"
        },
        "effectiveDateTime": "2025-01-28"
      }
    },
    {
      "fullUrl": "urn:uuid:71cf112d-a7f5-4ae5-8ba2-bccbc7ecc58e",
      "resource": {
        "resourceType": "Observation",
        "id": "71cf112d-a7f5-4ae5-8ba2-bccbc7ecc58e",
        "meta": {
          "profile": [
            "http://hl7.org/fhir/StructureDefinition/vitalsigns"
          ]
        },
        "category": [
          {
            "coding": [
              {
                "system": "http://terminology.hl7.org/CodeSystem/observation-category",
                "code": "vital-signs",
                "display": "Vital Signs"
              }
            ]
          }
        ],
        "valueQuantity": {
          "value": 1,
          "code": "{score}",
          "unit": "{score}"
        },
        "text": {
          "status": "generated",
          "div": "<div xmlns=\"http://www.w3.org/1999/xhtml\"><table class=\"hl7__ips\"><tr><th>Vital Sign</th><th>Date</th><th>Measurement</th></tr><tr><td>Pain severity - 0-10 verbal numeric rating [Score] - Reported</td><td>28-Jan-2025</td><td>1 {score}</td></tr></table></div>"
        },
        "status": "final",
        "code": {
          "coding": [
            {
              "code": "$72514-3",
              "system": "http://loinc.org",
              "display": "Pain severity - 0-10 verbal numeric rating [Score] - Reported"
            }
          ]
        },
        "subject": {
          "reference": "urn:uuid:aef48ed6-e5df-4853-9e26-95b7f24d36a6",
          "display": "Hortense Gallet"
        },
        "effectiveDateTime": "2025-01-28"
      }
    },
    {
      "fullUrl": "urn:uuid:efb7fdbe-3ddf-40ad-84d9-31be33b2779a",
      "resource": {
        "resourceType": "Observation",
        "id": "efb7fdbe-3ddf-40ad-84d9-31be33b2779a",
        "meta": {
          "profile": [
            "http://hl7.org/fhir/StructureDefinition/vitalsigns"
          ]
        },
        "category": [
          {
            "coding": [
              {
                "system": "http://terminology.hl7.org/CodeSystem/observation-category",
                "code": "vital-signs",
                "display": "Vital Signs"
              }
            ]
          }
        ],
        "valueQuantity": {
          "value": 102.9,
          "code": "kg",
          "unit": "kg"
        },
        "text": {
          "status": "generated",
          "div": "<div xmlns=\"http://www.w3.org/1999/xhtml\"><table class=\"hl7__ips\"><tr><th>Vital Sign</th><th>Date</th><th>Measurement</th></tr><tr><td>Body Weight</td><td>28-Jan-2025</td><td>102.9 kg</td></tr></table></div>"
        },
        "status": "final",
        "code": {
          "coding": [
            {
              "code": "$29463-7",
              "system": "http://loinc.org",
              "display": "Body Weight"
            }
          ]
        },
        "subject": {
          "reference": "urn:uuid:aef48ed6-e5df-4853-9e26-95b7f24d36a6",
          "display": "Hortense Gallet"
        },
        "effectiveDateTime": "2025-01-28"
      }
    },
    {
      "fullUrl": "urn:uuid:c3470543-c5d5-4a17-bc83-4356c32a5973",
      "resource": {
        "resourceType": "Observation",
        "id": "c3470543-c5d5-4a17-bc83-4356c32a5973",
        "meta": {
          "profile": [
            "http://hl7.org/fhir/StructureDefinition/vitalsigns"
          ]
        },
        "category": [
          {
            "coding": [
              {
                "system": "http://terminology.hl7.org/CodeSystem/observation-category",
                "code": "vital-signs",
                "display": "Vital Signs"
              }
            ]
          }
        ],
        "valueQuantity": {
          "value": 34.6,
          "code": "kg/m2",
          "unit": "kg/m2"
        },
        "text": {
          "status": "generated",
          "div": "<div xmlns=\"http://www.w3.org/1999/xhtml\"><table class=\"hl7__ips\"><tr><th>Vital Sign</th><th>Date</th><th>Measurement</th></tr><tr><td>Body mass index (BMI) [Ratio]</td><td>28-Jan-2025</td><td>34.6 kg/m2</td></tr></table></div>"
        },
        "status": "final",
        "code": {
          "coding": [
            {
              "code": "$39156-5",
              "system": "http://loinc.org",
              "display": "Body mass index (BMI) [Ratio]"
            }
          ]
        },
        "subject": {
          "reference": "urn:uuid:aef48ed6-e5df-4853-9e26-95b7f24d36a6",
          "display": "Hortense Gallet"
        },
        "effectiveDateTime": "2025-01-28"
      }
    },
    {
      "fullUrl": "urn:uuid:bd8f4b92-6fe9-4f63-83ee-ccd8c400731e",
      "resource": {
        "resourceType": "Observation",
        "id": "bd8f4b92-6fe9-4f63-83ee-ccd8c400731e",
        "meta": {
          "profile": [
            "http://hl7.org/fhir/StructureDefinition/vitalsigns"
          ]
        },
        "category": [
          {
            "coding": [
              {
                "system": "http://terminology.hl7.org/CodeSystem/observation-category",
                "code": "vital-signs",
                "display": "Vital Signs"
              }
            ]
          }
        ],
        "valueQuantity": {
          "value": 79,
          "code": "mm[Hg]",
          "unit": "mm[Hg]"
        },
        "text": {
          "status": "generated",
          "div": "<div xmlns=\"http://www.w3.org/1999/xhtml\"><table class=\"hl7__ips\"><tr><th>Vital Sign</th><th>Date</th><th>Measurement</th></tr><tr><td>Diastolic Blood Pressure</td><td>28-Jan-2025</td><td>79 mm[Hg]</td></tr></table></div>"
        },
        "status": "final",
        "code": {
          "coding": [
            {
              "code": "$8462-4",
              "system": "http://loinc.org",
              "display": "Diastolic Blood Pressure"
            }
          ]
        },
        "subject": {
          "reference": "urn:uuid:aef48ed6-e5df-4853-9e26-95b7f24d36a6",
          "display": "Hortense Gallet"
        },
        "effectiveDateTime": "2025-01-28"
      }
    },
    {
      "fullUrl": "urn:uuid:54f39df7-52b4-4065-afe6-f3f77cf94cfa",
      "resource": {
        "resourceType": "Observation",
        "id": "54f39df7-52b4-4065-afe6-f3f77cf94cfa",
        "meta": {
          "profile": [
            "http://hl7.org/fhir/StructureDefinition/vitalsigns"
          ]
        },
        "category": [
          {
            "coding": [
              {
                "system": "http://terminology.hl7.org/CodeSystem/observation-category",
                "code": "vital-signs",
                "display": "Vital Signs"
              }
            ]
          }
        ],
        "valueQuantity": {
          "value": 94,
          "code": "mm[Hg]",
          "unit": "mm[Hg]"
        },
        "text": {
          "status": "generated",
          "div": "<div xmlns=\"http://www.w3.org/1999/xhtml\"><table class=\"hl7__ips\"><tr><th>Vital Sign</th><th>Date</th><th>Measurement</th></tr><tr><td>Systolic Blood Pressure</td><td>28-Jan-2025</td><td>94 mm[Hg]</td></tr></table></div>"
        },
        "status": "final",
        "code": {
          "coding": [
            {
              "code": "$8480-6",
              "system": "http://loinc.org",
              "display": "Systolic Blood Pressure"
            }
          ]
        },
        "subject": {
          "reference": "urn:uuid:aef48ed6-e5df-4853-9e26-95b7f24d36a6",
          "display": "Hortense Gallet"
        },
        "effectiveDateTime": "2025-01-28"
      }
    },
    {
      "fullUrl": "urn:uuid:244022ea-c247-4886-9c99-e466d641deb6",
      "resource": {
        "resourceType": "Observation",
        "id": "244022ea-c247-4886-9c99-e466d641deb6",
        "meta": {
          "profile": [
            "http://hl7.org/fhir/StructureDefinition/vitalsigns"
          ]
        },
        "category": [
          {
            "coding": [
              {
                "system": "http://terminology.hl7.org/CodeSystem/observation-category",
                "code": "vital-signs",
                "display": "Vital Signs"
              }
            ]
          }
        ],
        "valueQuantity": {
          "value": 87,
          "code": "/min",
          "unit": "/min"
        },
        "text": {
          "status": "generated",
          "div": "<div xmlns=\"http://www.w3.org/1999/xhtml\"><table class=\"hl7__ips\"><tr><th>Vital Sign</th><th>Date</th><th>Measurement</th></tr><tr><td>Heart rate</td><td>28-Jan-2025</td><td>87 /min</td></tr></table></div>"
        },
        "status": "final",
        "code": {
          "coding": [
            {
              "code": "$8867-4",
              "system": "http://loinc.org",
              "display": "Heart rate"
            }
          ]
        },
        "subject": {
          "reference": "urn:uuid:aef48ed6-e5df-4853-9e26-95b7f24d36a6",
          "display": "Hortense Gallet"
        },
        "effectiveDateTime": "2025-01-28"
      }
    },
    {
      "fullUrl": "urn:uuid:b1816cf9-e9f0-48cf-9115-390f9b3772eb",
      "resource": {
        "resourceType": "Observation",
        "id": "b1816cf9-e9f0-48cf-9115-390f9b3772eb",
        "meta": {
          "profile": [
            "http://hl7.org/fhir/StructureDefinition/vitalsigns"
          ]
        },
        "category": [
          {
            "coding": [
              {
                "system": "http://terminology.hl7.org/CodeSystem/observation-category",
                "code": "vital-signs",
                "display": "Vital Signs"
              }
            ]
          }
        ],
        "valueQuantity": {
          "value": 14,
          "code": "/min",
          "unit": "/min"
        },
        "text": {
          "status": "generated",
          "div": "<div xmlns=\"http://www.w3.org/1999/xhtml\"><table class=\"hl7__ips\"><tr><th>Vital Sign</th><th>Date</th><th>Measurement</th></tr><tr><td>Respiratory rate</td><td>28-Jan-2025</td><td>14 /min</td></tr></table></div>"
        },
        "status": "final",
        "code": {
          "coding": [
            {
              "code": "$9279-1",
              "system": "http://loinc.org",
              "display": "Respiratory rate"
            }
          ]
        },
        "subject": {
          "reference": "urn:uuid:aef48ed6-e5df-4853-9e26-95b7f24d36a6",
          "display": "Hortense Gallet"
        },
        "effectiveDateTime": "2025-01-28"
      }
    },
    {
      "fullUrl": "urn:uuid:d6cdab3e-4a4c-4a3e-86c4-0ed534b50e65",
      "resource": {
        "resourceType": "Observation",
        "id": "d6cdab3e-4a4c-4a3e-86c4-0ed534b50e65",
        "meta": {
          "profile": [
            "http://hl7.eu/fhir/laboratory/StructureDefinition/Observation-resultslab-eu-lab"
          ]
        },
        "performer": [
          {
            "display": "The Central European Lab"
          }
        ],
        "category": [
          {
            "coding": [
              {
                "system": "http://terminology.hl7.org/CodeSystem/observation-category",
                "code": "laboratory"
              }
            ]
          }
        ],
        "code": {
          "coding": [
            {
              "code": "2345-7",
              "system": "http://loinc.org",
              "display": "Glucose [Mass/volume] in Serum or Plasma"
            }
          ],
          "text": "Glucose [Mass/volume] in Serum or Plasma"
        },
        "valueQuantity": {
          "system": "http://unitsofmeasure.org",
          "value": 74.5,
          "unit": "mg/dL",
          "code": "mg/dL"
        },
        "referenceRange": [
          {
            "low": {
              "value": 70,
              "code": "mg/dL",
              "system": "http://unitsofmeasure.org"
            }
          },
          {
            "high": {
              "value": 139,
              "code": "mg/dL",
              "system": "http://unitsofmeasure.org"
            }
          }
        ],
        "text": {
          "status": "generated",
          "div": "<div xmlns=\"http://www.w3.org/1999/xhtml\"><table class=\"hl7__eu__lab__report\"><tr><th>Test</th><th>15-Apr-2025</th><th>Reference&#xA0;Range</th><th>Unit</th></tr><tr><td>Glucose [Mass/volume] in Serum or Plasma</td><td>74.5</td><td>70 - 139</td><td></td><td>mg/dL</td></tr></table></div>"
        },
        "status": "final",
        "subject": {
          "reference": "urn:uuid:aef48ed6-e5df-4853-9e26-95b7f24d36a6",
          "display": "Hortense Gallet"
        },
        "effectiveDateTime": "2025-04-15T20:16:45Z"
      }
    },
    {
      "fullUrl": "urn:uuid:40cb2b99-9966-40a0-92aa-f5817b7c77c9",
      "resource": {
        "resourceType": "Observation",
        "id": "40cb2b99-9966-40a0-92aa-f5817b7c77c9",
        "meta": {
          "profile": [
            "http://hl7.eu/fhir/laboratory/StructureDefinition/Observation-resultslab-eu-lab"
          ]
        },
        "performer": [
          {
            "display": "The Central European Lab"
          }
        ],
        "category": [
          {
            "coding": [
              {
                "system": "http://terminology.hl7.org/CodeSystem/observation-category",
                "code": "laboratory"
              }
            ]
          }
        ],
        "code": {
          "coding": [
            {
              "code": "3094-0",
              "system": "http://loinc.org",
              "display": "Urea nitrogen [Mass/volume] in Serum or Plasma"
            }
          ],
          "text": "Urea nitrogen [Mass/volume] in Serum or Plasma"
        },
        "valueQuantity": {
          "system": "http://unitsofmeasure.org",
          "value": 7.7,
          "unit": "mg/dL",
          "code": "mg/dL"
        },
        "referenceRange": [
          {
            "low": {
              "value": 7,
              "code": "mg/dL",
              "system": "http://unitsofmeasure.org"
            }
          },
          {
            "high": {
              "value": 20,
              "code": "mg/dL",
              "system": "http://unitsofmeasure.org"
            }
          }
        ],
        "text": {
          "status": "generated",
          "div": "<div xmlns=\"http://www.w3.org/1999/xhtml\"><table class=\"hl7__eu__lab__report\"><tr><th>Test</th><th>15-Apr-2025</th><th>Reference&#xA0;Range</th><th>Unit</th></tr><tr><td>Urea nitrogen [Mass/volume] in Serum or Plasma</td><td>7.7</td><td>7 - 20</td><td></td><td>mg/dL</td></tr></table></div>"
        },
        "status": "final",
        "subject": {
          "reference": "urn:uuid:aef48ed6-e5df-4853-9e26-95b7f24d36a6",
          "display": "Hortense Gallet"
        },
        "effectiveDateTime": "2025-04-15T20:16:45Z"
      }
    },
    {
      "fullUrl": "urn:uuid:2705db9e-efd4-4138-89c3-0aebb6aad9f9",
      "resource": {
        "resourceType": "Observation",
        "id": "2705db9e-efd4-4138-89c3-0aebb6aad9f9",
        "meta": {
          "profile": [
            "http://hl7.eu/fhir/laboratory/StructureDefinition/Observation-resultslab-eu-lab"
          ]
        },
        "performer": [
          {
            "display": "The Central European Lab"
          }
        ],
        "category": [
          {
            "coding": [
              {
                "system": "http://terminology.hl7.org/CodeSystem/observation-category",
                "code": "laboratory"
              }
            ]
          }
        ],
        "code": {
          "coding": [
            {
              "code": "2160-0",
              "system": "http://loinc.org",
              "display": "Creatinine [Mass/volume] in Serum or Plasma"
            }
          ],
          "text": "Creatinine [Mass/volume] in Serum or Plasma"
        },
        "valueQuantity": {
          "system": "http://unitsofmeasure.org",
          "value": 2,
          "unit": "mg/dL",
          "code": "mg/dL"
        },
        "referenceRange": [
          {
            "low": {
              "value": 0.6,
              "code": "mg/dL",
              "system": "http://unitsofmeasure.org"
            }
          },
          {
            "high": {
              "value": 1.1,
              "code": "mg/dL",
              "system": "http://unitsofmeasure.org"
            }
          }
        ],
        "interpretation": [
          {
            "coding": [
              {
                "code": "H",
                "system": "http://terminology.hl7.org/CodeSystem/v3-ObservationInterpretation",
                "display": "High"
              }
            ]
          }
        ],
        "text": {
          "status": "generated",
          "div": "<div xmlns=\"http://www.w3.org/1999/xhtml\"><table class=\"hl7__eu__lab__report\"><tr><th>Test</th><th>15-Apr-2025</th><th>Reference&#xA0;Range</th><th>Unit</th></tr><tr><td>Creatinine [Mass/volume] in Serum or Plasma</td><td>2.0</td><td>0.6 - 1.1</td><td>H</td><td>mg/dL</td></tr></table></div>"
        },
        "status": "final",
        "subject": {
          "reference": "urn:uuid:aef48ed6-e5df-4853-9e26-95b7f24d36a6",
          "display": "Hortense Gallet"
        },
        "effectiveDateTime": "2025-04-15T20:16:45Z"
      }
    },
    {
      "fullUrl": "urn:uuid:d73b03cc-047f-4aac-be8e-1f8fa1836aa3",
      "resource": {
        "resourceType": "Observation",
        "id": "d73b03cc-047f-4aac-be8e-1f8fa1836aa3",
        "meta": {
          "profile": [
            "http://hl7.eu/fhir/laboratory/StructureDefinition/Observation-resultslab-eu-lab"
          ]
        },
        "performer": [
          {
            "display": "The Central European Lab"
          }
        ],
        "category": [
          {
            "coding": [
              {
                "system": "http://terminology.hl7.org/CodeSystem/observation-category",
                "code": "laboratory"
              }
            ]
          }
        ],
        "code": {
          "coding": [
            {
              "code": "17861-6",
              "system": "http://loinc.org",
              "display": "Calcium [Mass/volume] in Serum or Plasma"
            }
          ],
          "text": "Calcium [Mass/volume] in Serum or Plasma"
        },
        "valueQuantity": {
          "system": "http://unitsofmeasure.org",
          "value": 9.5,
          "unit": "mg/dL",
          "code": "mg/dL"
        },
        "referenceRange": [
          {
            "low": {
              "value": 8.5,
              "code": "mg/dL",
              "system": "http://unitsofmeasure.org"
            }
          },
          {
            "high": {
              "value": 10.4,
              "code": "mg/dL",
              "system": "http://unitsofmeasure.org"
            }
          }
        ],
        "text": {
          "status": "generated",
          "div": "<div xmlns=\"http://www.w3.org/1999/xhtml\"><table class=\"hl7__eu__lab__report\"><tr><th>Test</th><th>15-Apr-2025</th><th>Reference&#xA0;Range</th><th>Unit</th></tr><tr><td>Calcium [Mass/volume] in Serum or Plasma</td><td>9.5</td><td>8.5 - 10.4</td><td></td><td>mg/dL</td></tr></table></div>"
        },
        "status": "final",
        "subject": {
          "reference": "urn:uuid:aef48ed6-e5df-4853-9e26-95b7f24d36a6",
          "display": "Hortense Gallet"
        },
        "effectiveDateTime": "2025-04-15T20:16:45Z"
      }
    },
    {
      "fullUrl": "urn:uuid:30929a67-5051-48cc-b6fd-95b80df3d082",
      "resource": {
        "resourceType": "Observation",
        "id": "30929a67-5051-48cc-b6fd-95b80df3d082",
        "meta": {
          "profile": [
            "http://hl7.eu/fhir/laboratory/StructureDefinition/Observation-resultslab-eu-lab"
          ]
        },
        "performer": [
          {
            "display": "The Central European Lab"
          }
        ],
        "category": [
          {
            "coding": [
              {
                "system": "http://terminology.hl7.org/CodeSystem/observation-category",
                "code": "laboratory"
              }
            ]
          }
        ],
        "code": {
          "coding": [
            {
              "code": "2951-2",
              "system": "http://loinc.org",
              "display": "Sodium [Moles/volume] in Serum or Plasma"
            }
          ],
          "text": "Sodium [Moles/volume] in Serum or Plasma"
        },
        "valueQuantity": {
          "system": "http://unitsofmeasure.org",
          "value": 138.4,
          "unit": "mmol/L",
          "code": "mmol/L"
        },
        "referenceRange": [
          {
            "low": {
              "value": 135,
              "code": "mmol/L",
              "system": "http://unitsofmeasure.org"
            }
          },
          {
            "high": {
              "value": 145,
              "code": "mmol/L",
              "system": "http://unitsofmeasure.org"
            }
          }
        ],
        "text": {
          "status": "generated",
          "div": "<div xmlns=\"http://www.w3.org/1999/xhtml\"><table class=\"hl7__eu__lab__report\"><tr><th>Test</th><th>15-Apr-2025</th><th>Reference&#xA0;Range</th><th>Unit</th></tr><tr><td>Sodium [Moles/volume] in Serum or Plasma</td><td>138.4</td><td>135 - 145</td><td></td><td>mmol/L</td></tr></table></div>"
        },
        "status": "final",
        "subject": {
          "reference": "urn:uuid:aef48ed6-e5df-4853-9e26-95b7f24d36a6",
          "display": "Hortense Gallet"
        },
        "effectiveDateTime": "2025-04-15T20:16:45Z"
      }
    },
    {
      "fullUrl": "urn:uuid:977417e8-5065-4ee2-9703-2a70e1da5105",
      "resource": {
        "resourceType": "Observation",
        "id": "977417e8-5065-4ee2-9703-2a70e1da5105",
        "meta": {
          "profile": [
            "http://hl7.eu/fhir/laboratory/StructureDefinition/Observation-resultslab-eu-lab"
          ]
        },
        "performer": [
          {
            "display": "The Central European Lab"
          }
        ],
        "category": [
          {
            "coding": [
              {
                "system": "http://terminology.hl7.org/CodeSystem/observation-category",
                "code": "laboratory"
              }
            ]
          }
        ],
        "code": {
          "coding": [
            {
              "code": "2823-3",
              "system": "http://loinc.org",
              "display": "Potassium [Moles/volume] in Serum or Plasma"
            }
          ],
          "text": "Potassium [Moles/volume] in Serum or Plasma"
        },
        "valueQuantity": {
          "system": "http://unitsofmeasure.org",
          "value": 4.3,
          "unit": "mmol/L",
          "code": "mmol/L"
        },
        "referenceRange": [
          {
            "low": {
              "value": 3.5,
              "code": "mmol/L",
              "system": "http://unitsofmeasure.org"
            }
          },
          {
            "high": {
              "value": 5.1,
              "code": "mmol/L",
              "system": "http://unitsofmeasure.org"
            }
          }
        ],
        "text": {
          "status": "generated",
          "div": "<div xmlns=\"http://www.w3.org/1999/xhtml\"><table class=\"hl7__eu__lab__report\"><tr><th>Test</th><th>15-Apr-2025</th><th>Reference&#xA0;Range</th><th>Unit</th></tr><tr><td>Potassium [Moles/volume] in Serum or Plasma</td><td>4.3</td><td>3.5 - 5.1</td><td></td><td>mmol/L</td></tr></table></div>"
        },
        "status": "final",
        "subject": {
          "reference": "urn:uuid:aef48ed6-e5df-4853-9e26-95b7f24d36a6",
          "display": "Hortense Gallet"
        },
        "effectiveDateTime": "2025-04-15T20:16:45Z"
      }
    },
    {
      "fullUrl": "urn:uuid:8b1468ff-9bc4-4473-a215-4d7199259525",
      "resource": {
        "resourceType": "Observation",
        "id": "8b1468ff-9bc4-4473-a215-4d7199259525",
        "meta": {
          "profile": [
            "http://hl7.eu/fhir/laboratory/StructureDefinition/Observation-resultslab-eu-lab"
          ]
        },
        "performer": [
          {
            "display": "The Central European Lab"
          }
        ],
        "category": [
          {
            "coding": [
              {
                "system": "http://terminology.hl7.org/CodeSystem/observation-category",
                "code": "laboratory"
              }
            ]
          }
        ],
        "code": {
          "coding": [
            {
              "code": "2075-0",
              "system": "http://loinc.org",
              "display": "Chloride [Moles/volume] in Serum or Plasma"
            }
          ],
          "text": "Chloride [Moles/volume] in Serum or Plasma"
        },
        "valueQuantity": {
          "system": "http://unitsofmeasure.org",
          "value": 101.8,
          "unit": "mmol/L",
          "code": "mmol/L"
        },
        "referenceRange": [
          {
            "low": {
              "value": 98,
              "code": "mmol/L",
              "system": "http://unitsofmeasure.org"
            }
          },
          {
            "high": {
              "value": 110,
              "code": "mmol/L",
              "system": "http://unitsofmeasure.org"
            }
          }
        ],
        "text": {
          "status": "generated",
          "div": "<div xmlns=\"http://www.w3.org/1999/xhtml\"><table class=\"hl7__eu__lab__report\"><tr><th>Test</th><th>15-Apr-2025</th><th>Reference&#xA0;Range</th><th>Unit</th></tr><tr><td>Chloride [Moles/volume] in Serum or Plasma</td><td>101.8</td><td>98 - 110</td><td></td><td>mmol/L</td></tr></table></div>"
        },
        "status": "final",
        "subject": {
          "reference": "urn:uuid:aef48ed6-e5df-4853-9e26-95b7f24d36a6",
          "display": "Hortense Gallet"
        },
        "effectiveDateTime": "2025-04-15T20:16:45Z"
      }
    },
    {
      "fullUrl": "urn:uuid:6d3645d3-9260-4a27-ab76-4df862fdb1fa",
      "resource": {
        "resourceType": "Observation",
        "id": "6d3645d3-9260-4a27-ab76-4df862fdb1fa",
        "meta": {
          "profile": [
            "http://hl7.eu/fhir/laboratory/StructureDefinition/Observation-resultslab-eu-lab"
          ]
        },
        "performer": [
          {
            "display": "The Central European Lab"
          }
        ],
        "category": [
          {
            "coding": [
              {
                "system": "http://terminology.hl7.org/CodeSystem/observation-category",
                "code": "laboratory"
              }
            ]
          }
        ],
        "code": {
          "coding": [
            {
              "code": "2028-9",
              "system": "http://loinc.org",
              "display": "Carbon dioxide, total [Moles/volume] in Serum or Plasma"
            }
          ],
          "text": "Carbon dioxide, total [Moles/volume] in Serum or Plasma"
        },
        "valueQuantity": {
          "system": "http://unitsofmeasure.org",
          "value": 22.7,
          "unit": "mmol/L",
          "code": "mmol/L"
        },
        "referenceRange": [
          {
            "low": {
              "value": 22,
              "code": "mmol/L",
              "system": "http://unitsofmeasure.org"
            }
          },
          {
            "high": {
              "value": 32,
              "code": "mmol/L",
              "system": "http://unitsofmeasure.org"
            }
          }
        ],
        "text": {
          "status": "generated",
          "div": "<div xmlns=\"http://www.w3.org/1999/xhtml\"><table class=\"hl7__eu__lab__report\"><tr><th>Test</th><th>15-Apr-2025</th><th>Reference&#xA0;Range</th><th>Unit</th></tr><tr><td>Carbon dioxide, total [Moles/volume] in Serum or Plasma</td><td>22.7</td><td>22 - 32</td><td></td><td>mmol/L</td></tr></table></div>"
        },
        "status": "final",
        "subject": {
          "reference": "urn:uuid:aef48ed6-e5df-4853-9e26-95b7f24d36a6",
          "display": "Hortense Gallet"
        },
        "effectiveDateTime": "2025-04-15T20:16:45Z"
      }
    },
    {
      "fullUrl": "urn:uuid:75c85c30-eb1c-4918-9932-0751e4a26656",
      "resource": {
        "resourceType": "Observation",
        "id": "75c85c30-eb1c-4918-9932-0751e4a26656",
        "meta": {
          "profile": [
            "http://hl7.eu/fhir/laboratory/StructureDefinition/Observation-resultslab-eu-lab"
          ]
        },
        "performer": [
          {
            "display": "The Central European Lab"
          }
        ],
        "category": [
          {
            "coding": [
              {
                "system": "http://terminology.hl7.org/CodeSystem/observation-category",
                "code": "laboratory"
              }
            ]
          }
        ],
        "code": {
          "coding": [
            {
              "code": "5767-9",
              "system": "http://loinc.org",
              "display": "Appearance of Urine"
            }
          ],
          "text": "Appearance of Urine"
        },
        "text": {
          "status": "generated",
          "div": "<div xmlns=\"http://www.w3.org/1999/xhtml\"><table class=\"hl7__eu__lab__report\"><tr><th>Test</th><th>15-Apr-2025</th><th>Reference&#xA0;Range</th><th>Unit</th></tr><tr><td>Appearance of Urine</td></tr></table></div>"
        },
        "status": "final",
        "subject": {
          "reference": "urn:uuid:aef48ed6-e5df-4853-9e26-95b7f24d36a6",
          "display": "Hortense Gallet"
        },
        "effectiveDateTime": "2025-04-15T20:16:45Z"
      }
    },
    {
      "fullUrl": "urn:uuid:55a05323-7cdc-4c81-9a8f-42426c46a988",
      "resource": {
        "resourceType": "Observation",
        "id": "55a05323-7cdc-4c81-9a8f-42426c46a988",
        "meta": {
          "profile": [
            "http://hl7.eu/fhir/laboratory/StructureDefinition/Observation-resultslab-eu-lab"
          ]
        },
        "performer": [
          {
            "display": "The Central European Lab"
          }
        ],
        "category": [
          {
            "coding": [
              {
                "system": "http://terminology.hl7.org/CodeSystem/observation-category",
                "code": "laboratory"
              }
            ]
          }
        ],
        "code": {
          "coding": [
            {
              "code": "34533-0",
              "system": "http://loinc.org",
              "display": "Odor of Urine"
            }
          ],
          "text": "Odor of Urine"
        },
        "text": {
          "status": "generated",
          "div": "<div xmlns=\"http://www.w3.org/1999/xhtml\"><table class=\"hl7__eu__lab__report\"><tr><th>Test</th><th>15-Apr-2025</th><th>Reference&#xA0;Range</th><th>Unit</th></tr><tr><td>Odor of Urine</td></tr></table></div>"
        },
        "status": "final",
        "subject": {
          "reference": "urn:uuid:aef48ed6-e5df-4853-9e26-95b7f24d36a6",
          "display": "Hortense Gallet"
        },
        "effectiveDateTime": "2025-04-15T20:16:45Z"
      }
    },
    {
      "fullUrl": "urn:uuid:a95c25d1-f158-4c58-9fc6-52e19f8e8e9c",
      "resource": {
        "resourceType": "Observation",
        "id": "a95c25d1-f158-4c58-9fc6-52e19f8e8e9c",
        "meta": {
          "profile": [
            "http://hl7.eu/fhir/laboratory/StructureDefinition/Observation-resultslab-eu-lab"
          ]
        },
        "performer": [
          {
            "display": "The Central European Lab"
          }
        ],
        "category": [
          {
            "coding": [
              {
                "system": "http://terminology.hl7.org/CodeSystem/observation-category",
                "code": "laboratory"
              }
            ]
          }
        ],
        "code": {
          "coding": [
            {
              "code": "32167-9",
              "system": "http://loinc.org",
              "display": "Clarity of Urine"
            }
          ],
          "text": "Clarity of Urine"
        },
        "text": {
          "status": "generated",
          "div": "<div xmlns=\"http://www.w3.org/1999/xhtml\"><table class=\"hl7__eu__lab__report\"><tr><th>Test</th><th>15-Apr-2025</th><th>Reference&#xA0;Range</th><th>Unit</th></tr><tr><td>Clarity of Urine</td></tr></table></div>"
        },
        "status": "final",
        "subject": {
          "reference": "urn:uuid:aef48ed6-e5df-4853-9e26-95b7f24d36a6",
          "display": "Hortense Gallet"
        },
        "effectiveDateTime": "2025-04-15T20:16:45Z"
      }
    },
    {
      "fullUrl": "urn:uuid:7c29ff29-e14d-4b4a-8b78-45cdbd2eca69",
      "resource": {
        "resourceType": "Observation",
        "id": "7c29ff29-e14d-4b4a-8b78-45cdbd2eca69",
        "meta": {
          "profile": [
            "http://hl7.eu/fhir/laboratory/StructureDefinition/Observation-resultslab-eu-lab"
          ]
        },
        "performer": [
          {
            "display": "The Central European Lab"
          }
        ],
        "category": [
          {
            "coding": [
              {
                "system": "http://terminology.hl7.org/CodeSystem/observation-category",
                "code": "laboratory"
              }
            ]
          }
        ],
        "code": {
          "coding": [
            {
              "code": "5778-6",
              "system": "http://loinc.org",
              "display": "Color of Urine"
            }
          ],
          "text": "Color of Urine"
        },
        "text": {
          "status": "generated",
          "div": "<div xmlns=\"http://www.w3.org/1999/xhtml\"><table class=\"hl7__eu__lab__report\"><tr><th>Test</th><th>15-Apr-2025</th><th>Reference&#xA0;Range</th><th>Unit</th></tr><tr><td>Color of Urine</td></tr></table></div>"
        },
        "status": "final",
        "subject": {
          "reference": "urn:uuid:aef48ed6-e5df-4853-9e26-95b7f24d36a6",
          "display": "Hortense Gallet"
        },
        "effectiveDateTime": "2025-04-15T20:16:45Z"
      }
    },
    {
      "fullUrl": "urn:uuid:0438fa15-eb50-42b2-875b-4098af4016df",
      "resource": {
        "resourceType": "Observation",
        "id": "0438fa15-eb50-42b2-875b-4098af4016df",
        "meta": {
          "profile": [
            "http://hl7.eu/fhir/laboratory/StructureDefinition/Observation-resultslab-eu-lab"
          ]
        },
        "performer": [
          {
            "display": "The Central European Lab"
          }
        ],
        "category": [
          {
            "coding": [
              {
                "system": "http://terminology.hl7.org/CodeSystem/observation-category",
                "code": "laboratory"
              }
            ]
          }
        ],
        "code": {
          "coding": [
            {
              "code": "5792-7",
              "system": "http://loinc.org",
              "display": "Glucose [Mass/volume] in Urine by Test strip"
            }
          ],
          "text": "Glucose [Mass/volume] in Urine by Test strip"
        },
        "valueQuantity": {
          "system": "http://unitsofmeasure.org",
          "value": 2.4,
          "unit": "mg/dL",
          "code": "mg/dL"
        },
        "referenceRange": [
          {
            "low": {
              "value": 0,
              "code": "mg/dL",
              "system": "http://unitsofmeasure.org"
            }
          },
          {
            "high": {
              "value": 0,
              "code": "mg/dL",
              "system": "http://unitsofmeasure.org"
            }
          }
        ],
        "interpretation": [
          {
            "coding": [
              {
                "code": "H",
                "system": "http://terminology.hl7.org/CodeSystem/v3-ObservationInterpretation",
                "display": "High"
              }
            ]
          }
        ],
        "text": {
          "status": "generated",
          "div": "<div xmlns=\"http://www.w3.org/1999/xhtml\"><table class=\"hl7__eu__lab__report\"><tr><th>Test</th><th>15-Apr-2025</th><th>Reference&#xA0;Range</th><th>Unit</th></tr><tr><td>Glucose [Mass/volume] in Urine by Test strip</td><td>2.4</td><td>0 - 0</td><td>H</td><td>mg/dL</td></tr></table></div>"
        },
        "status": "final",
        "subject": {
          "reference": "urn:uuid:aef48ed6-e5df-4853-9e26-95b7f24d36a6",
          "display": "Hortense Gallet"
        },
        "effectiveDateTime": "2025-04-15T20:16:45Z"
      }
    },
    {
      "fullUrl": "urn:uuid:5d085c77-23e9-47da-b70a-0644b1ab9bc5",
      "resource": {
        "resourceType": "Observation",
        "id": "5d085c77-23e9-47da-b70a-0644b1ab9bc5",
        "meta": {
          "profile": [
            "http://hl7.eu/fhir/laboratory/StructureDefinition/Observation-resultslab-eu-lab"
          ]
        },
        "performer": [
          {
            "display": "The Central European Lab"
          }
        ],
        "category": [
          {
            "coding": [
              {
                "system": "http://terminology.hl7.org/CodeSystem/observation-category",
                "code": "laboratory"
              }
            ]
          }
        ],
        "code": {
          "coding": [
            {
              "code": "25428-4",
              "system": "http://loinc.org",
              "display": "Glucose [Presence] in Urine by Test strip"
            }
          ],
          "text": "Glucose [Presence] in Urine by Test strip"
        },
        "text": {
          "status": "generated",
          "div": "<div xmlns=\"http://www.w3.org/1999/xhtml\"><table class=\"hl7__eu__lab__report\"><tr><th>Test</th><th>15-Apr-2025</th><th>Reference&#xA0;Range</th><th>Unit</th></tr><tr><td>Glucose [Presence] in Urine by Test strip</td></tr></table></div>"
        },
        "status": "final",
        "subject": {
          "reference": "urn:uuid:aef48ed6-e5df-4853-9e26-95b7f24d36a6",
          "display": "Hortense Gallet"
        },
        "effectiveDateTime": "2025-04-15T20:16:45Z"
      }
    },
    {
      "fullUrl": "urn:uuid:ae972cdb-34c9-4d01-9c6f-5645266f610f",
      "resource": {
        "resourceType": "Observation",
        "id": "ae972cdb-34c9-4d01-9c6f-5645266f610f",
        "meta": {
          "profile": [
            "http://hl7.eu/fhir/laboratory/StructureDefinition/Observation-resultslab-eu-lab"
          ]
        },
        "performer": [
          {
            "display": "The Central European Lab"
          }
        ],
        "category": [
          {
            "coding": [
              {
                "system": "http://terminology.hl7.org/CodeSystem/observation-category",
                "code": "laboratory"
              }
            ]
          }
        ],
        "code": {
          "coding": [
            {
              "code": "20505-4",
              "system": "http://loinc.org",
              "display": "Bilirubin.total [Mass/volume] in Urine by Test strip"
            }
          ],
          "text": "Bilirubin.total [Mass/volume] in Urine by Test strip"
        },
        "valueQuantity": {
          "system": "http://unitsofmeasure.org",
          "value": 1.4,
          "unit": "mg/dL",
          "code": "mg/dL"
        },
        "referenceRange": [
          {
            "low": {
              "value": 0,
              "code": "mg/dL",
              "system": "http://unitsofmeasure.org"
            }
          },
          {
            "high": {
              "value": 1.6,
              "code": "mg/dL",
              "system": "http://unitsofmeasure.org"
            }
          }
        ],
        "text": {
          "status": "generated",
          "div": "<div xmlns=\"http://www.w3.org/1999/xhtml\"><table class=\"hl7__eu__lab__report\"><tr><th>Test</th><th>15-Apr-2025</th><th>Reference&#xA0;Range</th><th>Unit</th></tr><tr><td>Bilirubin.total [Mass/volume] in Urine by Test strip</td><td>1.4</td><td>0 - 1.6</td><td></td><td>mg/dL</td></tr></table></div>"
        },
        "status": "final",
        "subject": {
          "reference": "urn:uuid:aef48ed6-e5df-4853-9e26-95b7f24d36a6",
          "display": "Hortense Gallet"
        },
        "effectiveDateTime": "2025-04-15T20:16:45Z"
      }
    },
    {
      "fullUrl": "urn:uuid:d2eeaa58-6bb9-4504-bf24-54e54c27333c",
      "resource": {
        "resourceType": "Observation",
        "id": "d2eeaa58-6bb9-4504-bf24-54e54c27333c",
        "meta": {
          "profile": [
            "http://hl7.eu/fhir/laboratory/StructureDefinition/Observation-resultslab-eu-lab"
          ]
        },
        "performer": [
          {
            "display": "The Central European Lab"
          }
        ],
        "category": [
          {
            "coding": [
              {
                "system": "http://terminology.hl7.org/CodeSystem/observation-category",
                "code": "laboratory"
              }
            ]
          }
        ],
        "code": {
          "coding": [
            {
              "code": "5770-3",
              "system": "http://loinc.org",
              "display": "Bilirubin.total [Presence] in Urine by Test strip"
            }
          ],
          "text": "Bilirubin.total [Presence] in Urine by Test strip"
        },
        "text": {
          "status": "generated",
          "div": "<div xmlns=\"http://www.w3.org/1999/xhtml\"><table class=\"hl7__eu__lab__report\"><tr><th>Test</th><th>15-Apr-2025</th><th>Reference&#xA0;Range</th><th>Unit</th></tr><tr><td>Bilirubin.total [Presence] in Urine by Test strip</td></tr></table></div>"
        },
        "status": "final",
        "subject": {
          "reference": "urn:uuid:aef48ed6-e5df-4853-9e26-95b7f24d36a6",
          "display": "Hortense Gallet"
        },
        "effectiveDateTime": "2025-04-15T20:16:45Z"
      }
    },
    {
      "fullUrl": "urn:uuid:82c0f81e-f320-4851-ab5c-5224693d9d44",
      "resource": {
        "resourceType": "Observation",
        "id": "82c0f81e-f320-4851-ab5c-5224693d9d44",
        "meta": {
          "profile": [
            "http://hl7.eu/fhir/laboratory/StructureDefinition/Observation-resultslab-eu-lab"
          ]
        },
        "performer": [
          {
            "display": "The Central European Lab"
          }
        ],
        "category": [
          {
            "coding": [
              {
                "system": "http://terminology.hl7.org/CodeSystem/observation-category",
                "code": "laboratory"
              }
            ]
          }
        ],
        "code": {
          "coding": [
            {
              "code": "5797-6",
              "system": "http://loinc.org",
              "display": "Ketones [Mass/volume] in Urine by Test strip"
            }
          ],
          "text": "Ketones [Mass/volume] in Urine by Test strip"
        },
        "valueQuantity": {
          "system": "http://unitsofmeasure.org",
          "value": 14.2,
          "unit": "mg/dL",
          "code": "mg/dL"
        },
        "referenceRange": [
          {
            "low": {
              "value": 0,
              "code": "mg/dL",
              "system": "http://unitsofmeasure.org"
            }
          },
          {
            "high": {
              "value": 0.5,
              "code": "mg/dL",
              "system": "http://unitsofmeasure.org"
            }
          }
        ],
        "interpretation": [
          {
            "coding": [
              {
                "code": "H",
                "system": "http://terminology.hl7.org/CodeSystem/v3-ObservationInterpretation",
                "display": "High"
              }
            ]
          }
        ],
        "text": {
          "status": "generated",
          "div": "<div xmlns=\"http://www.w3.org/1999/xhtml\"><table class=\"hl7__eu__lab__report\"><tr><th>Test</th><th>15-Apr-2025</th><th>Reference&#xA0;Range</th><th>Unit</th></tr><tr><td>Ketones [Mass/volume] in Urine by Test strip</td><td>14.2</td><td>0 - 0.5</td><td>H</td><td>mg/dL</td></tr></table></div>"
        },
        "status": "final",
        "subject": {
          "reference": "urn:uuid:aef48ed6-e5df-4853-9e26-95b7f24d36a6",
          "display": "Hortense Gallet"
        },
        "effectiveDateTime": "2025-04-15T20:16:45Z"
      }
    },
    {
      "fullUrl": "urn:uuid:0dfc2bd3-b6bb-429d-a108-1d49fc812e42",
      "resource": {
        "resourceType": "Observation",
        "id": "0dfc2bd3-b6bb-429d-a108-1d49fc812e42",
        "meta": {
          "profile": [
            "http://hl7.eu/fhir/laboratory/StructureDefinition/Observation-resultslab-eu-lab"
          ]
        },
        "performer": [
          {
            "display": "The Central European Lab"
          }
        ],
        "category": [
          {
            "coding": [
              {
                "system": "http://terminology.hl7.org/CodeSystem/observation-category",
                "code": "laboratory"
              }
            ]
          }
        ],
        "code": {
          "coding": [
            {
              "code": "2514-8",
              "system": "http://loinc.org",
              "display": "Ketones [Presence] in Urine by Test strip"
            }
          ],
          "text": "Ketones [Presence] in Urine by Test strip"
        },
        "text": {
          "status": "generated",
          "div": "<div xmlns=\"http://www.w3.org/1999/xhtml\"><table class=\"hl7__eu__lab__report\"><tr><th>Test</th><th>15-Apr-2025</th><th>Reference&#xA0;Range</th><th>Unit</th></tr><tr><td>Ketones [Presence] in Urine by Test strip</td></tr></table></div>"
        },
        "status": "final",
        "subject": {
          "reference": "urn:uuid:aef48ed6-e5df-4853-9e26-95b7f24d36a6",
          "display": "Hortense Gallet"
        },
        "effectiveDateTime": "2025-04-15T20:16:45Z"
      }
    },
    {
      "fullUrl": "urn:uuid:72ee7d6c-86be-4614-954d-c513ecc8690a",
      "resource": {
        "resourceType": "Observation",
        "id": "72ee7d6c-86be-4614-954d-c513ecc8690a",
        "meta": {
          "profile": [
            "http://hl7.eu/fhir/laboratory/StructureDefinition/Observation-resultslab-eu-lab"
          ]
        },
        "performer": [
          {
            "display": "The Central European Lab"
          }
        ],
        "category": [
          {
            "coding": [
              {
                "system": "http://terminology.hl7.org/CodeSystem/observation-category",
                "code": "laboratory"
              }
            ]
          }
        ],
        "code": {
          "coding": [
            {
              "code": "5811-5",
              "system": "http://loinc.org",
              "display": "Specific gravity of Urine by Test strip"
            }
          ],
          "text": "Specific gravity of Urine by Test strip"
        },
        "valueQuantity": {
          "system": "http://unitsofmeasure.org",
          "value": 1,
          "unit": "{nominal}",
          "code": "{nominal}"
        },
        "referenceRange": [
          {
            "low": {
              "value": 1.005,
              "code": "g/mL",
              "system": "http://unitsofmeasure.org"
            }
          },
          {
            "high": {
              "value": 1.03,
              "code": "g/mL",
              "system": "http://unitsofmeasure.org"
            }
          }
        ],
        "interpretation": [
          {
            "coding": [
              {
                "code": "L",
                "system": "http://terminology.hl7.org/CodeSystem/v3-ObservationInterpretation",
                "display": "Low"
              }
            ]
          }
        ],
        "text": {
          "status": "generated",
          "div": "<div xmlns=\"http://www.w3.org/1999/xhtml\"><table class=\"hl7__eu__lab__report\"><tr><th>Test</th><th>15-Apr-2025</th><th>Reference&#xA0;Range</th><th>Unit</th></tr><tr><td>Specific gravity of Urine by Test strip</td><td>1.0</td><td>1.005 - 1.03</td><td>L</td><td>{nominal}</td></tr></table></div>"
        },
        "status": "final",
        "subject": {
          "reference": "urn:uuid:aef48ed6-e5df-4853-9e26-95b7f24d36a6",
          "display": "Hortense Gallet"
        },
        "effectiveDateTime": "2025-04-15T20:16:45Z"
      }
    },
    {
      "fullUrl": "urn:uuid:13cca999-2010-4fdf-8f19-d8edbc1e00cf",
      "resource": {
        "resourceType": "Observation",
        "id": "13cca999-2010-4fdf-8f19-d8edbc1e00cf",
        "meta": {
          "profile": [
            "http://hl7.eu/fhir/laboratory/StructureDefinition/Observation-resultslab-eu-lab"
          ]
        },
        "performer": [
          {
            "display": "The Central European Lab"
          }
        ],
        "category": [
          {
            "coding": [
              {
                "system": "http://terminology.hl7.org/CodeSystem/observation-category",
                "code": "laboratory"
              }
            ]
          }
        ],
        "code": {
          "coding": [
            {
              "code": "5803-2",
              "system": "http://loinc.org",
              "display": "pH of Urine by Test strip"
            }
          ],
          "text": "pH of Urine by Test strip"
        },
        "valueQuantity": {
          "system": "http://unitsofmeasure.org",
          "value": 6.7,
          "unit": "pH",
          "code": "pH"
        },
        "referenceRange": [
          {
            "low": {
              "value": 4.5,
              "code": "pH",
              "system": "http://unitsofmeasure.org"
            }
          },
          {
            "high": {
              "value": 7.5,
              "code": "pH",
              "system": "http://unitsofmeasure.org"
            }
          }
        ],
        "text": {
          "status": "generated",
          "div": "<div xmlns=\"http://www.w3.org/1999/xhtml\"><table class=\"hl7__eu__lab__report\"><tr><th>Test</th><th>15-Apr-2025</th><th>Reference&#xA0;Range</th><th>Unit</th></tr><tr><td>pH of Urine by Test strip</td><td>6.7</td><td>4.5 - 7.5</td><td></td><td>pH</td></tr></table></div>"
        },
        "status": "final",
        "subject": {
          "reference": "urn:uuid:aef48ed6-e5df-4853-9e26-95b7f24d36a6",
          "display": "Hortense Gallet"
        },
        "effectiveDateTime": "2025-04-15T20:16:45Z"
      }
    },
    {
      "fullUrl": "urn:uuid:b3686e8b-de94-45bb-b27a-f8c93bb4e25d",
      "resource": {
        "resourceType": "Observation",
        "id": "b3686e8b-de94-45bb-b27a-f8c93bb4e25d",
        "meta": {
          "profile": [
            "http://hl7.eu/fhir/laboratory/StructureDefinition/Observation-resultslab-eu-lab"
          ]
        },
        "performer": [
          {
            "display": "The Central European Lab"
          }
        ],
        "category": [
          {
            "coding": [
              {
                "system": "http://terminology.hl7.org/CodeSystem/observation-category",
                "code": "laboratory"
              }
            ]
          }
        ],
        "code": {
          "coding": [
            {
              "code": "5804-0",
              "system": "http://loinc.org",
              "display": "Protein [Mass/volume] in Urine by Test strip"
            }
          ],
          "text": "Protein [Mass/volume] in Urine by Test strip"
        },
        "valueQuantity": {
          "system": "http://unitsofmeasure.org",
          "value": 169,
          "unit": "mg/dL",
          "code": "mg/dL"
        },
        "referenceRange": [
          {
            "low": {
              "value": 0,
              "code": "mg/dL",
              "system": "http://unitsofmeasure.org"
            }
          },
          {
            "high": {
              "value": 15,
              "code": "mg/dL",
              "system": "http://unitsofmeasure.org"
            }
          }
        ],
        "interpretation": [
          {
            "coding": [
              {
                "code": "H",
                "system": "http://terminology.hl7.org/CodeSystem/v3-ObservationInterpretation",
                "display": "High"
              }
            ]
          }
        ],
        "text": {
          "status": "generated",
          "div": "<div xmlns=\"http://www.w3.org/1999/xhtml\"><table class=\"hl7__eu__lab__report\"><tr><th>Test</th><th>15-Apr-2025</th><th>Reference&#xA0;Range</th><th>Unit</th></tr><tr><td>Protein [Mass/volume] in Urine by Test strip</td><td>169.0</td><td>0 - 15</td><td>H</td><td>mg/dL</td></tr></table></div>"
        },
        "status": "final",
        "subject": {
          "reference": "urn:uuid:aef48ed6-e5df-4853-9e26-95b7f24d36a6",
          "display": "Hortense Gallet"
        },
        "effectiveDateTime": "2025-04-15T20:16:45Z"
      }
    },
    {
      "fullUrl": "urn:uuid:fe28acfc-b007-49f1-be98-543b713e65b1",
      "resource": {
        "resourceType": "Observation",
        "id": "fe28acfc-b007-49f1-be98-543b713e65b1",
        "meta": {
          "profile": [
            "http://hl7.eu/fhir/laboratory/StructureDefinition/Observation-resultslab-eu-lab"
          ]
        },
        "performer": [
          {
            "display": "The Central European Lab"
          }
        ],
        "category": [
          {
            "coding": [
              {
                "system": "http://terminology.hl7.org/CodeSystem/observation-category",
                "code": "laboratory"
              }
            ]
          }
        ],
        "code": {
          "coding": [
            {
              "code": "20454-5",
              "system": "http://loinc.org",
              "display": "Protein [Presence] in Urine by Test strip"
            }
          ],
          "text": "Protein [Presence] in Urine by Test strip"
        },
        "text": {
          "status": "generated",
          "div": "<div xmlns=\"http://www.w3.org/1999/xhtml\"><table class=\"hl7__eu__lab__report\"><tr><th>Test</th><th>15-Apr-2025</th><th>Reference&#xA0;Range</th><th>Unit</th></tr><tr><td>Protein [Presence] in Urine by Test strip</td></tr></table></div>"
        },
        "status": "final",
        "subject": {
          "reference": "urn:uuid:aef48ed6-e5df-4853-9e26-95b7f24d36a6",
          "display": "Hortense Gallet"
        },
        "effectiveDateTime": "2025-04-15T20:16:45Z"
      }
    },
    {
      "fullUrl": "urn:uuid:d9698c9d-3e90-4644-a6d7-fc883ea3ddf6",
      "resource": {
        "resourceType": "Observation",
        "id": "d9698c9d-3e90-4644-a6d7-fc883ea3ddf6",
        "meta": {
          "profile": [
            "http://hl7.eu/fhir/laboratory/StructureDefinition/Observation-resultslab-eu-lab"
          ]
        },
        "performer": [
          {
            "display": "The Central European Lab"
          }
        ],
        "category": [
          {
            "coding": [
              {
                "system": "http://terminology.hl7.org/CodeSystem/observation-category",
                "code": "laboratory"
              }
            ]
          }
        ],
        "code": {
          "coding": [
            {
              "code": "5802-4",
              "system": "http://loinc.org",
              "display": "Nitrite [Presence] in Urine by Test strip"
            }
          ],
          "text": "Nitrite [Presence] in Urine by Test strip"
        },
        "text": {
          "status": "generated",
          "div": "<div xmlns=\"http://www.w3.org/1999/xhtml\"><table class=\"hl7__eu__lab__report\"><tr><th>Test</th><th>15-Apr-2025</th><th>Reference&#xA0;Range</th><th>Unit</th></tr><tr><td>Nitrite [Presence] in Urine by Test strip</td></tr></table></div>"
        },
        "status": "final",
        "subject": {
          "reference": "urn:uuid:aef48ed6-e5df-4853-9e26-95b7f24d36a6",
          "display": "Hortense Gallet"
        },
        "effectiveDateTime": "2025-04-15T20:16:45Z"
      }
    },
    {
      "fullUrl": "urn:uuid:75fd57db-23e3-4c3b-b04f-0d810a18d1f6",
      "resource": {
        "resourceType": "Observation",
        "id": "75fd57db-23e3-4c3b-b04f-0d810a18d1f6",
        "meta": {
          "profile": [
            "http://hl7.eu/fhir/laboratory/StructureDefinition/Observation-resultslab-eu-lab"
          ]
        },
        "performer": [
          {
            "display": "The Central European Lab"
          }
        ],
        "category": [
          {
            "coding": [
              {
                "system": "http://terminology.hl7.org/CodeSystem/observation-category",
                "code": "laboratory"
              }
            ]
          }
        ],
        "code": {
          "coding": [
            {
              "code": "5794-3",
              "system": "http://loinc.org",
              "display": "Hemoglobin [Presence] in Urine by Test strip"
            }
          ],
          "text": "Hemoglobin [Presence] in Urine by Test strip"
        },
        "text": {
          "status": "generated",
          "div": "<div xmlns=\"http://www.w3.org/1999/xhtml\"><table class=\"hl7__eu__lab__report\"><tr><th>Test</th><th>15-Apr-2025</th><th>Reference&#xA0;Range</th><th>Unit</th></tr><tr><td>Hemoglobin [Presence] in Urine by Test strip</td></tr></table></div>"
        },
        "status": "final",
        "subject": {
          "reference": "urn:uuid:aef48ed6-e5df-4853-9e26-95b7f24d36a6",
          "display": "Hortense Gallet"
        },
        "effectiveDateTime": "2025-04-15T20:16:45Z"
      }
    },
    {
      "fullUrl": "urn:uuid:a7c5980e-474a-4296-9e1d-5611996dffda",
      "resource": {
        "resourceType": "Observation",
        "id": "a7c5980e-474a-4296-9e1d-5611996dffda",
        "meta": {
          "profile": [
            "http://hl7.eu/fhir/laboratory/StructureDefinition/Observation-resultslab-eu-lab"
          ]
        },
        "performer": [
          {
            "display": "The Central European Lab"
          }
        ],
        "category": [
          {
            "coding": [
              {
                "system": "http://terminology.hl7.org/CodeSystem/observation-category",
                "code": "laboratory"
              }
            ]
          }
        ],
        "code": {
          "coding": [
            {
              "code": "5799-2",
              "system": "http://loinc.org",
              "display": "Leukocyte esterase [Presence] in Urine by Test strip"
            }
          ],
          "text": "Leukocyte esterase [Presence] in Urine by Test strip"
        },
        "text": {
          "status": "generated",
          "div": "<div xmlns=\"http://www.w3.org/1999/xhtml\"><table class=\"hl7__eu__lab__report\"><tr><th>Test</th><th>15-Apr-2025</th><th>Reference&#xA0;Range</th><th>Unit</th></tr><tr><td>Leukocyte esterase [Presence] in Urine by Test strip</td></tr></table></div>"
        },
        "status": "final",
        "subject": {
          "reference": "urn:uuid:aef48ed6-e5df-4853-9e26-95b7f24d36a6",
          "display": "Hortense Gallet"
        },
        "effectiveDateTime": "2025-04-15T20:16:45Z"
      }
    },
    {
      "fullUrl": "urn:uuid:d7353582-8b5a-42cd-afa6-3047d0473069",
      "resource": {
        "resourceType": "Device",
        "id": "d7353582-8b5a-42cd-afa6-3047d0473069",
        "deviceName": [
          {
            "name": "SYNDERAI Synthetic Generator",
            "type": "manufacturer-name"
          }
        ],
        "version": [
          {
            "value": "5.0"
          }
        ],
        "text": {
          "status": "generated",
          "div": "<div xmlns=\"http://www.w3.org/1999/xhtml\">SYNDERAI Synthetic Generator v5.0</div>"
        },
        "status": "active\"",
        "distinctIdentifier": "synderai-generator-50",
        "manufacturer": "SYNDERAI Project"
      }
    },
    {
      "fullUrl": "urn:uuid:71f818d1-15fd-4235-9209-588e7f86e1e9",
      "resource": {
        "resourceType": "Provenance",
        "id": "71f818d1-15fd-4235-9209-588e7f86e1e9",
        "target": [
          {
            "reference": "Patient/aef48ed6-e5df-4853-9e26-95b7f24d36a6"
          },
          {
            "reference": "Bundle/3264a0ef-1259-4ba4-b4e4-67371acddfe9"
          },
          {
            "reference": "Composition/f17d92b9-6f96-42c2-aa40-16ab896fedf5"
          },
          {
            "reference": "PractitionerRole/53f29a0f-472b-49e1-a28f-fc0ef345d368"
          },
          {
            "reference": "Organization/2da84427-44a9-4f5f-9a0e-cc2abe8239cf"
          },
          {
            "reference": "Practitioner/970e8e65-4129-4a2d-a7e5-f361d3155d4d"
          }
        ],
        "activity": {
          "text": "Synthetic Example Data Generation"
        },
        "policy": [
          "https://synderai.net/synderai-synthetic-data-policy"
        ],
        "agent": [
          {
            "type": {
              "text": "author"
            },
            "who": {
              "reference": "Device/d7353582-8b5a-42cd-afa6-3047d0473069"
            }
          }
        ],
        "reason": [
          {
            "text": "Interoperability Testing and Training (non-clinical use)"
          }
        ],
        "text": {
          "status": "generated",
          "div": "<div xmlns=\"http://www.w3.org/1999/xhtml\">Provenance for SYNDERAI Synthetic Example Data Resource</div>"
        },
        "recorded": "2025-04-15T20:16:45Z"
      }
    }
  ],
  "type": "document",
  "timestamp": "2025-04-15T20:16:45Z"
}
