<Bundle xmlns="http://hl7.org/fhir">
   <id value="0831eb9c-d798-437e-bd0c-79864d633419"/>
   <meta>
      <profile value="http://hl7.eu/fhir/eps/StructureDefinition/bundle-eu-eps"/>
   </meta>
   <identifier>
      <system value="urn:oid:2.16.840.1.113883.2.51.999"/>
      <value value="f4daa8aa-60e7-4aaf-8ee3-97c332504dce"/>
      <assigner>
         <display value="HL7 Europe"/>
      </assigner>
   </identifier>
   <type value="document"/>
   <timestamp value="2025-05-05T05:47:02Z"/>
   <entry>
      <fullUrl value="urn:uuid:471cfbda-0358-433c-8ea6-9323959595f2"/>
      <resource>
         <Composition>
            <id value="471cfbda-0358-433c-8ea6-9323959595f2"/>
            <meta>
               <profile value="http://hl7.eu/fhir/eps/StructureDefinition/composition-eu-eps"/>
               <security>
                  <system value="http://terminology.hl7.org/CodeSystem/v3-ActReason"/>
                  <code value="HTEST"/>
               </security>
               <security>
                  <system value="http://terminology.hl7.org/CodeSystem/v3-ActReason"/>
                  <code value="TRAIN"/>
               </security>
               <tag>
                  <system value="https://synderai.net/fhir/CodeSystem/tags"/>
                  <code value="synthetic"/>
                  <display value="SYNDERAI Synthetic data"/>
               </tag>
            </meta>
            <identifier>
               <system value="urn:oid:2.16.840.1.113883.2.51.999"/>
               <value value="1e8b3cb6-fd1d-461e-96f4-05318501c5e2"/>
               <assigner>
                  <display value="HL7 Europe"/>
               </assigner>
            </identifier>
            <status value="final"/>
            <type>
               <coding>
                  <system value="http://loinc.org"/>
                  <code value="60591-5"/>
                  <display value="Patient summary Document"/>
               </coding>
               <text value="Patient summary Document"/>
            </type>
            <subject>
               <reference value="urn:uuid:e51a5d0c-0e99-41cf-aa6f-9c70d3b634f0"/>
               <display value="Eileen Taylor"/>
            </subject>
            <date value="2025-05-05"/>
            <author>
               <reference value="urn:uuid:37998c51-a508-4b6b-9017-1a17d177e970"/>
            </author>
            <title value="European Patient Summary"/>
            <confidentiality value="N"/>
            <custodian>
               <reference value="urn:uuid:b5257e66-df5c-478b-8354-bda0e813b848"/>
            </custodian>
            <section>
               <title value="Problem list"/>
               <code>
                  <coding>
                     <system value="http://loinc.org"/>
                     <code value="11450-4"/>
                     <display value="Problem list - Reported"/>
                  </coding>
               </code>
               <text>
                  <status value="generated"/>
                  <div xmlns="http://www.w3.org/1999/xhtml">
                     <table class="hl7__ips">
                        <tr>
                           <th>Condition</th>
                           <th>Onset Date</th>
                           <th>Status</th>
                        </tr>
                        <tr>
                           <td>Fibromyalgia</td>
                           <td>
                              <span class="nb">05-Feb-2014</span>
                           </td>
                           <td>active</td>
                        </tr>
                        <tr>
                           <td>Osteoarthritis of knee</td>
                           <td>
                              <span class="nb">19-Mar-2008</span>
                           </td>
                           <td>active</td>
                        </tr>
                        <tr>
                           <td>Hyperlipidemia</td>
                           <td>
                              <span class="nb">23-Dec-1996</span>
                           </td>
                           <td>active</td>
                        </tr>
                        <tr>
                           <td>Malignant neoplasm of breast</td>
                           <td>
                              <span class="nb">05-May-1988</span>
                           </td>
                           <td>active</td>
                        </tr>
                        <tr>
                           <td>Recurrent urinary tract infection</td>
                           <td>
                              <span class="nb">14-May-1973</span>
                           </td>
                           <td>active</td>
                        </tr>
                     </table>
                  </div>
               </text>
               <entry>
                  <reference value="urn:uuid:8818cbe5-be76-4c55-b95f-04d8aaa21e14"/>
               </entry>
               <entry>
                  <reference value="urn:uuid:5782ea9d-e914-4766-8ea7-6fff51a71fbc"/>
               </entry>
               <entry>
                  <reference value="urn:uuid:e6403148-dd6d-4de0-886c-1332b7b57604"/>
               </entry>
               <entry>
                  <reference value="urn:uuid:4ee3ae0a-0e1a-4edb-b497-64f8cbc1e9e9"/>
               </entry>
               <entry>
                  <reference value="urn:uuid:4776e2ff-860f-4b93-b90b-be34cc92e798"/>
               </entry>
            </section>
            <section>
               <title value="Medication list"/>
               <code>
                  <coding>
                     <system value="http://loinc.org"/>
                     <code value="10160-0"/>
                     <display value="History of Medication use Narrative"/>
                  </coding>
               </code>
               <text>
                  <status value="generated"/>
                  <div xmlns="http://www.w3.org/1999/xhtml">
                     <table class="hl7__ips">
                        <tr>
                           <th>Medication</th>
                           <th>Since</th>
                           <th>Form</th>
                           <th>Dosage</th>
                           <th>Reason</th>
                        </tr>
                        <tr>
                           <td>Simvastatin 10 mg oral tablet</td>
                           <td>
                              <span class="nb">2025-05-05</span>
                           </td>
                           <td>-</td>
                           <td>1 tablet (10 mg) by mouth once daily</td>
                           <td>Hyperlipidemia</td>
                        </tr>
                        <tr>
                           <td>Naproxen sodium 220 mg oral capsule</td>
                           <td>
                              <span class="nb">2008-03-19</span>
                           </td>
                           <td>-</td>
                           <td>1 capsule (220 mg) by mouth every 12 hours as needed</td>
                           <td>Osteoarthritis of knee</td>
                        </tr>
                     </table>
                  </div>
               </text>
               <entry>
                  <reference value="urn:uuid:ebd47b2e-2e6c-411a-899e-8974146b8e45"/>
               </entry>
               <entry>
                  <reference value="urn:uuid:5239ddff-58ef-4504-b900-9032067b9f06"/>
               </entry>
            </section>
            <section>
               <title value="Immunizations list"/>
               <code>
                  <coding>
                     <system value="http://loinc.org"/>
                     <code value="11369-6"/>
                     <display value="History of Immunization note"/>
                  </coding>
               </code>
               <text>
                  <status value="generated"/>
                  <div xmlns="http://www.w3.org/1999/xhtml">
                     <table class="hl7__ips">
                        <tr>
                           <th>Vaccine</th>
                           <th>Date</th>
                        </tr>
                        <tr>
                           <td>Influenza virus antigen only vaccine product</td>
                           <td>
                              <span class="nb">28-Apr-2025</span>
                           </td>
                        </tr>
                        <tr>
                           <td>SARS-CoV-2 mRNA vaccine</td>
                           <td>
                              <span class="nb">22-Feb-2021</span>
                           </td>
                        </tr>
                        <tr>
                           <td>Clostridium tetani toxoid antigen adsorbed only vaccine product</td>
                           <td>
                              <span class="nb">30-Mar-2020</span>
                           </td>
                        </tr>
                     </table>
                  </div>
               </text>
               <entry>
                  <reference value="urn:uuid:65160444-dbeb-46f2-9c03-f6738c0c0d3e"/>
               </entry>
               <entry>
                  <reference value="urn:uuid:9cd9cb81-1c6b-4a91-824b-b50c2de3663b"/>
               </entry>
               <entry>
                  <reference value="urn:uuid:38e31493-bcd7-449d-bdd8-dd12a17ecdd7"/>
               </entry>
            </section>
            <section>
               <title value="Procedure History list"/>
               <code>
                  <coding>
                     <system value="http://loinc.org"/>
                     <code value="47519-4"/>
                     <display value="History of Procedures Document"/>
                  </coding>
               </code>
               <text>
                  <status value="generated"/>
                  <div xmlns="http://www.w3.org/1999/xhtml">
                     <table class="hl7__ips">
                        <tr>
                           <th>Procedure</th>
                           <th>Date</th>
                           <th>Reason</th>
                        </tr>
                        <tr>
                           <td>Suture open wound</td>
                           <td>
                              <span class="nb">20-Jun-2024</span>
                           </td>
                           <td>Facial laceration</td>
                        </tr>
                        <tr>
                           <td>Injection of tetanus antitoxin</td>
                           <td>
                              <span class="nb">20-Jun-2024</span>
                           </td>
                           <td>Facial laceration</td>
                        </tr>
                        <tr>
                           <td>Patient discharge</td>
                           <td>
                              <span class="nb">17-Dec-2023</span>
                           </td>
                           <td>-</td>
                        </tr>
                        <tr>
                           <td>Hospice care</td>
                           <td>
                              <span class="nb">16-Dec-2023</span>
                           </td>
                           <td>-</td>
                        </tr>
                        <tr>
                           <td>Notifications</td>
                           <td>
                              <span class="nb">04-Dec-2023</span>
                           </td>
                           <td>-</td>
                        </tr>
                        <tr>
                           <td>Certification procedure</td>
                           <td>
                              <span class="nb">04-Dec-2023</span>
                           </td>
                           <td>-</td>
                        </tr>
                        <tr>
                           <td>Initial patient assessment</td>
                           <td>
                              <span class="nb">04-Dec-2023</span>
                           </td>
                           <td>-</td>
                        </tr>
                        <tr>
                           <td>Development of individualized plan of care</td>
                           <td>
                              <span class="nb">04-Dec-2023</span>
                           </td>
                           <td>-</td>
                        </tr>
                     </table>
                  </div>
               </text>
               <entry>
                  <reference value="urn:uuid:31ead8fb-1b70-4f46-959c-1c5080cc7980"/>
               </entry>
               <entry>
                  <reference value="urn:uuid:c41ec52e-cab2-4c26-bdbb-ee3120886746"/>
               </entry>
               <entry>
                  <reference value="urn:uuid:97cbd080-ebbb-4d75-8337-2700736b7889"/>
               </entry>
               <entry>
                  <reference value="urn:uuid:9e99d5d8-ad9b-4624-aefc-7d5a71bc1dda"/>
               </entry>
               <entry>
                  <reference value="urn:uuid:3565e72f-ab1d-43c0-b5f4-a40aabc8d747"/>
               </entry>
               <entry>
                  <reference value="urn:uuid:507c1317-6f40-4ce8-8ddd-93c4a415f493"/>
               </entry>
               <entry>
                  <reference value="urn:uuid:33ee085d-1ae5-4a13-bdc0-1a939000fe8f"/>
               </entry>
               <entry>
                  <reference value="urn:uuid:4324f130-2cf0-4bdc-b005-fe44c9a75de4"/>
               </entry>
            </section>
            <section>
               <title value="Allergies and Intolerances"/>
               <code>
                  <coding>
                     <system value="http://loinc.org"/>
                     <code value="48765-2"/>
                     <display value="Allergies and adverse reactions Document"/>
                  </coding>
               </code>
               <text>
                  <status value="generated"/>
                  <div xmlns="http://www.w3.org/1999/xhtml">
                     <table class="hl7__ips">
                        <tr>
                           <th>Allergy/Intolerance</th>
                           <th>Onset Date</th>
                           <th>Status</th>
                           <th>Type</th>
                           <th>Reaction</th>
                        </tr>
                        <tr>
                           <td/>
                           <td>?</td>
                           <td>active</td>
                           <td>?</td>
                           <td/>
                        </tr>
                     </table>
                  </div>
               </text>
               <entry>
                  <reference value="urn:uuid:ce83c051-0794-4805-bdb3-9d9bc100ec76"/>
               </entry>
            </section>
            <section>
               <title value="Care Plan"/>
               <code>
                  <coding>
                     <system value="http://loinc.org"/>
                     <code value="18776-5"/>
                     <display value="Plan of care note"/>
                  </coding>
               </code>
               <text>
                  <status value="generated"/>
                  <div xmlns="http://www.w3.org/1999/xhtml">
                     <table class="hl7__ips">
                        <tr>
                           <th>Active Planned Care / Goals</th>
                           <th>Start Date</th>
                           <th>Reason</th>
                        </tr>
                        <tr>
                           <td>Musculoskeletal care</td>
                           <td>
                              <span class="nb">19-Mar-2008</span>
                           </td>
                           <td>Osteoarthritis of knee</td>
                        </tr>
                        <tr>
                           <td>
                              <ul>
                                 <li>Reduce knee pain severity to a tolerable level to improve mobility and quality of life</li>
                                 <li>Increase ability to walk and perform daily activities without significant limitation from knee osteoarthritis</li>
                                 <li>Engage in at least 30 minutes of moderate physical activity most days of the week as tolerated</li>
                              </ul>
                           </td>
                           <td/>
                           <td/>
                        </tr>
                        <tr>
                           <td>Hyperlipidemia clinical management plan</td>
                           <td>
                              <span class="nb">13-Jan-1997</span>
                           </td>
                           <td>Hyperlipidemia</td>
                        </tr>
                        <tr>
                           <td>
                              <ul>
                                 <li>Achieve and maintain LDL cholesterol below 2.6 mmol/L</li>
                                 <li>Achieve and maintain total cholesterol below 5.2 mmol/L</li>
                                 <li>Maintain HDL cholesterol above 1.3 mmol/L</li>
                                 <li>Achieve and maintain triglycerides below 1.7 mmol/L</li>
                              </ul>
                           </td>
                           <td/>
                           <td/>
                        </tr>
                        <tr>
                           <th>Immunization Recommendation</th>
                           <th>Due Date</th>
                           <th>Reason</th>
                        </tr>
                        <tr>
                           <td>Vaccine product containing only Influenza virus antigen (medicinal product)</td>
                           <td>
                              <span class="nb">01-Oct-2025</span>
                           </td>
                           <td>Annual seasonal influenza vaccination</td>
                        </tr>
                     </table>
                  </div>
               </text>
               <entry>
                  <reference value="urn:uuid:851606b1-b469-4846-8b50-3d268ec80c0b"/>
               </entry>
               <entry>
                  <reference value="urn:uuid:035554c7-cd6e-4c6a-9f85-0676f763bf86"/>
               </entry>
               <entry>
                  <reference value="urn:uuid:7f90c03c-7c45-4198-86b5-12e886ac99a9"/>
               </entry>
            </section>
            <section>
               <title value="Vital Signs"/>
               <code>
                  <coding>
                     <system value="http://loinc.org"/>
                     <code value="8716-3"/>
                     <display value="Vital signs note"/>
                  </coding>
               </code>
               <text>
                  <status value="generated"/>
                  <div xmlns="http://www.w3.org/1999/xhtml">
                     <table class="hl7__ips">
                        <tr>
                           <th>Vital Signs</th>
                           <th>2025-04-28</th>
                           <th>2024-04-22</th>
                        </tr>
                        <tr>
                           <td>Body Height</td>
                           <td>155 cm</td>
                           <td>155 cm</td>
                        </tr>
                        <tr>
                           <td>Pain severity - 0-10 verbal numeric rating [Score] - Reported</td>
                           <td>3 {score}</td>
                           <td>2 {score}</td>
                        </tr>
                        <tr>
                           <td>Body Weight</td>
                           <td>67.1 kg</td>
                           <td>67.1 kg</td>
                        </tr>
                        <tr>
                           <td>Body mass index (BMI) [Ratio]</td>
                           <td>27.9 kg/m2</td>
                           <td>27.9 kg/m2</td>
                        </tr>
                        <tr>
                           <td>Diastolic Blood Pressure</td>
                           <td>82 mm[Hg]</td>
                           <td>82 mm[Hg]</td>
                        </tr>
                        <tr>
                           <td>Systolic Blood Pressure</td>
                           <td>125 mm[Hg]</td>
                           <td>123 mm[Hg]</td>
                        </tr>
                        <tr>
                           <td>Heart rate</td>
                           <td>86 /min</td>
                           <td>67 /min</td>
                        </tr>
                        <tr>
                           <td>Respiratory rate</td>
                           <td>16 /min</td>
                           <td>12 /min</td>
                        </tr>
                     </table>
                  </div>
               </text>
               <entry>
                  <reference value="urn:uuid:a1fc813b-b885-4973-b665-a5f8b283e036"/>
               </entry>
               <entry>
                  <reference value="urn:uuid:4b6d7718-0849-4951-abff-c8652542c5fc"/>
               </entry>
               <entry>
                  <reference value="urn:uuid:723e079f-4c34-41cb-81a7-69d10f0e461f"/>
               </entry>
               <entry>
                  <reference value="urn:uuid:394ba868-08ed-4ccf-b75e-22725383c444"/>
               </entry>
               <entry>
                  <reference value="urn:uuid:c05cb5a8-f91d-4208-8963-00b92ed28594"/>
               </entry>
               <entry>
                  <reference value="urn:uuid:77b153b2-0a29-40d9-abee-9f1c6251dd31"/>
               </entry>
               <entry>
                  <reference value="urn:uuid:63c5ad81-7f7f-4071-b234-215bf22a784d"/>
               </entry>
               <entry>
                  <reference value="urn:uuid:8b6d6606-b14f-41a4-a1a3-5c571e4fe129"/>
               </entry>
               <entry>
                  <reference value="urn:uuid:87f78372-ddd8-4d17-89bb-296f0b01268e"/>
               </entry>
               <entry>
                  <reference value="urn:uuid:8953ec34-fd09-4198-975a-519a9eafd3fd"/>
               </entry>
               <entry>
                  <reference value="urn:uuid:7bfd7677-038d-4819-b595-8851c25446f6"/>
               </entry>
               <entry>
                  <reference value="urn:uuid:bacc2e41-e20a-43aa-8732-dae163e2d295"/>
               </entry>
               <entry>
                  <reference value="urn:uuid:009d7830-a007-4213-8cad-7583c2bee277"/>
               </entry>
               <entry>
                  <reference value="urn:uuid:0d6fb8ab-4574-498d-a747-50ec6b9a215f"/>
               </entry>
               <entry>
                  <reference value="urn:uuid:bd3a7b44-d8cb-4694-85f4-d86c491d8dfa"/>
               </entry>
               <entry>
                  <reference value="urn:uuid:a09e6361-c17c-4e97-9522-18fc46d458dd"/>
               </entry>
            </section>
            <section>
               <title value="Relevant diagnostic tests/laboratory data"/>
               <code>
                  <coding>
                     <system value="http://loinc.org"/>
                     <code value="30954-2"/>
                     <display value="Relevant diagnostic tests/laboratory data note"/>
                  </coding>
               </code>
               <text>
                  <status value="generated"/>
                  <div xmlns="http://www.w3.org/1999/xhtml">
                     <table class="hl7__ips">
                        <table class="hl7__ips">
                           <thead>
                              <tr>
                                 <th>Recent Lab Observations</th>
                                 <th>05-MAY-2025</th>
                                 <th>Reference Range</th>
                                 <th>Unit</th>
                              </tr>
                           </thead>
                           <tbody>
                              <tr>
                                 <td>Glucose [Mass/volume] in Blood</td>
                                 <td>99.4</td>
                                 <td>70 - 140</td>
                                 <td>mg/dL</td>
                              </tr>
                              <tr>
                                 <td>Urea nitrogen [Mass/volume] in Blood</td>
                                 <td>15.8</td>
                                 <td>7 - 20</td>
                                 <td>mg/dL</td>
                              </tr>
                              <tr>
                                 <td>Creatinine [Mass/volume] in Blood</td>
                                 <td>
                                    <strong>3.1 H</strong>
                                 </td>
                                 <td>0.6 - 1.1</td>
                                 <td>mg/dL</td>
                              </tr>
                              <tr>
                                 <td>Calcium [Mass/volume] in Blood</td>
                                 <td>9.7</td>
                                 <td>8.5 - 10.4</td>
                                 <td>mg/dL</td>
                              </tr>
                              <tr>
                                 <td>Sodium [Moles/volume] in Blood</td>
                                 <td>136.4</td>
                                 <td>135 - 145</td>
                                 <td>mmol/L</td>
                              </tr>
                              <tr>
                                 <td>Potassium [Moles/volume] in Blood</td>
                                 <td>4.5</td>
                                 <td>3.5 - 5.1</td>
                                 <td>mmol/L</td>
                              </tr>
                              <tr>
                                 <td>Chloride [Moles/volume] in Blood</td>
                                 <td>105.1</td>
                                 <td>98 - 108</td>
                                 <td>mmol/L</td>
                              </tr>
                              <tr>
                                 <td>Carbon dioxide, total [Moles/volume] in Blood</td>
                                 <td>26.1</td>
                                 <td>22 - 29</td>
                                 <td>mmol/L</td>
                              </tr>
                              <tr>
                                 <td>Protein [Mass/volume] in Serum or Plasma</td>
                                 <td>6.8</td>
                                 <td>6 - 8.3</td>
                                 <td>g/dL</td>
                              </tr>
                              <tr>
                                 <td>Albumin [Mass/volume] in Serum or Plasma</td>
                                 <td>
                                    <strong>5.2 H</strong>
                                 </td>
                                 <td>3.4 - 5</td>
                                 <td>g/dL</td>
                              </tr>
                              <tr>
                                 <td>Globulin [Mass/volume] in Serum by calculation</td>
                                 <td>2.1</td>
                                 <td>2 - 3.5</td>
                                 <td>g/L</td>
                              </tr>
                              <tr>
                                 <td>Bilirubin.total [Mass/volume] in Serum or Plasma</td>
                                 <td>0.7</td>
                                 <td>0.2 - 1.2</td>
                                 <td>mg/dL</td>
                              </tr>
                              <tr>
                                 <td>Alkaline phosphatase [Enzymatic activity/volume] in Serum or Plasma</td>
                                 <td>
                                    <strong>127.5 H</strong>
                                 </td>
                                 <td>44 - 104</td>
                                 <td>U/L</td>
                              </tr>
                              <tr>
                                 <td>Alanine aminotransferase [Enzymatic activity/volume] in Serum or Plasma</td>
                                 <td>
                                    <strong>46.3 H</strong>
                                 </td>
                                 <td>13 - 36</td>
                                 <td>U/L</td>
                              </tr>
                              <tr>
                                 <td>Aspartate aminotransferase [Enzymatic activity/volume] in Serum or Plasma</td>
                                 <td>36.8</td>
                                 <td>10 - 40</td>
                                 <td>U/L</td>
                              </tr>
                              <tr>
                                 <td>Cholesterol [Mass/volume] in Serum or Plasma</td>
                                 <td>181.1</td>
                                 <td>130 - 200</td>
                                 <td>mg/dL</td>
                              </tr>
                              <tr>
                                 <td>Triglyceride [Mass/volume] in Serum or Plasma</td>
                                 <td>101.8</td>
                                 <td>35 - 175</td>
                                 <td>mg/dL</td>
                              </tr>
                              <tr>
                                 <td>Cholesterol in LDL [Mass/volume] in Serum or Plasma by Direct assay</td>
                                 <td>94.0</td>
                                 <td>0 - 190</td>
                                 <td>mg/dL</td>
                              </tr>
                              <tr>
                                 <td>Cholesterol in HDL [Mass/volume] in Serum or Plasma</td>
                                 <td>54.9</td>
                                 <td>50 - 100</td>
                                 <td>mg/dL</td>
                              </tr>
                           </tbody>
                        </table>
                     </table>
                  </div>
               </text>
               <entry>
                  <reference value="urn:uuid:295a128f-b535-4ab3-888b-340fcfb80c86"/>
               </entry>
               <entry>
                  <reference value="urn:uuid:cee4091b-14c3-433a-a7e7-cc6df7f54141"/>
               </entry>
               <entry>
                  <reference value="urn:uuid:dff75ab0-9509-473c-9550-3c3c543c73c7"/>
               </entry>
               <entry>
                  <reference value="urn:uuid:70be9026-bebf-4e79-98c4-4cff3d12c32f"/>
               </entry>
               <entry>
                  <reference value="urn:uuid:a2f22325-086f-45d0-9641-92322ad56ec4"/>
               </entry>
               <entry>
                  <reference value="urn:uuid:d0305f6f-dcd3-49bb-882a-d7654bf0c1e1"/>
               </entry>
               <entry>
                  <reference value="urn:uuid:2571f6b3-616a-4009-837b-734af83a9fa8"/>
               </entry>
               <entry>
                  <reference value="urn:uuid:b6b9e716-8dfa-46bb-8cbb-ad1b3a35cac8"/>
               </entry>
               <entry>
                  <reference value="urn:uuid:8354cdf9-f4a2-4df6-9be7-863b189cb65a"/>
               </entry>
               <entry>
                  <reference value="urn:uuid:7bc93415-2151-41de-926a-be2cef93f8b0"/>
               </entry>
               <entry>
                  <reference value="urn:uuid:8e43396b-a690-46ef-92c6-9061f620ab9f"/>
               </entry>
               <entry>
                  <reference value="urn:uuid:a50b761c-a5c8-488c-b92a-761d8dc6708f"/>
               </entry>
               <entry>
                  <reference value="urn:uuid:efc07344-2994-40be-95d7-f553c0eed6f3"/>
               </entry>
               <entry>
                  <reference value="urn:uuid:d3128d67-284f-439a-8faf-21cac4738e16"/>
               </entry>
               <entry>
                  <reference value="urn:uuid:ee9d82fb-d574-4658-8e21-6ee8e2cb81a2"/>
               </entry>
               <entry>
                  <reference value="urn:uuid:a7b8064a-a5c5-4660-bffb-30814f739965"/>
               </entry>
               <entry>
                  <reference value="urn:uuid:f2ca2787-ea33-4eea-b9c1-17ce9ade01d3"/>
               </entry>
               <entry>
                  <reference value="urn:uuid:3879417f-737f-4b6a-b4b1-9d10221ff7c8"/>
               </entry>
               <entry>
                  <reference value="urn:uuid:77019f9a-a208-4a30-be7e-e2f0272e9d9d"/>
               </entry>
            </section>
            <section>
               <title value="Device Use"/>
               <code>
                  <coding>
                     <system value="http://loinc.org"/>
                     <code value="46264-8"/>
                     <display value="History of medical device use"/>
                  </coding>
               </code>
               <text>
                  <status value="generated"/>
                  <div xmlns="http://www.w3.org/1999/xhtml">
                     <table class="hl7__ips">
                        <tr>
                           <th>Device</th>
                           <th>Date (since)</th>
                        </tr>
                        <tr>
                           <td>Wheelchair accessory (physical object)</td>
                           <td>
                              <span class="nb">19-Mar-2008</span>
                           </td>
                        </tr>
                        <tr>
                           <td>Power-assisted wheelchair (physical object)</td>
                           <td>
                              <span class="nb">19-Mar-2008</span>
                           </td>
                        </tr>
                     </table>
                  </div>
               </text>
               <entry>
                  <reference value="urn:uuid:0b6d2b11-6dfa-4527-b251-ad455fd48b7c"/>
               </entry>
               <entry>
                  <reference value="urn:uuid:2f130ad6-5a83-4972-9398-5c12e50738b8"/>
               </entry>
            </section>
         </Composition>
      </resource>
   </entry>
   <entry>
      <fullUrl value="urn:uuid:e51a5d0c-0e99-41cf-aa6f-9c70d3b634f0"/>
      <resource>
         <Patient>
            <id value="e51a5d0c-0e99-41cf-aa6f-9c70d3b634f0"/>
            <meta>
               <profile value="http://hl7.eu/fhir/eps/StructureDefinition/patient-eu-eps"/>
               <security>
                  <system value="http://terminology.hl7.org/CodeSystem/v3-ActReason"/>
                  <code value="HTEST"/>
               </security>
               <security>
                  <system value="http://terminology.hl7.org/CodeSystem/v3-ActReason"/>
                  <code value="TRAIN"/>
               </security>
               <tag>
                  <system value="https://synderai.net/fhir/CodeSystem/tags"/>
                  <code value="synthetic"/>
                  <display value="SYNDERAI Synthetic data"/>
               </tag>
            </meta>
            <text>
               <status value="generated"/>
               <div xmlns="http://www.w3.org/1999/xhtml">
                  <table class="hl7__ips">
                     <tr>
                        <td>Eileen Taylor</td>
                        <td>female</td>
                        <td>11-Dec-1951</td>
                     </tr>
                  </table>
               </div>
            </text>
            <extension url="http://hl7.org/fhir/StructureDefinition/patient-nationality">
               <valueCodeableConcept>
                  <coding>
                     <system value="http://hl7.org/fhir/ValueSet/country"/>
                     <code value="GB"/>
                  </coding>
               </valueCodeableConcept>
            </extension>
            <identifier>
               <type>
                  <coding>
                     <system value="http://terminology.hl7.org/CodeSystem/v2-0203"/>
                     <code value="PT"/>
                  </coding>
               </type>
               <system value="http://ec.europa.eu/identifier/eci"/>
               <value value="6172-576075-7"/>
            </identifier>
            <identifier>
               <type>
                  <coding>
                     <system value="http://terminology.hl7.org/CodeSystem/v2-0203"/>
                     <code value="MR"/>
                  </coding>
               </type>
               <system value="http://local.setting.eu/identifier"/>
               <value value="f7f175da-cf0d-5686-8800-840d9ab7b47b"/>
            </identifier>
            <name>
               <family value="Taylor"/>
            </name>
            <name>
               <given value="Eileen"/>
            </name>
            <name>
               <text value="Eileen Taylor"/>
            </name>
            <telecom>
               <system value="phone"/>
               <value value="+44(0)1614960460"/>
            </telecom>
            <gender value="female"/>
            <birthDate value="1951-12-11"/>
            <address>
               <use value="home"/>
               <type value="physical"/>
               <line value="39 Slater harbors"/>
               <city value="Smithtown"/>
               <postalCode value="LE17"/>
               <country value="United Kingdom"/>
            </address>
         </Patient>
      </resource>
   </entry>
   <entry>
      <fullUrl value="urn:uuid:37998c51-a508-4b6b-9017-1a17d177e970"/>
      <resource>
         <PractitionerRole>
            <id value="37998c51-a508-4b6b-9017-1a17d177e970"/>
            <meta>
               <profile value="http://hl7.eu/fhir/base/StructureDefinition/practitionerRole-eu"/>
            </meta>
            <text>
               <status value="generated"/>
               <div xmlns="http://www.w3.org/1999/xhtml">
                  <table class="hl7__ips">Provider Role Id 37998c51-a508-4b6b-9017-1a17d177e970</table>
               </div>
            </text>
            <practitioner>
               <reference value="urn:uuid:7807b397-6c48-462e-9fb2-f73c4819342f"/>
            </practitioner>
            <organization>
               <reference value="urn:uuid:b5257e66-df5c-478b-8354-bda0e813b848"/>
            </organization>
         </PractitionerRole>
      </resource>
   </entry>
   <entry>
      <fullUrl value="urn:uuid:7807b397-6c48-462e-9fb2-f73c4819342f"/>
      <resource>
         <Practitioner>
            <id value="7807b397-6c48-462e-9fb2-f73c4819342f"/>
            <meta>
               <profile value="http://hl7.eu/fhir/base/StructureDefinition/practitioner-eu"/>
            </meta>
            <text>
               <status value="generated"/>
               <div xmlns="http://www.w3.org/1999/xhtml">
                  <table class="hl7__ips">Dr. Hel Ping</table>
               </div>
            </text>
            <name>
               <family value="Ping"/>
               <given value="Hel"/>
               <prefix value="Dr."/>
            </name>
         </Practitioner>
      </resource>
   </entry>
   <entry>
      <fullUrl value="urn:uuid:b5257e66-df5c-478b-8354-bda0e813b848"/>
      <resource>
         <Organization>
            <id value="b5257e66-df5c-478b-8354-bda0e813b848"/>
            <meta>
               <profile value="http://hl7.eu/fhir/base/StructureDefinition/organization-eu"/>
            </meta>
            <text>
               <status value="generated"/>
               <div xmlns="http://www.w3.org/1999/xhtml">
                  <table class="hl7__ips">Leicester Royal Infirmary</table>
               </div>
            </text>
            <identifier>
               <system value="urn:oid:2.16.840.1.113883.2.51.999"/>
               <value value="05531740-6469-496a-81e5-36c126bd076d"/>
               <assigner>
                  <display value="HL7 Europe"/>
               </assigner>
            </identifier>
            <name value="Leicester Royal Infirmary"/>
            <address>
               <city value="Leicester"/>
               <postalCode value="LE2 7"/>
               <country value="United Kingdom"/>
            </address>
         </Organization>
      </resource>
   </entry>
   <entry>
      <fullUrl value="urn:uuid:8818cbe5-be76-4c55-b95f-04d8aaa21e14"/>
      <resource>
         <Condition>
            <id value="8818cbe5-be76-4c55-b95f-04d8aaa21e14"/>
            <meta>
               <profile value="http://hl7.org/fhir/uv/ips/StructureDefinition/Condition-uv-ips"/>
            </meta>
            <text>
               <status value="generated"/>
               <div xmlns="http://www.w3.org/1999/xhtml">
                  <table class="hl7__ips">
                     <tr>
                        <td>Fibromyalgia</td>
                        <td>
                           <span class="nb">05-Feb-2014</span>
                        </td>
                        <td>active</td>
                     </tr>
                  </table>
               </div>
            </text>
            <category>
               <coding>
                  <system value="http://terminology.hl7.org/CodeSystem/condition-category"/>
                  <code value="problem-list-item"/>
                  <display value="Problem List Item"/>
               </coding>
            </category>
            <code>
               <coding>
                  <system value="http://snomed.info/sct"/>
                  <code value="203082005"/>
                  <display value="Fibromyalgia (disorder)"/>
               </coding>
               <text value="Fibromyalgia"/>
            </code>
            <subject>
               <reference value="urn:uuid:"/>
               <display value="Eileen Taylor"/>
            </subject>
            <onsetDateTime value="2014-02-05"/>
            <asserter>
               <reference value="urn:uuid:"/>
               <display value="Leicester Royal Infirmary"/>
            </asserter>
         </Condition>
      </resource>
   </entry>
   <entry>
      <fullUrl value="urn:uuid:5782ea9d-e914-4766-8ea7-6fff51a71fbc"/>
      <resource>
         <Condition>
            <id value="5782ea9d-e914-4766-8ea7-6fff51a71fbc"/>
            <meta>
               <profile value="http://hl7.org/fhir/uv/ips/StructureDefinition/Condition-uv-ips"/>
            </meta>
            <text>
               <status value="generated"/>
               <div xmlns="http://www.w3.org/1999/xhtml">
                  <table class="hl7__ips">
                     <tr>
                        <td>Osteoarthritis of knee</td>
                        <td>
                           <span class="nb">19-Mar-2008</span>
                        </td>
                        <td>active</td>
                     </tr>
                  </table>
               </div>
            </text>
            <category>
               <coding>
                  <system value="http://terminology.hl7.org/CodeSystem/condition-category"/>
                  <code value="problem-list-item"/>
                  <display value="Problem List Item"/>
               </coding>
            </category>
            <code>
               <coding>
                  <system value="http://snomed.info/sct"/>
                  <code value="239873007"/>
                  <display value="Osteoarthritis of knee (disorder)"/>
               </coding>
               <text value="Osteoarthritis of knee"/>
            </code>
            <subject>
               <reference value="urn:uuid:"/>
               <display value="Eileen Taylor"/>
            </subject>
            <onsetDateTime value="2008-03-19"/>
            <asserter>
               <reference value="urn:uuid:"/>
               <display value="Leicester Royal Infirmary"/>
            </asserter>
         </Condition>
      </resource>
   </entry>
   <entry>
      <fullUrl value="urn:uuid:e6403148-dd6d-4de0-886c-1332b7b57604"/>
      <resource>
         <Condition>
            <id value="e6403148-dd6d-4de0-886c-1332b7b57604"/>
            <meta>
               <profile value="http://hl7.org/fhir/uv/ips/StructureDefinition/Condition-uv-ips"/>
            </meta>
            <text>
               <status value="generated"/>
               <div xmlns="http://www.w3.org/1999/xhtml">
                  <table class="hl7__ips">
                     <tr>
                        <td>Hyperlipidemia</td>
                        <td>
                           <span class="nb">23-Dec-1996</span>
                        </td>
                        <td>active</td>
                     </tr>
                  </table>
               </div>
            </text>
            <category>
               <coding>
                  <system value="http://terminology.hl7.org/CodeSystem/condition-category"/>
                  <code value="problem-list-item"/>
                  <display value="Problem List Item"/>
               </coding>
            </category>
            <code>
               <coding>
                  <system value="http://snomed.info/sct"/>
                  <code value="55822004"/>
                  <display value="Hyperlipidemia (disorder)"/>
               </coding>
               <text value="Hyperlipidemia"/>
            </code>
            <subject>
               <reference value="urn:uuid:"/>
               <display value="Eileen Taylor"/>
            </subject>
            <onsetDateTime value="1996-12-23"/>
            <asserter>
               <reference value="urn:uuid:"/>
               <display value="Leicester Royal Infirmary"/>
            </asserter>
         </Condition>
      </resource>
   </entry>
   <entry>
      <fullUrl value="urn:uuid:4ee3ae0a-0e1a-4edb-b497-64f8cbc1e9e9"/>
      <resource>
         <Condition>
            <id value="4ee3ae0a-0e1a-4edb-b497-64f8cbc1e9e9"/>
            <meta>
               <profile value="http://hl7.org/fhir/uv/ips/StructureDefinition/Condition-uv-ips"/>
            </meta>
            <text>
               <status value="generated"/>
               <div xmlns="http://www.w3.org/1999/xhtml">
                  <table class="hl7__ips">
                     <tr>
                        <td>Malignant neoplasm of breast</td>
                        <td>
                           <span class="nb">05-May-1988</span>
                        </td>
                        <td>active</td>
                     </tr>
                  </table>
               </div>
            </text>
            <category>
               <coding>
                  <system value="http://terminology.hl7.org/CodeSystem/condition-category"/>
                  <code value="problem-list-item"/>
                  <display value="Problem List Item"/>
               </coding>
            </category>
            <code>
               <coding>
                  <system value="http://snomed.info/sct"/>
                  <code value="254837009"/>
                  <display value="Malignant neoplasm of breast (disorder)"/>
               </coding>
               <text value="Malignant neoplasm of breast"/>
            </code>
            <subject>
               <reference value="urn:uuid:"/>
               <display value="Eileen Taylor"/>
            </subject>
            <onsetDateTime value="1988-05-05"/>
            <asserter>
               <reference value="urn:uuid:"/>
               <display value="Leicester Royal Infirmary"/>
            </asserter>
         </Condition>
      </resource>
   </entry>
   <entry>
      <fullUrl value="urn:uuid:4776e2ff-860f-4b93-b90b-be34cc92e798"/>
      <resource>
         <Condition>
            <id value="4776e2ff-860f-4b93-b90b-be34cc92e798"/>
            <meta>
               <profile value="http://hl7.org/fhir/uv/ips/StructureDefinition/Condition-uv-ips"/>
            </meta>
            <text>
               <status value="generated"/>
               <div xmlns="http://www.w3.org/1999/xhtml">
                  <table class="hl7__ips">
                     <tr>
                        <td>Recurrent urinary tract infection</td>
                        <td>
                           <span class="nb">14-May-1973</span>
                        </td>
                        <td>active</td>
                     </tr>
                  </table>
               </div>
            </text>
            <category>
               <coding>
                  <system value="http://terminology.hl7.org/CodeSystem/condition-category"/>
                  <code value="problem-list-item"/>
                  <display value="Problem List Item"/>
               </coding>
            </category>
            <code>
               <coding>
                  <system value="http://snomed.info/sct"/>
                  <code value="197927001"/>
                  <display value="Recurrent urinary tract infection (disorder)"/>
               </coding>
               <text value="Recurrent urinary tract infection"/>
            </code>
            <subject>
               <reference value="urn:uuid:"/>
               <display value="Eileen Taylor"/>
            </subject>
            <onsetDateTime value="1973-05-14"/>
            <asserter>
               <reference value="urn:uuid:"/>
               <display value="Leicester Royal Infirmary"/>
            </asserter>
         </Condition>
      </resource>
   </entry>
   <entry>
      <fullUrl value="urn:uuid:944f01bb-b627-4c3c-9189-f328dc55146e"/>
      <resource>
         <Condition>
            <id value="944f01bb-b627-4c3c-9189-f328dc55146e"/>
            <meta>
               <profile value="http://hl7.org/fhir/uv/ips/StructureDefinition/Condition-uv-ips"/>
            </meta>
            <text>
               <status value="generated"/>
               <div xmlns="http://www.w3.org/1999/xhtml">
                  <table class="hl7__ips">
                     <tr>
                        <td>
                           <span class="grayedout">Laceration - injury</span>
                        </td>
                        <td>
                           <span class="nb">20-Jun-2024 - 14-Jul-2024</span>
                        </td>
                        <td>
                           <span class="grayedout">inactive</span>
                        </td>
                     </tr>
                  </table>
               </div>
            </text>
            <category>
               <coding>
                  <system value="http://terminology.hl7.org/CodeSystem/condition-category"/>
                  <code value="problem-list-item"/>
                  <display value="Problem List Item"/>
               </coding>
            </category>
            <code>
               <coding>
                  <system value="http://snomed.info/sct"/>
                  <code value="312608009"/>
                  <display value="Laceration - injury (disorder)"/>
               </coding>
               <text value="Laceration - injury"/>
            </code>
            <subject>
               <reference value="urn:uuid:"/>
               <display value="Eileen Taylor"/>
            </subject>
            <onsetDateTime value="2024-06-20"/>
            <abatementDateTime value="2024-07-14"/>
            <asserter>
               <reference value="urn:uuid:"/>
               <display value="Leicester Royal Infirmary"/>
            </asserter>
         </Condition>
      </resource>
   </entry>
   <entry>
      <fullUrl value="urn:uuid:affb7231-a85b-44a0-aae5-922b56328c2c"/>
      <resource>
         <Condition>
            <id value="affb7231-a85b-44a0-aae5-922b56328c2c"/>
            <meta>
               <profile value="http://hl7.org/fhir/uv/ips/StructureDefinition/Condition-uv-ips"/>
            </meta>
            <text>
               <status value="generated"/>
               <div xmlns="http://www.w3.org/1999/xhtml">
                  <table class="hl7__ips">
                     <tr>
                        <td>
                           <span class="grayedout">Facial laceration</span>
                        </td>
                        <td>
                           <span class="nb">20-Jun-2024 - 14-Jul-2024</span>
                        </td>
                        <td>
                           <span class="grayedout">inactive</span>
                        </td>
                     </tr>
                  </table>
               </div>
            </text>
            <category>
               <coding>
                  <system value="http://terminology.hl7.org/CodeSystem/condition-category"/>
                  <code value="problem-list-item"/>
                  <display value="Problem List Item"/>
               </coding>
            </category>
            <code>
               <coding>
                  <system value="http://snomed.info/sct"/>
                  <code value="370247008"/>
                  <display value="Facial laceration (disorder)"/>
               </coding>
               <text value="Facial laceration"/>
            </code>
            <subject>
               <reference value="urn:uuid:"/>
               <display value="Eileen Taylor"/>
            </subject>
            <onsetDateTime value="2024-06-20"/>
            <abatementDateTime value="2024-07-14"/>
            <asserter>
               <reference value="urn:uuid:"/>
               <display value="Leicester Royal Infirmary"/>
            </asserter>
         </Condition>
      </resource>
   </entry>
   <entry>
      <fullUrl value="urn:uuid:09d684ef-668b-48ed-8a76-a53f50ab95be"/>
      <resource>
         <Medication>
            <id value="09d684ef-668b-48ed-8a76-a53f50ab95be"/>
            <meta>
               <profile value="http://hl7.eu/fhir/eps/StructureDefinition/Medication-eu-eps"/>
            </meta>
            <text>
               <status value="generated"/>
               <div xmlns="http://www.w3.org/1999/xhtml">Simvastatin 10 mg oral tablet</div>
            </text>
            <code>
               <coding>
                  <system value="http://snomed.info/sct"/>
                  <code value="319996000"/>
                  <display value="Simvastatin 10 mg oral tablet"/>
               </coding>
               <text value="Simvastatin 10 mg oral tablet"/>
            </code>
         </Medication>
      </resource>
   </entry>
   <entry>
      <fullUrl value="urn:uuid:ebd47b2e-2e6c-411a-899e-8974146b8e45"/>
      <resource>
         <MedicationStatement>
            <id value="ebd47b2e-2e6c-411a-899e-8974146b8e45"/>
            <meta>
               <profile value="http://hl7.eu/fhir/eps/StructureDefinition/MedicationStatement-eu-eps"/>
            </meta>
            <text>
               <status value="generated"/>
               <div xmlns="http://www.w3.org/1999/xhtml">
                  <table class="hl7__ips first25">
                     <tr>
                        <th>Medication</th>
                        <th>Since</th>
                        <th>Form</th>
                        <th>Dosage</th>
                        <th>Reason</th>
                     </tr>
                     <tr>
                        <td>Simvastatin 10 mg oral tablet</td>
                        <td>
                           <span class="nb">2025-05-05</span>
                        </td>
                        <td>-</td>
                        <td>1 tablet (10 mg) by mouth once daily</td>
                        <td>Hyperlipidemia</td>
                     </tr>
                  </table>
               </div>
            </text>
            <status value="active"/>
            <medicationReference>
               <reference value="urn:uuid:09d684ef-668b-48ed-8a76-a53f50ab95be"/>
               <display value="Simvastatin 10 mg oral tablet"/>
            </medicationReference>
            <subject>
               <reference value="urn:uuid:e51a5d0c-0e99-41cf-aa6f-9c70d3b634f0"/>
               <display value="Eileen Taylor"/>
            </subject>
            <effectivePeriod>
               <start value="2025-05-05"/>
            </effectivePeriod>
            <reasonCode>
               <coding>
                  <system value="http://snomed.info/sct"/>
                  <code value="55822004"/>
                  <display value="Hyperlipidemia"/>
               </coding>
            </reasonCode>
            <dosage>
               <text value="1 tablet (10 mg) by mouth once daily"/>
               <timing>
                  <repeat>
                     <frequency value="1"/>
                     <period value="1"/>
                     <periodUnit value="d"/>
                  </repeat>
               </timing>
               <asNeededBoolean value="false"/>
               <doseAndRate>
                  <doseQuantity>
                     <value value="1"/>
                     <unit value="{tbl}"/>
                     <code value="{tbl}"/>
                  </doseQuantity>
               </doseAndRate>
            </dosage>
         </MedicationStatement>
      </resource>
   </entry>
   <entry>
      <fullUrl value="urn:uuid:56f9a0b2-4294-4edb-b55d-9c9eb660324a"/>
      <resource>
         <Medication>
            <id value="56f9a0b2-4294-4edb-b55d-9c9eb660324a"/>
            <meta>
               <profile value="http://hl7.eu/fhir/eps/StructureDefinition/Medication-eu-eps"/>
            </meta>
            <text>
               <status value="generated"/>
               <div xmlns="http://www.w3.org/1999/xhtml">Naproxen sodium 220 mg oral capsule</div>
            </text>
            <code>
               <coding>
                  <system value="http://snomed.info/sct"/>
                  <code value="420276008"/>
                  <display value="Naproxen sodium 220 mg oral capsule"/>
               </coding>
               <text value="Naproxen sodium 220 mg oral capsule"/>
            </code>
         </Medication>
      </resource>
   </entry>
   <entry>
      <fullUrl value="urn:uuid:5239ddff-58ef-4504-b900-9032067b9f06"/>
      <resource>
         <MedicationStatement>
            <id value="5239ddff-58ef-4504-b900-9032067b9f06"/>
            <meta>
               <profile value="http://hl7.eu/fhir/eps/StructureDefinition/MedicationStatement-eu-eps"/>
            </meta>
            <text>
               <status value="generated"/>
               <div xmlns="http://www.w3.org/1999/xhtml">
                  <table class="hl7__ips first25">
                     <tr>
                        <th>Medication</th>
                        <th>Since</th>
                        <th>Form</th>
                        <th>Dosage</th>
                        <th>Reason</th>
                     </tr>
                     <tr>
                        <td>Naproxen sodium 220 mg oral capsule</td>
                        <td>
                           <span class="nb">2008-03-19</span>
                        </td>
                        <td>-</td>
                        <td>1 capsule (220 mg) by mouth every 12 hours as needed</td>
                        <td>Osteoarthritis of knee</td>
                     </tr>
                  </table>
               </div>
            </text>
            <status value="active"/>
            <medicationReference>
               <reference value="urn:uuid:56f9a0b2-4294-4edb-b55d-9c9eb660324a"/>
               <display value="Naproxen sodium 220 mg oral capsule"/>
            </medicationReference>
            <subject>
               <reference value="urn:uuid:e51a5d0c-0e99-41cf-aa6f-9c70d3b634f0"/>
               <display value="Eileen Taylor"/>
            </subject>
            <effectivePeriod>
               <start value="2008-03-19"/>
            </effectivePeriod>
            <reasonCode>
               <coding>
                  <system value="http://snomed.info/sct"/>
                  <code value="239873007"/>
                  <display value="Osteoarthritis of knee"/>
               </coding>
            </reasonCode>
            <dosage>
               <text value="1 capsule (220 mg) by mouth every 12 hours as needed"/>
               <timing>
                  <repeat>
                     <frequency value="2"/>
                     <period value="1"/>
                     <periodUnit value="d"/>
                  </repeat>
               </timing>
               <asNeededBoolean value="true"/>
               <doseAndRate>
                  <doseQuantity>
                     <value value="1"/>
                     <unit value="{cap}"/>
                     <system value="$ucum"/>
                     <code value="{cap}"/>
                  </doseQuantity>
               </doseAndRate>
            </dosage>
         </MedicationStatement>
      </resource>
   </entry>
   <entry>
      <fullUrl value="urn:uuid:65160444-dbeb-46f2-9c03-f6738c0c0d3e"/>
      <resource>
         <Immunization>
            <id value="65160444-dbeb-46f2-9c03-f6738c0c0d3e"/>
            <meta>
               <profile value="http://hl7.org/fhir/uv/ips/StructureDefinition/Immunization-uv-ips"/>
            </meta>
            <text>
               <status value="generated"/>
               <div xmlns="http://www.w3.org/1999/xhtml">
                  <table class="hl7__ips">
                     <tr>
                        <td>Influenza virus antigen only vaccine product</td>
                        <td>
                           <span class="nb">28-Apr-2025</span>
                        </td>
                     </tr>
                  </table>
               </div>
            </text>
            <status value="completed"/>
            <vaccineCode>
               <coding>
                  <system value="http://snomed.info/sct"/>
                  <code value="1181000221105"/>
                  <display value="Vaccine product containing Influenza virus antigen"/>
               </coding>
               <coding>
                  <system value="http://www.whocc.no/atc"/>
                  <code value="J07BB02"/>
                  <display value="Influenza, inactivated, split virus"/>
               </coding>
               <text value="Influenza virus antigen only vaccine product"/>
            </vaccineCode>
            <patient>
               <reference value="urn:uuid:e51a5d0c-0e99-41cf-aa6f-9c70d3b634f0"/>
               <display value="Eileen Taylor"/>
            </patient>
            <occurrenceDateTime value="2025-04-28"/>
            <lotNumber value="XU-yAYA58"/>
            <expirationDate value="2025-08-24"/>
            <site>
               <coding>
                  <system value="http://snomed.info/sct"/>
                  <code value="244979005"/>
                  <display value="Entire muscle of upper arm"/>
               </coding>
               <text value="Entire muscle of upper arm"/>
            </site>
            <route>
               <coding>
                  <system value="http://snomed.info/sct"/>
                  <code value="78421000"/>
                  <display value="Intramuscular route"/>
               </coding>
               <text value="Intramuscular route"/>
            </route>
         </Immunization>
      </resource>
   </entry>
   <entry>
      <fullUrl value="urn:uuid:9cd9cb81-1c6b-4a91-824b-b50c2de3663b"/>
      <resource>
         <Immunization>
            <id value="9cd9cb81-1c6b-4a91-824b-b50c2de3663b"/>
            <meta>
               <profile value="http://hl7.org/fhir/uv/ips/StructureDefinition/Immunization-uv-ips"/>
            </meta>
            <text>
               <status value="generated"/>
               <div xmlns="http://www.w3.org/1999/xhtml">
                  <table class="hl7__ips">
                     <tr>
                        <td>SARS-CoV-2 mRNA vaccine</td>
                        <td>
                           <span class="nb">22-Feb-2021</span>
                        </td>
                     </tr>
                  </table>
               </div>
            </text>
            <status value="completed"/>
            <vaccineCode>
               <coding>
                  <system value="http://snomed.info/sct"/>
                  <code value="1119349007"/>
                  <display value="Vaccine product containing SARS-CoV-2 mRNA"/>
               </coding>
               <coding>
                  <system value="http://www.whocc.no/atc"/>
                  <code value="J07BX03"/>
                  <display value="COVID-19 mRNA vaccines"/>
               </coding>
               <text value="SARS-CoV-2 mRNA vaccine"/>
            </vaccineCode>
            <patient>
               <reference value="urn:uuid:e51a5d0c-0e99-41cf-aa6f-9c70d3b634f0"/>
               <display value="Eileen Taylor"/>
            </patient>
            <occurrenceDateTime value="2021-02-22"/>
            <lotNumber value="AO-kIUZOuf"/>
            <expirationDate value="2021-05-07"/>
            <site>
               <coding>
                  <system value="http://snomed.info/sct"/>
                  <code value="244979005"/>
                  <display value="Entire muscle of upper arm"/>
               </coding>
               <text value="Entire muscle of upper arm"/>
            </site>
            <route>
               <coding>
                  <system value="http://snomed.info/sct"/>
                  <code value="78421000"/>
                  <display value="Intramuscular route"/>
               </coding>
               <text value="Intramuscular route"/>
            </route>
         </Immunization>
      </resource>
   </entry>
   <entry>
      <fullUrl value="urn:uuid:38e31493-bcd7-449d-bdd8-dd12a17ecdd7"/>
      <resource>
         <Immunization>
            <id value="38e31493-bcd7-449d-bdd8-dd12a17ecdd7"/>
            <meta>
               <profile value="http://hl7.org/fhir/uv/ips/StructureDefinition/Immunization-uv-ips"/>
            </meta>
            <text>
               <status value="generated"/>
               <div xmlns="http://www.w3.org/1999/xhtml">
                  <table class="hl7__ips">
                     <tr>
                        <td>Clostridium tetani toxoid antigen adsorbed only vaccine product</td>
                        <td>
                           <span class="nb">30-Mar-2020</span>
                        </td>
                     </tr>
                  </table>
               </div>
            </text>
            <status value="completed"/>
            <vaccineCode>
               <coding>
                  <system value="http://snomed.info/sct"/>
                  <code value="777725002"/>
                  <display value="Vaccine product containing only Clostridium tetani toxoid antigen adsorbed"/>
               </coding>
               <coding>
                  <system value="http://www.whocc.no/atc"/>
                  <code value="J07AM51"/>
                  <display value="Diphtheria-tetanus vaccines, adult type"/>
               </coding>
               <text value="Clostridium tetani toxoid antigen adsorbed only vaccine product"/>
            </vaccineCode>
            <patient>
               <reference value="urn:uuid:e51a5d0c-0e99-41cf-aa6f-9c70d3b634f0"/>
               <display value="Eileen Taylor"/>
            </patient>
            <occurrenceDateTime value="2020-03-30"/>
            <lotNumber value="AS-Fldl"/>
            <expirationDate value="2020-08-18"/>
            <site>
               <coding>
                  <system value="http://snomed.info/sct"/>
                  <code value="244979005"/>
                  <display value="Entire muscle of upper arm"/>
               </coding>
               <text value="Entire muscle of upper arm"/>
            </site>
            <route>
               <coding>
                  <system value="http://snomed.info/sct"/>
                  <code value="78421000"/>
                  <display value="Intramuscular route"/>
               </coding>
               <text value="Intramuscular route"/>
            </route>
         </Immunization>
      </resource>
   </entry>
   <entry>
      <fullUrl value="urn:uuid:31ead8fb-1b70-4f46-959c-1c5080cc7980"/>
      <resource>
         <Procedure>
            <id value="31ead8fb-1b70-4f46-959c-1c5080cc7980"/>
            <meta>
               <profile value="http://hl7.org/fhir/uv/ips/StructureDefinition/Procedure-uv-ips"/>
            </meta>
            <text>
               <status value="generated"/>
               <div xmlns="http://www.w3.org/1999/xhtml">
                  <table class="hl7__ips">
                     <tr>
                        <td>Suture open wound</td>
                        <td>
                           <span class="nb">20-Jun-2024</span>
                        </td>
                        <td>Facial laceration</td>
                     </tr>
                  </table>
               </div>
            </text>
            <status value="completed"/>
            <code>
               <coding>
                  <system value="http://snomed.info/sct"/>
                  <code value="288086009"/>
                  <display value="Suture open wound"/>
               </coding>
               <text value="Suture open wound"/>
            </code>
            <subject>
               <reference value="urn:uuid:"/>
               <display value="Eileen Taylor"/>
            </subject>
            <performedDateTime value="2024-06-20"/>
            <reasonCode>
               <coding>
                  <system value="http://snomed.info/sct"/>
                  <code value="370247008"/>
                  <display value="Facial laceration"/>
               </coding>
            </reasonCode>
         </Procedure>
      </resource>
   </entry>
   <entry>
      <fullUrl value="urn:uuid:c41ec52e-cab2-4c26-bdbb-ee3120886746"/>
      <resource>
         <Procedure>
            <id value="c41ec52e-cab2-4c26-bdbb-ee3120886746"/>
            <meta>
               <profile value="http://hl7.org/fhir/uv/ips/StructureDefinition/Procedure-uv-ips"/>
            </meta>
            <text>
               <status value="generated"/>
               <div xmlns="http://www.w3.org/1999/xhtml">
                  <table class="hl7__ips">
                     <tr>
                        <td>Injection of tetanus antitoxin</td>
                        <td>
                           <span class="nb">20-Jun-2024</span>
                        </td>
                        <td>Facial laceration</td>
                     </tr>
                  </table>
               </div>
            </text>
            <status value="completed"/>
            <code>
               <coding>
                  <system value="http://snomed.info/sct"/>
                  <code value="384700001"/>
                  <display value="Injection of tetanus antitoxin"/>
               </coding>
               <text value="Injection of tetanus antitoxin"/>
            </code>
            <subject>
               <reference value="urn:uuid:"/>
               <display value="Eileen Taylor"/>
            </subject>
            <performedDateTime value="2024-06-20"/>
            <reasonCode>
               <coding>
                  <system value="http://snomed.info/sct"/>
                  <code value="370247008"/>
                  <display value="Facial laceration"/>
               </coding>
            </reasonCode>
         </Procedure>
      </resource>
   </entry>
   <entry>
      <fullUrl value="urn:uuid:97cbd080-ebbb-4d75-8337-2700736b7889"/>
      <resource>
         <Procedure>
            <id value="97cbd080-ebbb-4d75-8337-2700736b7889"/>
            <meta>
               <profile value="http://hl7.org/fhir/uv/ips/StructureDefinition/Procedure-uv-ips"/>
            </meta>
            <text>
               <status value="generated"/>
               <div xmlns="http://www.w3.org/1999/xhtml">
                  <table class="hl7__ips">
                     <tr>
                        <td>Patient discharge</td>
                        <td>
                           <span class="nb">17-Dec-2023</span>
                        </td>
                        <td>-</td>
                     </tr>
                  </table>
               </div>
            </text>
            <status value="completed"/>
            <code>
               <coding>
                  <system value="http://snomed.info/sct"/>
                  <code value="58000006"/>
                  <display value="Patient discharge (procedure)"/>
               </coding>
               <text value="Patient discharge"/>
            </code>
            <subject>
               <reference value="urn:uuid:"/>
               <display value="Eileen Taylor"/>
            </subject>
            <performedDateTime value="2023-12-17"/>
         </Procedure>
      </resource>
   </entry>
   <entry>
      <fullUrl value="urn:uuid:9e99d5d8-ad9b-4624-aefc-7d5a71bc1dda"/>
      <resource>
         <Procedure>
            <id value="9e99d5d8-ad9b-4624-aefc-7d5a71bc1dda"/>
            <meta>
               <profile value="http://hl7.org/fhir/uv/ips/StructureDefinition/Procedure-uv-ips"/>
            </meta>
            <text>
               <status value="generated"/>
               <div xmlns="http://www.w3.org/1999/xhtml">
                  <table class="hl7__ips">
                     <tr>
                        <td>Hospice care</td>
                        <td>
                           <span class="nb">16-Dec-2023</span>
                        </td>
                        <td>-</td>
                     </tr>
                  </table>
               </div>
            </text>
            <status value="completed"/>
            <code>
               <coding>
                  <system value="http://snomed.info/sct"/>
                  <code value="385763009"/>
                  <display value="Hospice care (regime/therapy)"/>
               </coding>
               <text value="Hospice care"/>
            </code>
            <subject>
               <reference value="urn:uuid:"/>
               <display value="Eileen Taylor"/>
            </subject>
            <performedDateTime value="2023-12-16"/>
         </Procedure>
      </resource>
   </entry>
   <entry>
      <fullUrl value="urn:uuid:3565e72f-ab1d-43c0-b5f4-a40aabc8d747"/>
      <resource>
         <Procedure>
            <id value="3565e72f-ab1d-43c0-b5f4-a40aabc8d747"/>
            <meta>
               <profile value="http://hl7.org/fhir/uv/ips/StructureDefinition/Procedure-uv-ips"/>
            </meta>
            <text>
               <status value="generated"/>
               <div xmlns="http://www.w3.org/1999/xhtml">
                  <table class="hl7__ips">
                     <tr>
                        <td>Notifications</td>
                        <td>
                           <span class="nb">04-Dec-2023</span>
                        </td>
                        <td>-</td>
                     </tr>
                  </table>
               </div>
            </text>
            <status value="completed"/>
            <code>
               <coding>
                  <system value="http://snomed.info/sct"/>
                  <code value="185087000"/>
                  <display value="Notifications (procedure)"/>
               </coding>
               <text value="Notifications"/>
            </code>
            <subject>
               <reference value="urn:uuid:"/>
               <display value="Eileen Taylor"/>
            </subject>
            <performedDateTime value="2023-12-04"/>
         </Procedure>
      </resource>
   </entry>
   <entry>
      <fullUrl value="urn:uuid:507c1317-6f40-4ce8-8ddd-93c4a415f493"/>
      <resource>
         <Procedure>
            <id value="507c1317-6f40-4ce8-8ddd-93c4a415f493"/>
            <meta>
               <profile value="http://hl7.org/fhir/uv/ips/StructureDefinition/Procedure-uv-ips"/>
            </meta>
            <text>
               <status value="generated"/>
               <div xmlns="http://www.w3.org/1999/xhtml">
                  <table class="hl7__ips">
                     <tr>
                        <td>Certification procedure</td>
                        <td>
                           <span class="nb">04-Dec-2023</span>
                        </td>
                        <td>-</td>
                     </tr>
                  </table>
               </div>
            </text>
            <status value="completed"/>
            <code>
               <coding>
                  <system value="http://snomed.info/sct"/>
                  <code value="310417005"/>
                  <display value="Certification procedure (procedure)"/>
               </coding>
               <text value="Certification procedure"/>
            </code>
            <subject>
               <reference value="urn:uuid:"/>
               <display value="Eileen Taylor"/>
            </subject>
            <performedDateTime value="2023-12-04"/>
         </Procedure>
      </resource>
   </entry>
   <entry>
      <fullUrl value="urn:uuid:33ee085d-1ae5-4a13-bdc0-1a939000fe8f"/>
      <resource>
         <Procedure>
            <id value="33ee085d-1ae5-4a13-bdc0-1a939000fe8f"/>
            <meta>
               <profile value="http://hl7.org/fhir/uv/ips/StructureDefinition/Procedure-uv-ips"/>
            </meta>
            <text>
               <status value="generated"/>
               <div xmlns="http://www.w3.org/1999/xhtml">
                  <table class="hl7__ips">
                     <tr>
                        <td>Initial patient assessment</td>
                        <td>
                           <span class="nb">04-Dec-2023</span>
                        </td>
                        <td>-</td>
                     </tr>
                  </table>
               </div>
            </text>
            <status value="completed"/>
            <code>
               <coding>
                  <system value="http://snomed.info/sct"/>
                  <code value="315639002"/>
                  <display value="Initial patient assessment (procedure)"/>
               </coding>
               <text value="Initial patient assessment"/>
            </code>
            <subject>
               <reference value="urn:uuid:"/>
               <display value="Eileen Taylor"/>
            </subject>
            <performedDateTime value="2023-12-04"/>
         </Procedure>
      </resource>
   </entry>
   <entry>
      <fullUrl value="urn:uuid:4324f130-2cf0-4bdc-b005-fe44c9a75de4"/>
      <resource>
         <Procedure>
            <id value="4324f130-2cf0-4bdc-b005-fe44c9a75de4"/>
            <meta>
               <profile value="http://hl7.org/fhir/uv/ips/StructureDefinition/Procedure-uv-ips"/>
            </meta>
            <text>
               <status value="generated"/>
               <div xmlns="http://www.w3.org/1999/xhtml">
                  <table class="hl7__ips">
                     <tr>
                        <td>Development of individualized plan of care</td>
                        <td>
                           <span class="nb">04-Dec-2023</span>
                        </td>
                        <td>-</td>
                     </tr>
                  </table>
               </div>
            </text>
            <status value="completed"/>
            <code>
               <coding>
                  <system value="http://snomed.info/sct"/>
                  <code value="370789001"/>
                  <display value="Development of individualized plan of care (procedure)"/>
               </coding>
               <text value="Development of individualized plan of care"/>
            </code>
            <subject>
               <reference value="urn:uuid:"/>
               <display value="Eileen Taylor"/>
            </subject>
            <performedDateTime value="2023-12-04"/>
         </Procedure>
      </resource>
   </entry>
   <entry>
      <fullUrl value="urn:uuid:ce83c051-0794-4805-bdb3-9d9bc100ec76"/>
      <resource>
         <AllergyIntolerance>
            <id value="ce83c051-0794-4805-bdb3-9d9bc100ec76"/>
            <meta>
               <profile value="http://hl7.eu/fhir/eps/StructureDefinition/allergyIntolerance-eu-eps"/>
            </meta>
            <text>
               <status value="generated"/>
               <div xmlns="http://www.w3.org/1999/xhtml">
                  <table class="hl7__ips">
                     <tr>
                        <th>Allergy/Intolerance</th>
                        <th>Onset Date</th>
                        <th>Status</th>
                        <th>Type</th>
                        <th>Reaction</th>
                     </tr>
                     <tr>
                        <td/>
                        <td>?</td>
                        <td>active</td>
                        <td>?</td>
                        <td/>
                     </tr>
                  </table>
               </div>
            </text>
            <clinicalStatus>
               <coding>
                  <system value="http://terminology.hl7.org/CodeSystem/allergyintolerance-clinical"/>
                  <code value="active"/>
               </coding>
            </clinicalStatus>
            <verificationStatus>
               <coding>
                  <system value="http://terminology.hl7.org/CodeSystem/allergyintolerance-verification"/>
                  <code value="confirmed"/>
               </coding>
            </verificationStatus>
            <code>
               <text/>
            </code>
            <patient>
               <reference value="urn:uuid:e51a5d0c-0e99-41cf-aa6f-9c70d3b634f0"/>
               <display value="Eileen Taylor"/>
            </patient>
            <onsetDateTime>
               <extension url="http://hl7.org/fhir/StructureDefinition/data-absent-reason">
                  <valueCode value="unknown"/>
               </extension>
            </onsetDateTime>
         </AllergyIntolerance>
      </resource>
   </entry>
   <entry>
      <fullUrl value="urn:uuid:851606b1-b469-4846-8b50-3d268ec80c0b"/>
      <resource>
         <CarePlan>
            <id value="851606b1-b469-4846-8b50-3d268ec80c0b"/>
            <text>
               <status value="generated"/>
               <div xmlns="http://www.w3.org/1999/xhtml">
                  <table class="hl7__ips first25">
                     <tr>
                        <th>Active Planned Care / Goals</th>
                        <th>Start Date</th>
                        <th>Reason</th>
                     </tr>
                     <tr>
                        <td>Musculoskeletal care</td>
                        <td>
                           <span class="nb">19-Mar-2008</span>
                        </td>
                        <td>Osteoarthritis of knee</td>
                     </tr>
                     <tr>
                        <td>
                           <ul>
                              <li>Reduce knee pain severity to a tolerable level to improve mobility and quality of life</li>
                              <li>Increase ability to walk and perform daily activities without significant limitation from knee osteoarthritis</li>
                              <li>Engage in at least 30 minutes of moderate physical activity most days of the week as tolerated</li>
                           </ul>
                        </td>
                        <td/>
                        <td/>
                     </tr>
                  </table>
               </div>
            </text>
            <status value="active"/>
            <intent value="plan"/>
            <category>
               <coding>
                  <system value="http://terminology.hl7.org/CodeSystem/care-plan-category"/>
                  <code value="assess-plan"/>
                  <display value="Assessment and Plan"/>
               </coding>
            </category>
            <subject>
               <reference value="urn:uuid:e51a5d0c-0e99-41cf-aa6f-9c70d3b634f0"/>
               <display value="Eileen Taylor"/>
            </subject>
            <period>
               <start value="2008-03-19"/>
            </period>
            <goal>
               <reference value="urn:uuid:de92f618-454d-486f-ad31-43a720d76be2"/>
            </goal>
            <goal>
               <reference value="urn:uuid:aa454840-3802-4af7-a4f3-79153df68ee3"/>
            </goal>
            <goal>
               <reference value="urn:uuid:0ce651e0-088e-4ed3-b6ad-f3ba6a1e4aab"/>
            </goal>
            <activity>
               <detail>
                  <kind value="Appointment"/>
                  <code>
                     <coding>
                        <system value="http://snomed.info/sct"/>
                        <code value="408869004"/>
                        <display value="Musculoskeletal care (regime/therapy)"/>
                     </coding>
                  </code>
                  <reasonCode>
                     <coding>
                        <system value="http://snomed.info/sct"/>
                        <code value="239873007"/>
                        <display value="Osteoarthritis of knee"/>
                     </coding>
                  </reasonCode>
                  <status value="unknown"/>
                  <description value="Musculoskeletal care"/>
               </detail>
            </activity>
         </CarePlan>
      </resource>
   </entry>
   <entry>
      <fullUrl value="urn:uuid:035554c7-cd6e-4c6a-9f85-0676f763bf86"/>
      <resource>
         <CarePlan>
            <id value="035554c7-cd6e-4c6a-9f85-0676f763bf86"/>
            <text>
               <status value="generated"/>
               <div xmlns="http://www.w3.org/1999/xhtml">
                  <table class="hl7__ips first25">
                     <tr>
                        <th>Active Planned Care / Goals</th>
                        <th>Start Date</th>
                        <th>Reason</th>
                     </tr>
                     <tr>
                        <td>Hyperlipidemia clinical management plan</td>
                        <td>
                           <span class="nb">13-Jan-1997</span>
                        </td>
                        <td>Hyperlipidemia</td>
                     </tr>
                     <tr>
                        <td>
                           <ul>
                              <li>Achieve and maintain LDL cholesterol below 2.6 mmol/L</li>
                              <li>Achieve and maintain total cholesterol below 5.2 mmol/L</li>
                              <li>Maintain HDL cholesterol above 1.3 mmol/L</li>
                              <li>Achieve and maintain triglycerides below 1.7 mmol/L</li>
                           </ul>
                        </td>
                        <td/>
                        <td/>
                     </tr>
                  </table>
               </div>
            </text>
            <status value="active"/>
            <intent value="plan"/>
            <category>
               <coding>
                  <system value="http://terminology.hl7.org/CodeSystem/care-plan-category"/>
                  <code value="assess-plan"/>
                  <display value="Assessment and Plan"/>
               </coding>
            </category>
            <subject>
               <reference value="urn:uuid:e51a5d0c-0e99-41cf-aa6f-9c70d3b634f0"/>
               <display value="Eileen Taylor"/>
            </subject>
            <period>
               <start value="1997-01-13"/>
            </period>
            <goal>
               <reference value="urn:uuid:a53cc6f8-be33-4d11-bc71-ecc95c80203a"/>
            </goal>
            <goal>
               <reference value="urn:uuid:59a03bfd-e2cf-42a3-a3e7-5ba8c7abbedb"/>
            </goal>
            <goal>
               <reference value="urn:uuid:9bf60af9-ba01-4dbf-a557-a8dd15cdd8ab"/>
            </goal>
            <goal>
               <reference value="urn:uuid:f947d0d4-ffdf-4407-a6da-1fc9be0c58c8"/>
            </goal>
            <activity>
               <detail>
                  <kind value="Appointment"/>
                  <code>
                     <coding>
                        <system value="http://snomed.info/sct"/>
                        <code value="736285004"/>
                        <display value="Hyperlipidemia clinical management plan (record artifact)"/>
                     </coding>
                  </code>
                  <reasonCode>
                     <coding>
                        <system value="http://snomed.info/sct"/>
                        <code value="55822004"/>
                        <display value="Hyperlipidemia"/>
                     </coding>
                  </reasonCode>
                  <status value="unknown"/>
                  <description value="Hyperlipidemia clinical management plan"/>
               </detail>
            </activity>
         </CarePlan>
      </resource>
   </entry>
   <entry>
      <fullUrl value="urn:uuid:7f90c03c-7c45-4198-86b5-12e886ac99a9"/>
      <resource>
         <ImmunizationRecommendation>
            <id value="7f90c03c-7c45-4198-86b5-12e886ac99a9"/>
            <text>
               <status value="generated"/>
               <div xmlns="http://www.w3.org/1999/xhtml">
                  <table class="hl7__ips">
                     <tr>
                        <td>Vaccine product containing only Influenza virus antigen (medicinal product)</td>
                        <td>
                           <span class="nb">01-Oct-2025</span>
                        </td>
                        <td>Annual seasonal influenza vaccination</td>
                     </tr>
                  </table>
               </div>
            </text>
            <patient>
               <reference value="urn:uuid:e51a5d0c-0e99-41cf-aa6f-9c70d3b634f0"/>
               <display value="Eileen Taylor"/>
            </patient>
            <date value="2025-10-22"/>
            <recommendation>
               <vaccineCode>
                  <coding>
                     <system value="http://snomed.info/sct"/>
                     <code value="1181000221105"/>
                     <display value="Vaccine product containing only Influenza virus antigen (medicinal product)"/>
                  </coding>
               </vaccineCode>
               <targetDisease>
                  <coding>
                     <system value="http://snomed.info/sct"/>
                     <code value="6142004"/>
                     <display value="Influenza (disorder)"/>
                  </coding>
               </targetDisease>
               <forecastStatus>
                  <coding>
                     <system value="http://terminology.hl7.org/CodeSystem/immunization-recommendation-status"/>
                     <code value="due"/>
                     <display value="Due"/>
                  </coding>
               </forecastStatus>
               <dateCriterion>
                  <code>
                     <coding>
                        <system value="http://loinc.org"/>
                        <code value="30980-7"/>
                        <display value="Date vaccine due"/>
                     </coding>
                  </code>
                  <value value="2025-10-01"/>
               </dateCriterion>
               <series value="Annual seasonal influenza vaccination"/>
            </recommendation>
         </ImmunizationRecommendation>
      </resource>
   </entry>
   <entry>
      <fullUrl value="urn:uuid:a1fc813b-b885-4973-b665-a5f8b283e036"/>
      <resource>
         <Observation>
            <id value="a1fc813b-b885-4973-b665-a5f8b283e036"/>
            <meta>
               <profile value="http://hl7.org/fhir/StructureDefinition/vitalsigns"/>
            </meta>
            <text>
               <status value="generated"/>
               <div xmlns="http://www.w3.org/1999/xhtml">
                  <table class="hl7__ips">
                     <tr>
                        <th>Vital Sign</th>
                        <th>Date</th>
                        <th>Measurement</th>
                     </tr>
                     <tr>
                        <td>Body Height</td>
                        <td>28-Apr-2025</td>
                        <td>155 cm</td>
                     </tr>
                  </table>
               </div>
            </text>
            <status value="final"/>
            <category>
               <coding>
                  <system value="http://terminology.hl7.org/CodeSystem/observation-category"/>
                  <code value="vital-signs"/>
                  <display value="Vital Signs"/>
               </coding>
            </category>
            <code>
               <coding>
                  <system value="http://loinc.org"/>
                  <code value="$8302-2"/>
                  <display value="Body Height"/>
               </coding>
            </code>
            <subject>
               <reference value="urn:uuid:e51a5d0c-0e99-41cf-aa6f-9c70d3b634f0"/>
               <display value="Eileen Taylor"/>
            </subject>
            <effectiveDateTime value="2025-04-28"/>
            <valueQuantity>
               <value value="155"/>
               <unit value="cm"/>
               <code value="cm"/>
            </valueQuantity>
         </Observation>
      </resource>
   </entry>
   <entry>
      <fullUrl value="urn:uuid:4b6d7718-0849-4951-abff-c8652542c5fc"/>
      <resource>
         <Observation>
            <id value="4b6d7718-0849-4951-abff-c8652542c5fc"/>
            <meta>
               <profile value="http://hl7.org/fhir/StructureDefinition/vitalsigns"/>
            </meta>
            <text>
               <status value="generated"/>
               <div xmlns="http://www.w3.org/1999/xhtml">
                  <table class="hl7__ips">
                     <tr>
                        <th>Vital Sign</th>
                        <th>Date</th>
                        <th>Measurement</th>
                     </tr>
                     <tr>
                        <td>Pain severity - 0-10 verbal numeric rating [Score] - Reported</td>
                        <td>28-Apr-2025</td>
                        <td>3 {score}</td>
                     </tr>
                  </table>
               </div>
            </text>
            <status value="final"/>
            <category>
               <coding>
                  <system value="http://terminology.hl7.org/CodeSystem/observation-category"/>
                  <code value="vital-signs"/>
                  <display value="Vital Signs"/>
               </coding>
            </category>
            <code>
               <coding>
                  <system value="http://loinc.org"/>
                  <code value="$72514-3"/>
                  <display value="Pain severity - 0-10 verbal numeric rating [Score] - Reported"/>
               </coding>
            </code>
            <subject>
               <reference value="urn:uuid:e51a5d0c-0e99-41cf-aa6f-9c70d3b634f0"/>
               <display value="Eileen Taylor"/>
            </subject>
            <effectiveDateTime value="2025-04-28"/>
            <valueQuantity>
               <value value="3"/>
               <unit value="{score}"/>
               <code value="{score}"/>
            </valueQuantity>
         </Observation>
      </resource>
   </entry>
   <entry>
      <fullUrl value="urn:uuid:723e079f-4c34-41cb-81a7-69d10f0e461f"/>
      <resource>
         <Observation>
            <id value="723e079f-4c34-41cb-81a7-69d10f0e461f"/>
            <meta>
               <profile value="http://hl7.org/fhir/StructureDefinition/vitalsigns"/>
            </meta>
            <text>
               <status value="generated"/>
               <div xmlns="http://www.w3.org/1999/xhtml">
                  <table class="hl7__ips">
                     <tr>
                        <th>Vital Sign</th>
                        <th>Date</th>
                        <th>Measurement</th>
                     </tr>
                     <tr>
                        <td>Body Weight</td>
                        <td>28-Apr-2025</td>
                        <td>67.1 kg</td>
                     </tr>
                  </table>
               </div>
            </text>
            <status value="final"/>
            <category>
               <coding>
                  <system value="http://terminology.hl7.org/CodeSystem/observation-category"/>
                  <code value="vital-signs"/>
                  <display value="Vital Signs"/>
               </coding>
            </category>
            <code>
               <coding>
                  <system value="http://loinc.org"/>
                  <code value="$29463-7"/>
                  <display value="Body Weight"/>
               </coding>
            </code>
            <subject>
               <reference value="urn:uuid:e51a5d0c-0e99-41cf-aa6f-9c70d3b634f0"/>
               <display value="Eileen Taylor"/>
            </subject>
            <effectiveDateTime value="2025-04-28"/>
            <valueQuantity>
               <value value="67.1"/>
               <unit value="kg"/>
               <code value="kg"/>
            </valueQuantity>
         </Observation>
      </resource>
   </entry>
   <entry>
      <fullUrl value="urn:uuid:394ba868-08ed-4ccf-b75e-22725383c444"/>
      <resource>
         <Observation>
            <id value="394ba868-08ed-4ccf-b75e-22725383c444"/>
            <meta>
               <profile value="http://hl7.org/fhir/StructureDefinition/vitalsigns"/>
            </meta>
            <text>
               <status value="generated"/>
               <div xmlns="http://www.w3.org/1999/xhtml">
                  <table class="hl7__ips">
                     <tr>
                        <th>Vital Sign</th>
                        <th>Date</th>
                        <th>Measurement</th>
                     </tr>
                     <tr>
                        <td>Body mass index (BMI) [Ratio]</td>
                        <td>28-Apr-2025</td>
                        <td>27.9 kg/m2</td>
                     </tr>
                  </table>
               </div>
            </text>
            <status value="final"/>
            <category>
               <coding>
                  <system value="http://terminology.hl7.org/CodeSystem/observation-category"/>
                  <code value="vital-signs"/>
                  <display value="Vital Signs"/>
               </coding>
            </category>
            <code>
               <coding>
                  <system value="http://loinc.org"/>
                  <code value="$39156-5"/>
                  <display value="Body mass index (BMI) [Ratio]"/>
               </coding>
            </code>
            <subject>
               <reference value="urn:uuid:e51a5d0c-0e99-41cf-aa6f-9c70d3b634f0"/>
               <display value="Eileen Taylor"/>
            </subject>
            <effectiveDateTime value="2025-04-28"/>
            <valueQuantity>
               <value value="27.9"/>
               <unit value="kg/m2"/>
               <code value="kg/m2"/>
            </valueQuantity>
         </Observation>
      </resource>
   </entry>
   <entry>
      <fullUrl value="urn:uuid:c05cb5a8-f91d-4208-8963-00b92ed28594"/>
      <resource>
         <Observation>
            <id value="c05cb5a8-f91d-4208-8963-00b92ed28594"/>
            <meta>
               <profile value="http://hl7.org/fhir/StructureDefinition/vitalsigns"/>
            </meta>
            <text>
               <status value="generated"/>
               <div xmlns="http://www.w3.org/1999/xhtml">
                  <table class="hl7__ips">
                     <tr>
                        <th>Vital Sign</th>
                        <th>Date</th>
                        <th>Measurement</th>
                     </tr>
                     <tr>
                        <td>Diastolic Blood Pressure</td>
                        <td>28-Apr-2025</td>
                        <td>82 mm[Hg]</td>
                     </tr>
                  </table>
               </div>
            </text>
            <status value="final"/>
            <category>
               <coding>
                  <system value="http://terminology.hl7.org/CodeSystem/observation-category"/>
                  <code value="vital-signs"/>
                  <display value="Vital Signs"/>
               </coding>
            </category>
            <code>
               <coding>
                  <system value="http://loinc.org"/>
                  <code value="$8462-4"/>
                  <display value="Diastolic Blood Pressure"/>
               </coding>
            </code>
            <subject>
               <reference value="urn:uuid:e51a5d0c-0e99-41cf-aa6f-9c70d3b634f0"/>
               <display value="Eileen Taylor"/>
            </subject>
            <effectiveDateTime value="2025-04-28"/>
            <valueQuantity>
               <value value="82"/>
               <unit value="mm[Hg]"/>
               <code value="mm[Hg]"/>
            </valueQuantity>
         </Observation>
      </resource>
   </entry>
   <entry>
      <fullUrl value="urn:uuid:77b153b2-0a29-40d9-abee-9f1c6251dd31"/>
      <resource>
         <Observation>
            <id value="77b153b2-0a29-40d9-abee-9f1c6251dd31"/>
            <meta>
               <profile value="http://hl7.org/fhir/StructureDefinition/vitalsigns"/>
            </meta>
            <text>
               <status value="generated"/>
               <div xmlns="http://www.w3.org/1999/xhtml">
                  <table class="hl7__ips">
                     <tr>
                        <th>Vital Sign</th>
                        <th>Date</th>
                        <th>Measurement</th>
                     </tr>
                     <tr>
                        <td>Systolic Blood Pressure</td>
                        <td>28-Apr-2025</td>
                        <td>125 mm[Hg]</td>
                     </tr>
                  </table>
               </div>
            </text>
            <status value="final"/>
            <category>
               <coding>
                  <system value="http://terminology.hl7.org/CodeSystem/observation-category"/>
                  <code value="vital-signs"/>
                  <display value="Vital Signs"/>
               </coding>
            </category>
            <code>
               <coding>
                  <system value="http://loinc.org"/>
                  <code value="$8480-6"/>
                  <display value="Systolic Blood Pressure"/>
               </coding>
            </code>
            <subject>
               <reference value="urn:uuid:e51a5d0c-0e99-41cf-aa6f-9c70d3b634f0"/>
               <display value="Eileen Taylor"/>
            </subject>
            <effectiveDateTime value="2025-04-28"/>
            <valueQuantity>
               <value value="125"/>
               <unit value="mm[Hg]"/>
               <code value="mm[Hg]"/>
            </valueQuantity>
         </Observation>
      </resource>
   </entry>
   <entry>
      <fullUrl value="urn:uuid:63c5ad81-7f7f-4071-b234-215bf22a784d"/>
      <resource>
         <Observation>
            <id value="63c5ad81-7f7f-4071-b234-215bf22a784d"/>
            <meta>
               <profile value="http://hl7.org/fhir/StructureDefinition/vitalsigns"/>
            </meta>
            <text>
               <status value="generated"/>
               <div xmlns="http://www.w3.org/1999/xhtml">
                  <table class="hl7__ips">
                     <tr>
                        <th>Vital Sign</th>
                        <th>Date</th>
                        <th>Measurement</th>
                     </tr>
                     <tr>
                        <td>Heart rate</td>
                        <td>28-Apr-2025</td>
                        <td>86 /min</td>
                     </tr>
                  </table>
               </div>
            </text>
            <status value="final"/>
            <category>
               <coding>
                  <system value="http://terminology.hl7.org/CodeSystem/observation-category"/>
                  <code value="vital-signs"/>
                  <display value="Vital Signs"/>
               </coding>
            </category>
            <code>
               <coding>
                  <system value="http://loinc.org"/>
                  <code value="$8867-4"/>
                  <display value="Heart rate"/>
               </coding>
            </code>
            <subject>
               <reference value="urn:uuid:e51a5d0c-0e99-41cf-aa6f-9c70d3b634f0"/>
               <display value="Eileen Taylor"/>
            </subject>
            <effectiveDateTime value="2025-04-28"/>
            <valueQuantity>
               <value value="86"/>
               <unit value="/min"/>
               <code value="/min"/>
            </valueQuantity>
         </Observation>
      </resource>
   </entry>
   <entry>
      <fullUrl value="urn:uuid:8b6d6606-b14f-41a4-a1a3-5c571e4fe129"/>
      <resource>
         <Observation>
            <id value="8b6d6606-b14f-41a4-a1a3-5c571e4fe129"/>
            <meta>
               <profile value="http://hl7.org/fhir/StructureDefinition/vitalsigns"/>
            </meta>
            <text>
               <status value="generated"/>
               <div xmlns="http://www.w3.org/1999/xhtml">
                  <table class="hl7__ips">
                     <tr>
                        <th>Vital Sign</th>
                        <th>Date</th>
                        <th>Measurement</th>
                     </tr>
                     <tr>
                        <td>Respiratory rate</td>
                        <td>28-Apr-2025</td>
                        <td>16 /min</td>
                     </tr>
                  </table>
               </div>
            </text>
            <status value="final"/>
            <category>
               <coding>
                  <system value="http://terminology.hl7.org/CodeSystem/observation-category"/>
                  <code value="vital-signs"/>
                  <display value="Vital Signs"/>
               </coding>
            </category>
            <code>
               <coding>
                  <system value="http://loinc.org"/>
                  <code value="$9279-1"/>
                  <display value="Respiratory rate"/>
               </coding>
            </code>
            <subject>
               <reference value="urn:uuid:e51a5d0c-0e99-41cf-aa6f-9c70d3b634f0"/>
               <display value="Eileen Taylor"/>
            </subject>
            <effectiveDateTime value="2025-04-28"/>
            <valueQuantity>
               <value value="16"/>
               <unit value="/min"/>
               <code value="/min"/>
            </valueQuantity>
         </Observation>
      </resource>
   </entry>
   <entry>
      <fullUrl value="urn:uuid:87f78372-ddd8-4d17-89bb-296f0b01268e"/>
      <resource>
         <Observation>
            <id value="87f78372-ddd8-4d17-89bb-296f0b01268e"/>
            <meta>
               <profile value="http://hl7.org/fhir/StructureDefinition/vitalsigns"/>
            </meta>
            <text>
               <status value="generated"/>
               <div xmlns="http://www.w3.org/1999/xhtml">
                  <table class="hl7__ips">
                     <tr>
                        <th>Vital Sign</th>
                        <th>Date</th>
                        <th>Measurement</th>
                     </tr>
                     <tr>
                        <td>Body Height</td>
                        <td>22-Apr-2024</td>
                        <td>155 cm</td>
                     </tr>
                  </table>
               </div>
            </text>
            <status value="final"/>
            <category>
               <coding>
                  <system value="http://terminology.hl7.org/CodeSystem/observation-category"/>
                  <code value="vital-signs"/>
                  <display value="Vital Signs"/>
               </coding>
            </category>
            <code>
               <coding>
                  <system value="http://loinc.org"/>
                  <code value="$8302-2"/>
                  <display value="Body Height"/>
               </coding>
            </code>
            <subject>
               <reference value="urn:uuid:e51a5d0c-0e99-41cf-aa6f-9c70d3b634f0"/>
               <display value="Eileen Taylor"/>
            </subject>
            <effectiveDateTime value="2024-04-22"/>
            <valueQuantity>
               <value value="155"/>
               <unit value="cm"/>
               <code value="cm"/>
            </valueQuantity>
         </Observation>
      </resource>
   </entry>
   <entry>
      <fullUrl value="urn:uuid:8953ec34-fd09-4198-975a-519a9eafd3fd"/>
      <resource>
         <Observation>
            <id value="8953ec34-fd09-4198-975a-519a9eafd3fd"/>
            <meta>
               <profile value="http://hl7.org/fhir/StructureDefinition/vitalsigns"/>
            </meta>
            <text>
               <status value="generated"/>
               <div xmlns="http://www.w3.org/1999/xhtml">
                  <table class="hl7__ips">
                     <tr>
                        <th>Vital Sign</th>
                        <th>Date</th>
                        <th>Measurement</th>
                     </tr>
                     <tr>
                        <td>Pain severity - 0-10 verbal numeric rating [Score] - Reported</td>
                        <td>22-Apr-2024</td>
                        <td>2 {score}</td>
                     </tr>
                  </table>
               </div>
            </text>
            <status value="final"/>
            <category>
               <coding>
                  <system value="http://terminology.hl7.org/CodeSystem/observation-category"/>
                  <code value="vital-signs"/>
                  <display value="Vital Signs"/>
               </coding>
            </category>
            <code>
               <coding>
                  <system value="http://loinc.org"/>
                  <code value="$72514-3"/>
                  <display value="Pain severity - 0-10 verbal numeric rating [Score] - Reported"/>
               </coding>
            </code>
            <subject>
               <reference value="urn:uuid:e51a5d0c-0e99-41cf-aa6f-9c70d3b634f0"/>
               <display value="Eileen Taylor"/>
            </subject>
            <effectiveDateTime value="2024-04-22"/>
            <valueQuantity>
               <value value="2"/>
               <unit value="{score}"/>
               <code value="{score}"/>
            </valueQuantity>
         </Observation>
      </resource>
   </entry>
   <entry>
      <fullUrl value="urn:uuid:7bfd7677-038d-4819-b595-8851c25446f6"/>
      <resource>
         <Observation>
            <id value="7bfd7677-038d-4819-b595-8851c25446f6"/>
            <meta>
               <profile value="http://hl7.org/fhir/StructureDefinition/vitalsigns"/>
            </meta>
            <text>
               <status value="generated"/>
               <div xmlns="http://www.w3.org/1999/xhtml">
                  <table class="hl7__ips">
                     <tr>
                        <th>Vital Sign</th>
                        <th>Date</th>
                        <th>Measurement</th>
                     </tr>
                     <tr>
                        <td>Body Weight</td>
                        <td>22-Apr-2024</td>
                        <td>67.1 kg</td>
                     </tr>
                  </table>
               </div>
            </text>
            <status value="final"/>
            <category>
               <coding>
                  <system value="http://terminology.hl7.org/CodeSystem/observation-category"/>
                  <code value="vital-signs"/>
                  <display value="Vital Signs"/>
               </coding>
            </category>
            <code>
               <coding>
                  <system value="http://loinc.org"/>
                  <code value="$29463-7"/>
                  <display value="Body Weight"/>
               </coding>
            </code>
            <subject>
               <reference value="urn:uuid:e51a5d0c-0e99-41cf-aa6f-9c70d3b634f0"/>
               <display value="Eileen Taylor"/>
            </subject>
            <effectiveDateTime value="2024-04-22"/>
            <valueQuantity>
               <value value="67.1"/>
               <unit value="kg"/>
               <code value="kg"/>
            </valueQuantity>
         </Observation>
      </resource>
   </entry>
   <entry>
      <fullUrl value="urn:uuid:bacc2e41-e20a-43aa-8732-dae163e2d295"/>
      <resource>
         <Observation>
            <id value="bacc2e41-e20a-43aa-8732-dae163e2d295"/>
            <meta>
               <profile value="http://hl7.org/fhir/StructureDefinition/vitalsigns"/>
            </meta>
            <text>
               <status value="generated"/>
               <div xmlns="http://www.w3.org/1999/xhtml">
                  <table class="hl7__ips">
                     <tr>
                        <th>Vital Sign</th>
                        <th>Date</th>
                        <th>Measurement</th>
                     </tr>
                     <tr>
                        <td>Body mass index (BMI) [Ratio]</td>
                        <td>22-Apr-2024</td>
                        <td>27.9 kg/m2</td>
                     </tr>
                  </table>
               </div>
            </text>
            <status value="final"/>
            <category>
               <coding>
                  <system value="http://terminology.hl7.org/CodeSystem/observation-category"/>
                  <code value="vital-signs"/>
                  <display value="Vital Signs"/>
               </coding>
            </category>
            <code>
               <coding>
                  <system value="http://loinc.org"/>
                  <code value="$39156-5"/>
                  <display value="Body mass index (BMI) [Ratio]"/>
               </coding>
            </code>
            <subject>
               <reference value="urn:uuid:e51a5d0c-0e99-41cf-aa6f-9c70d3b634f0"/>
               <display value="Eileen Taylor"/>
            </subject>
            <effectiveDateTime value="2024-04-22"/>
            <valueQuantity>
               <value value="27.9"/>
               <unit value="kg/m2"/>
               <code value="kg/m2"/>
            </valueQuantity>
         </Observation>
      </resource>
   </entry>
   <entry>
      <fullUrl value="urn:uuid:009d7830-a007-4213-8cad-7583c2bee277"/>
      <resource>
         <Observation>
            <id value="009d7830-a007-4213-8cad-7583c2bee277"/>
            <meta>
               <profile value="http://hl7.org/fhir/StructureDefinition/vitalsigns"/>
            </meta>
            <text>
               <status value="generated"/>
               <div xmlns="http://www.w3.org/1999/xhtml">
                  <table class="hl7__ips">
                     <tr>
                        <th>Vital Sign</th>
                        <th>Date</th>
                        <th>Measurement</th>
                     </tr>
                     <tr>
                        <td>Diastolic Blood Pressure</td>
                        <td>22-Apr-2024</td>
                        <td>82 mm[Hg]</td>
                     </tr>
                  </table>
               </div>
            </text>
            <status value="final"/>
            <category>
               <coding>
                  <system value="http://terminology.hl7.org/CodeSystem/observation-category"/>
                  <code value="vital-signs"/>
                  <display value="Vital Signs"/>
               </coding>
            </category>
            <code>
               <coding>
                  <system value="http://loinc.org"/>
                  <code value="$8462-4"/>
                  <display value="Diastolic Blood Pressure"/>
               </coding>
            </code>
            <subject>
               <reference value="urn:uuid:e51a5d0c-0e99-41cf-aa6f-9c70d3b634f0"/>
               <display value="Eileen Taylor"/>
            </subject>
            <effectiveDateTime value="2024-04-22"/>
            <valueQuantity>
               <value value="82"/>
               <unit value="mm[Hg]"/>
               <code value="mm[Hg]"/>
            </valueQuantity>
         </Observation>
      </resource>
   </entry>
   <entry>
      <fullUrl value="urn:uuid:0d6fb8ab-4574-498d-a747-50ec6b9a215f"/>
      <resource>
         <Observation>
            <id value="0d6fb8ab-4574-498d-a747-50ec6b9a215f"/>
            <meta>
               <profile value="http://hl7.org/fhir/StructureDefinition/vitalsigns"/>
            </meta>
            <text>
               <status value="generated"/>
               <div xmlns="http://www.w3.org/1999/xhtml">
                  <table class="hl7__ips">
                     <tr>
                        <th>Vital Sign</th>
                        <th>Date</th>
                        <th>Measurement</th>
                     </tr>
                     <tr>
                        <td>Systolic Blood Pressure</td>
                        <td>22-Apr-2024</td>
                        <td>123 mm[Hg]</td>
                     </tr>
                  </table>
               </div>
            </text>
            <status value="final"/>
            <category>
               <coding>
                  <system value="http://terminology.hl7.org/CodeSystem/observation-category"/>
                  <code value="vital-signs"/>
                  <display value="Vital Signs"/>
               </coding>
            </category>
            <code>
               <coding>
                  <system value="http://loinc.org"/>
                  <code value="$8480-6"/>
                  <display value="Systolic Blood Pressure"/>
               </coding>
            </code>
            <subject>
               <reference value="urn:uuid:e51a5d0c-0e99-41cf-aa6f-9c70d3b634f0"/>
               <display value="Eileen Taylor"/>
            </subject>
            <effectiveDateTime value="2024-04-22"/>
            <valueQuantity>
               <value value="123"/>
               <unit value="mm[Hg]"/>
               <code value="mm[Hg]"/>
            </valueQuantity>
         </Observation>
      </resource>
   </entry>
   <entry>
      <fullUrl value="urn:uuid:bd3a7b44-d8cb-4694-85f4-d86c491d8dfa"/>
      <resource>
         <Observation>
            <id value="bd3a7b44-d8cb-4694-85f4-d86c491d8dfa"/>
            <meta>
               <profile value="http://hl7.org/fhir/StructureDefinition/vitalsigns"/>
            </meta>
            <text>
               <status value="generated"/>
               <div xmlns="http://www.w3.org/1999/xhtml">
                  <table class="hl7__ips">
                     <tr>
                        <th>Vital Sign</th>
                        <th>Date</th>
                        <th>Measurement</th>
                     </tr>
                     <tr>
                        <td>Heart rate</td>
                        <td>22-Apr-2024</td>
                        <td>67 /min</td>
                     </tr>
                  </table>
               </div>
            </text>
            <status value="final"/>
            <category>
               <coding>
                  <system value="http://terminology.hl7.org/CodeSystem/observation-category"/>
                  <code value="vital-signs"/>
                  <display value="Vital Signs"/>
               </coding>
            </category>
            <code>
               <coding>
                  <system value="http://loinc.org"/>
                  <code value="$8867-4"/>
                  <display value="Heart rate"/>
               </coding>
            </code>
            <subject>
               <reference value="urn:uuid:e51a5d0c-0e99-41cf-aa6f-9c70d3b634f0"/>
               <display value="Eileen Taylor"/>
            </subject>
            <effectiveDateTime value="2024-04-22"/>
            <valueQuantity>
               <value value="67"/>
               <unit value="/min"/>
               <code value="/min"/>
            </valueQuantity>
         </Observation>
      </resource>
   </entry>
   <entry>
      <fullUrl value="urn:uuid:a09e6361-c17c-4e97-9522-18fc46d458dd"/>
      <resource>
         <Observation>
            <id value="a09e6361-c17c-4e97-9522-18fc46d458dd"/>
            <meta>
               <profile value="http://hl7.org/fhir/StructureDefinition/vitalsigns"/>
            </meta>
            <text>
               <status value="generated"/>
               <div xmlns="http://www.w3.org/1999/xhtml">
                  <table class="hl7__ips">
                     <tr>
                        <th>Vital Sign</th>
                        <th>Date</th>
                        <th>Measurement</th>
                     </tr>
                     <tr>
                        <td>Respiratory rate</td>
                        <td>22-Apr-2024</td>
                        <td>12 /min</td>
                     </tr>
                  </table>
               </div>
            </text>
            <status value="final"/>
            <category>
               <coding>
                  <system value="http://terminology.hl7.org/CodeSystem/observation-category"/>
                  <code value="vital-signs"/>
                  <display value="Vital Signs"/>
               </coding>
            </category>
            <code>
               <coding>
                  <system value="http://loinc.org"/>
                  <code value="$9279-1"/>
                  <display value="Respiratory rate"/>
               </coding>
            </code>
            <subject>
               <reference value="urn:uuid:e51a5d0c-0e99-41cf-aa6f-9c70d3b634f0"/>
               <display value="Eileen Taylor"/>
            </subject>
            <effectiveDateTime value="2024-04-22"/>
            <valueQuantity>
               <value value="12"/>
               <unit value="/min"/>
               <code value="/min"/>
            </valueQuantity>
         </Observation>
      </resource>
   </entry>
   <entry>
      <fullUrl value="urn:uuid:295a128f-b535-4ab3-888b-340fcfb80c86"/>
      <resource>
         <Observation>
            <id value="295a128f-b535-4ab3-888b-340fcfb80c86"/>
            <meta>
               <profile value="http://hl7.eu/fhir/laboratory/StructureDefinition/Observation-resultslab-eu-lab"/>
            </meta>
            <text>
               <status value="generated"/>
               <div xmlns="http://www.w3.org/1999/xhtml">
                  <table class="hl7__eu__lab__report">
                     <tr>
                        <th>Test</th>
                        <th>05-May-2025</th>
                        <th>Reference Range</th>
                        <th>Unit</th>
                     </tr>
                     <tr>
                        <td>Glucose [Mass/volume] in Blood</td>
                        <td>99.4</td>
                        <td>70 - 140</td>
                        <td/>
                        <td>mg/dL</td>
                     </tr>
                  </table>
               </div>
            </text>
            <status value="final"/>
            <category>
               <coding>
                  <system value="http://terminology.hl7.org/CodeSystem/observation-category"/>
                  <code value="laboratory"/>
               </coding>
            </category>
            <code>
               <coding>
                  <system value="http://loinc.org"/>
                  <code value="2339-0"/>
                  <display value="Glucose [Mass/volume] in Blood"/>
               </coding>
               <text value="Glucose [Mass/volume] in Blood"/>
            </code>
            <subject>
               <reference value="urn:uuid:e51a5d0c-0e99-41cf-aa6f-9c70d3b634f0"/>
               <display value="Eileen Taylor"/>
            </subject>
            <effectiveDateTime value="2025-05-05T05:47:02Z"/>
            <performer>
               <display value="The Central European Lab"/>
            </performer>
            <valueQuantity>
               <value value="99.4"/>
               <unit value="mg/dL"/>
               <system value="http://unitsofmeasure.org"/>
               <code value="mg/dL"/>
            </valueQuantity>
            <referenceRange>
               <low>
                  <value value="70"/>
                  <system value="http://unitsofmeasure.org"/>
                  <code value="mg/dL"/>
               </low>
            </referenceRange>
            <referenceRange>
               <high>
                  <value value="140"/>
                  <system value="http://unitsofmeasure.org"/>
                  <code value="mg/dL"/>
               </high>
            </referenceRange>
         </Observation>
      </resource>
   </entry>
   <entry>
      <fullUrl value="urn:uuid:cee4091b-14c3-433a-a7e7-cc6df7f54141"/>
      <resource>
         <Observation>
            <id value="cee4091b-14c3-433a-a7e7-cc6df7f54141"/>
            <meta>
               <profile value="http://hl7.eu/fhir/laboratory/StructureDefinition/Observation-resultslab-eu-lab"/>
            </meta>
            <text>
               <status value="generated"/>
               <div xmlns="http://www.w3.org/1999/xhtml">
                  <table class="hl7__eu__lab__report">
                     <tr>
                        <th>Test</th>
                        <th>05-May-2025</th>
                        <th>Reference Range</th>
                        <th>Unit</th>
                     </tr>
                     <tr>
                        <td>Urea nitrogen [Mass/volume] in Blood</td>
                        <td>15.8</td>
                        <td>7 - 20</td>
                        <td/>
                        <td>mg/dL</td>
                     </tr>
                  </table>
               </div>
            </text>
            <status value="final"/>
            <category>
               <coding>
                  <system value="http://terminology.hl7.org/CodeSystem/observation-category"/>
                  <code value="laboratory"/>
               </coding>
            </category>
            <code>
               <coding>
                  <system value="http://loinc.org"/>
                  <code value="6299-2"/>
                  <display value="Urea nitrogen [Mass/volume] in Blood"/>
               </coding>
               <text value="Urea nitrogen [Mass/volume] in Blood"/>
            </code>
            <subject>
               <reference value="urn:uuid:e51a5d0c-0e99-41cf-aa6f-9c70d3b634f0"/>
               <display value="Eileen Taylor"/>
            </subject>
            <effectiveDateTime value="2025-05-05T05:47:02Z"/>
            <performer>
               <display value="The Central European Lab"/>
            </performer>
            <valueQuantity>
               <value value="15.8"/>
               <unit value="mg/dL"/>
               <system value="http://unitsofmeasure.org"/>
               <code value="mg/dL"/>
            </valueQuantity>
            <referenceRange>
               <low>
                  <value value="7"/>
                  <system value="http://unitsofmeasure.org"/>
                  <code value="mg/dL"/>
               </low>
            </referenceRange>
            <referenceRange>
               <high>
                  <value value="20"/>
                  <system value="http://unitsofmeasure.org"/>
                  <code value="mg/dL"/>
               </high>
            </referenceRange>
         </Observation>
      </resource>
   </entry>
   <entry>
      <fullUrl value="urn:uuid:dff75ab0-9509-473c-9550-3c3c543c73c7"/>
      <resource>
         <Observation>
            <id value="dff75ab0-9509-473c-9550-3c3c543c73c7"/>
            <meta>
               <profile value="http://hl7.eu/fhir/laboratory/StructureDefinition/Observation-resultslab-eu-lab"/>
            </meta>
            <text>
               <status value="generated"/>
               <div xmlns="http://www.w3.org/1999/xhtml">
                  <table class="hl7__eu__lab__report">
                     <tr>
                        <th>Test</th>
                        <th>05-May-2025</th>
                        <th>Reference Range</th>
                        <th>Unit</th>
                     </tr>
                     <tr>
                        <td>Creatinine [Mass/volume] in Blood</td>
                        <td>3.1</td>
                        <td>0.6 - 1.1</td>
                        <td>H</td>
                        <td>mg/dL</td>
                     </tr>
                  </table>
               </div>
            </text>
            <status value="final"/>
            <category>
               <coding>
                  <system value="http://terminology.hl7.org/CodeSystem/observation-category"/>
                  <code value="laboratory"/>
               </coding>
            </category>
            <code>
               <coding>
                  <system value="http://loinc.org"/>
                  <code value="38483-4"/>
                  <display value="Creatinine [Mass/volume] in Blood"/>
               </coding>
               <text value="Creatinine [Mass/volume] in Blood"/>
            </code>
            <subject>
               <reference value="urn:uuid:e51a5d0c-0e99-41cf-aa6f-9c70d3b634f0"/>
               <display value="Eileen Taylor"/>
            </subject>
            <effectiveDateTime value="2025-05-05T05:47:02Z"/>
            <performer>
               <display value="The Central European Lab"/>
            </performer>
            <valueQuantity>
               <value value="3.1"/>
               <unit value="mg/dL"/>
               <system value="http://unitsofmeasure.org"/>
               <code value="mg/dL"/>
            </valueQuantity>
            <interpretation>
               <coding>
                  <system value="http://terminology.hl7.org/CodeSystem/v3-ObservationInterpretation"/>
                  <code value="H"/>
                  <display value="High"/>
               </coding>
            </interpretation>
            <referenceRange>
               <low>
                  <value value="0.6"/>
                  <system value="http://unitsofmeasure.org"/>
                  <code value="mg/dL"/>
               </low>
            </referenceRange>
            <referenceRange>
               <high>
                  <value value="1.1"/>
                  <system value="http://unitsofmeasure.org"/>
                  <code value="mg/dL"/>
               </high>
            </referenceRange>
         </Observation>
      </resource>
   </entry>
   <entry>
      <fullUrl value="urn:uuid:70be9026-bebf-4e79-98c4-4cff3d12c32f"/>
      <resource>
         <Observation>
            <id value="70be9026-bebf-4e79-98c4-4cff3d12c32f"/>
            <meta>
               <profile value="http://hl7.eu/fhir/laboratory/StructureDefinition/Observation-resultslab-eu-lab"/>
            </meta>
            <text>
               <status value="generated"/>
               <div xmlns="http://www.w3.org/1999/xhtml">
                  <table class="hl7__eu__lab__report">
                     <tr>
                        <th>Test</th>
                        <th>05-May-2025</th>
                        <th>Reference Range</th>
                        <th>Unit</th>
                     </tr>
                     <tr>
                        <td>Calcium [Mass/volume] in Blood</td>
                        <td>9.7</td>
                        <td>8.5 - 10.4</td>
                        <td/>
                        <td>mg/dL</td>
                     </tr>
                  </table>
               </div>
            </text>
            <status value="final"/>
            <category>
               <coding>
                  <system value="http://terminology.hl7.org/CodeSystem/observation-category"/>
                  <code value="laboratory"/>
               </coding>
            </category>
            <code>
               <coding>
                  <system value="http://loinc.org"/>
                  <code value="49765-1"/>
                  <display value="Calcium [Mass/volume] in Blood"/>
               </coding>
               <text value="Calcium [Mass/volume] in Blood"/>
            </code>
            <subject>
               <reference value="urn:uuid:e51a5d0c-0e99-41cf-aa6f-9c70d3b634f0"/>
               <display value="Eileen Taylor"/>
            </subject>
            <effectiveDateTime value="2025-05-05T05:47:02Z"/>
            <performer>
               <display value="The Central European Lab"/>
            </performer>
            <valueQuantity>
               <value value="9.7"/>
               <unit value="mg/dL"/>
               <system value="http://unitsofmeasure.org"/>
               <code value="mg/dL"/>
            </valueQuantity>
            <referenceRange>
               <low>
                  <value value="8.5"/>
                  <system value="http://unitsofmeasure.org"/>
                  <code value="mg/dL"/>
               </low>
            </referenceRange>
            <referenceRange>
               <high>
                  <value value="10.4"/>
                  <system value="http://unitsofmeasure.org"/>
                  <code value="mg/dL"/>
               </high>
            </referenceRange>
         </Observation>
      </resource>
   </entry>
   <entry>
      <fullUrl value="urn:uuid:a2f22325-086f-45d0-9641-92322ad56ec4"/>
      <resource>
         <Observation>
            <id value="a2f22325-086f-45d0-9641-92322ad56ec4"/>
            <meta>
               <profile value="http://hl7.eu/fhir/laboratory/StructureDefinition/Observation-resultslab-eu-lab"/>
            </meta>
            <text>
               <status value="generated"/>
               <div xmlns="http://www.w3.org/1999/xhtml">
                  <table class="hl7__eu__lab__report">
                     <tr>
                        <th>Test</th>
                        <th>05-May-2025</th>
                        <th>Reference Range</th>
                        <th>Unit</th>
                     </tr>
                     <tr>
                        <td>Sodium [Moles/volume] in Blood</td>
                        <td>136.4</td>
                        <td>135 - 145</td>
                        <td/>
                        <td>mmol/L</td>
                     </tr>
                  </table>
               </div>
            </text>
            <status value="final"/>
            <category>
               <coding>
                  <system value="http://terminology.hl7.org/CodeSystem/observation-category"/>
                  <code value="laboratory"/>
               </coding>
            </category>
            <code>
               <coding>
                  <system value="http://loinc.org"/>
                  <code value="2947-0"/>
                  <display value="Sodium [Moles/volume] in Blood"/>
               </coding>
               <text value="Sodium [Moles/volume] in Blood"/>
            </code>
            <subject>
               <reference value="urn:uuid:e51a5d0c-0e99-41cf-aa6f-9c70d3b634f0"/>
               <display value="Eileen Taylor"/>
            </subject>
            <effectiveDateTime value="2025-05-05T05:47:02Z"/>
            <performer>
               <display value="The Central European Lab"/>
            </performer>
            <valueQuantity>
               <value value="136.4"/>
               <unit value="mmol/L"/>
               <system value="http://unitsofmeasure.org"/>
               <code value="mmol/L"/>
            </valueQuantity>
            <referenceRange>
               <low>
                  <value value="135"/>
                  <system value="http://unitsofmeasure.org"/>
                  <code value="mmol/L"/>
               </low>
            </referenceRange>
            <referenceRange>
               <high>
                  <value value="145"/>
                  <system value="http://unitsofmeasure.org"/>
                  <code value="mmol/L"/>
               </high>
            </referenceRange>
         </Observation>
      </resource>
   </entry>
   <entry>
      <fullUrl value="urn:uuid:d0305f6f-dcd3-49bb-882a-d7654bf0c1e1"/>
      <resource>
         <Observation>
            <id value="d0305f6f-dcd3-49bb-882a-d7654bf0c1e1"/>
            <meta>
               <profile value="http://hl7.eu/fhir/laboratory/StructureDefinition/Observation-resultslab-eu-lab"/>
            </meta>
            <text>
               <status value="generated"/>
               <div xmlns="http://www.w3.org/1999/xhtml">
                  <table class="hl7__eu__lab__report">
                     <tr>
                        <th>Test</th>
                        <th>05-May-2025</th>
                        <th>Reference Range</th>
                        <th>Unit</th>
                     </tr>
                     <tr>
                        <td>Potassium [Moles/volume] in Blood</td>
                        <td>4.5</td>
                        <td>3.5 - 5.1</td>
                        <td/>
                        <td>mmol/L</td>
                     </tr>
                  </table>
               </div>
            </text>
            <status value="final"/>
            <category>
               <coding>
                  <system value="http://terminology.hl7.org/CodeSystem/observation-category"/>
                  <code value="laboratory"/>
               </coding>
            </category>
            <code>
               <coding>
                  <system value="http://loinc.org"/>
                  <code value="6298-4"/>
                  <display value="Potassium [Moles/volume] in Blood"/>
               </coding>
               <text value="Potassium [Moles/volume] in Blood"/>
            </code>
            <subject>
               <reference value="urn:uuid:e51a5d0c-0e99-41cf-aa6f-9c70d3b634f0"/>
               <display value="Eileen Taylor"/>
            </subject>
            <effectiveDateTime value="2025-05-05T05:47:02Z"/>
            <performer>
               <display value="The Central European Lab"/>
            </performer>
            <valueQuantity>
               <value value="4.5"/>
               <unit value="mmol/L"/>
               <system value="http://unitsofmeasure.org"/>
               <code value="mmol/L"/>
            </valueQuantity>
            <referenceRange>
               <low>
                  <value value="3.5"/>
                  <system value="http://unitsofmeasure.org"/>
                  <code value="mmol/L"/>
               </low>
            </referenceRange>
            <referenceRange>
               <high>
                  <value value="5.1"/>
                  <system value="http://unitsofmeasure.org"/>
                  <code value="mmol/L"/>
               </high>
            </referenceRange>
         </Observation>
      </resource>
   </entry>
   <entry>
      <fullUrl value="urn:uuid:2571f6b3-616a-4009-837b-734af83a9fa8"/>
      <resource>
         <Observation>
            <id value="2571f6b3-616a-4009-837b-734af83a9fa8"/>
            <meta>
               <profile value="http://hl7.eu/fhir/laboratory/StructureDefinition/Observation-resultslab-eu-lab"/>
            </meta>
            <text>
               <status value="generated"/>
               <div xmlns="http://www.w3.org/1999/xhtml">
                  <table class="hl7__eu__lab__report">
                     <tr>
                        <th>Test</th>
                        <th>05-May-2025</th>
                        <th>Reference Range</th>
                        <th>Unit</th>
                     </tr>
                     <tr>
                        <td>Chloride [Moles/volume] in Blood</td>
                        <td>105.1</td>
                        <td>98 - 108</td>
                        <td/>
                        <td>mmol/L</td>
                     </tr>
                  </table>
               </div>
            </text>
            <status value="final"/>
            <category>
               <coding>
                  <system value="http://terminology.hl7.org/CodeSystem/observation-category"/>
                  <code value="laboratory"/>
               </coding>
            </category>
            <code>
               <coding>
                  <system value="http://loinc.org"/>
                  <code value="2069-3"/>
                  <display value="Chloride [Moles/volume] in Blood"/>
               </coding>
               <text value="Chloride [Moles/volume] in Blood"/>
            </code>
            <subject>
               <reference value="urn:uuid:e51a5d0c-0e99-41cf-aa6f-9c70d3b634f0"/>
               <display value="Eileen Taylor"/>
            </subject>
            <effectiveDateTime value="2025-05-05T05:47:02Z"/>
            <performer>
               <display value="The Central European Lab"/>
            </performer>
            <valueQuantity>
               <value value="105.1"/>
               <unit value="mmol/L"/>
               <system value="http://unitsofmeasure.org"/>
               <code value="mmol/L"/>
            </valueQuantity>
            <referenceRange>
               <low>
                  <value value="98"/>
                  <system value="http://unitsofmeasure.org"/>
                  <code value="mmol/L"/>
               </low>
            </referenceRange>
            <referenceRange>
               <high>
                  <value value="108"/>
                  <system value="http://unitsofmeasure.org"/>
                  <code value="mmol/L"/>
               </high>
            </referenceRange>
         </Observation>
      </resource>
   </entry>
   <entry>
      <fullUrl value="urn:uuid:b6b9e716-8dfa-46bb-8cbb-ad1b3a35cac8"/>
      <resource>
         <Observation>
            <id value="b6b9e716-8dfa-46bb-8cbb-ad1b3a35cac8"/>
            <meta>
               <profile value="http://hl7.eu/fhir/laboratory/StructureDefinition/Observation-resultslab-eu-lab"/>
            </meta>
            <text>
               <status value="generated"/>
               <div xmlns="http://www.w3.org/1999/xhtml">
                  <table class="hl7__eu__lab__report">
                     <tr>
                        <th>Test</th>
                        <th>05-May-2025</th>
                        <th>Reference Range</th>
                        <th>Unit</th>
                     </tr>
                     <tr>
                        <td>Carbon dioxide, total [Moles/volume] in Blood</td>
                        <td>26.1</td>
                        <td>22 - 29</td>
                        <td/>
                        <td>mmol/L</td>
                     </tr>
                  </table>
               </div>
            </text>
            <status value="final"/>
            <category>
               <coding>
                  <system value="http://terminology.hl7.org/CodeSystem/observation-category"/>
                  <code value="laboratory"/>
               </coding>
            </category>
            <code>
               <coding>
                  <system value="http://loinc.org"/>
                  <code value="20565-8"/>
                  <display value="Carbon dioxide, total [Moles/volume] in Blood"/>
               </coding>
               <text value="Carbon dioxide, total [Moles/volume] in Blood"/>
            </code>
            <subject>
               <reference value="urn:uuid:e51a5d0c-0e99-41cf-aa6f-9c70d3b634f0"/>
               <display value="Eileen Taylor"/>
            </subject>
            <effectiveDateTime value="2025-05-05T05:47:02Z"/>
            <performer>
               <display value="The Central European Lab"/>
            </performer>
            <valueQuantity>
               <value value="26.1"/>
               <unit value="mmol/L"/>
               <system value="http://unitsofmeasure.org"/>
               <code value="mmol/L"/>
            </valueQuantity>
            <referenceRange>
               <low>
                  <value value="22"/>
                  <system value="http://unitsofmeasure.org"/>
                  <code value="mmol/L"/>
               </low>
            </referenceRange>
            <referenceRange>
               <high>
                  <value value="29"/>
                  <system value="http://unitsofmeasure.org"/>
                  <code value="mmol/L"/>
               </high>
            </referenceRange>
         </Observation>
      </resource>
   </entry>
   <entry>
      <fullUrl value="urn:uuid:8354cdf9-f4a2-4df6-9be7-863b189cb65a"/>
      <resource>
         <Observation>
            <id value="8354cdf9-f4a2-4df6-9be7-863b189cb65a"/>
            <meta>
               <profile value="http://hl7.eu/fhir/laboratory/StructureDefinition/Observation-resultslab-eu-lab"/>
            </meta>
            <text>
               <status value="generated"/>
               <div xmlns="http://www.w3.org/1999/xhtml">
                  <table class="hl7__eu__lab__report">
                     <tr>
                        <th>Test</th>
                        <th>05-May-2025</th>
                        <th>Reference Range</th>
                        <th>Unit</th>
                     </tr>
                     <tr>
                        <td>Protein [Mass/volume] in Serum or Plasma</td>
                        <td>6.8</td>
                        <td>6 - 8.3</td>
                        <td/>
                        <td>g/dL</td>
                     </tr>
                  </table>
               </div>
            </text>
            <status value="final"/>
            <category>
               <coding>
                  <system value="http://terminology.hl7.org/CodeSystem/observation-category"/>
                  <code value="laboratory"/>
               </coding>
            </category>
            <code>
               <coding>
                  <system value="http://loinc.org"/>
                  <code value="2885-2"/>
                  <display value="Protein [Mass/volume] in Serum or Plasma"/>
               </coding>
               <text value="Protein [Mass/volume] in Serum or Plasma"/>
            </code>
            <subject>
               <reference value="urn:uuid:e51a5d0c-0e99-41cf-aa6f-9c70d3b634f0"/>
               <display value="Eileen Taylor"/>
            </subject>
            <effectiveDateTime value="2025-05-05T05:47:02Z"/>
            <performer>
               <display value="The Central European Lab"/>
            </performer>
            <valueQuantity>
               <value value="6.8"/>
               <unit value="g/dL"/>
               <system value="http://unitsofmeasure.org"/>
               <code value="g/dL"/>
            </valueQuantity>
            <referenceRange>
               <low>
                  <value value="6"/>
                  <system value="http://unitsofmeasure.org"/>
                  <code value="g/dL"/>
               </low>
            </referenceRange>
            <referenceRange>
               <high>
                  <value value="8.3"/>
                  <system value="http://unitsofmeasure.org"/>
                  <code value="g/dL"/>
               </high>
            </referenceRange>
         </Observation>
      </resource>
   </entry>
   <entry>
      <fullUrl value="urn:uuid:7bc93415-2151-41de-926a-be2cef93f8b0"/>
      <resource>
         <Observation>
            <id value="7bc93415-2151-41de-926a-be2cef93f8b0"/>
            <meta>
               <profile value="http://hl7.eu/fhir/laboratory/StructureDefinition/Observation-resultslab-eu-lab"/>
            </meta>
            <text>
               <status value="generated"/>
               <div xmlns="http://www.w3.org/1999/xhtml">
                  <table class="hl7__eu__lab__report">
                     <tr>
                        <th>Test</th>
                        <th>05-May-2025</th>
                        <th>Reference Range</th>
                        <th>Unit</th>
                     </tr>
                     <tr>
                        <td>Albumin [Mass/volume] in Serum or Plasma</td>
                        <td>5.2</td>
                        <td>3.4 - 5</td>
                        <td>H</td>
                        <td>g/dL</td>
                     </tr>
                  </table>
               </div>
            </text>
            <status value="final"/>
            <category>
               <coding>
                  <system value="http://terminology.hl7.org/CodeSystem/observation-category"/>
                  <code value="laboratory"/>
               </coding>
            </category>
            <code>
               <coding>
                  <system value="http://loinc.org"/>
                  <code value="1751-7"/>
                  <display value="Albumin [Mass/volume] in Serum or Plasma"/>
               </coding>
               <text value="Albumin [Mass/volume] in Serum or Plasma"/>
            </code>
            <subject>
               <reference value="urn:uuid:e51a5d0c-0e99-41cf-aa6f-9c70d3b634f0"/>
               <display value="Eileen Taylor"/>
            </subject>
            <effectiveDateTime value="2025-05-05T05:47:02Z"/>
            <performer>
               <display value="The Central European Lab"/>
            </performer>
            <valueQuantity>
               <value value="5.2"/>
               <unit value="g/dL"/>
               <system value="http://unitsofmeasure.org"/>
               <code value="g/dL"/>
            </valueQuantity>
            <interpretation>
               <coding>
                  <system value="http://terminology.hl7.org/CodeSystem/v3-ObservationInterpretation"/>
                  <code value="H"/>
                  <display value="High"/>
               </coding>
            </interpretation>
            <referenceRange>
               <low>
                  <value value="3.4"/>
                  <system value="http://unitsofmeasure.org"/>
                  <code value="g/dL"/>
               </low>
            </referenceRange>
            <referenceRange>
               <high>
                  <value value="5"/>
                  <system value="http://unitsofmeasure.org"/>
                  <code value="g/dL"/>
               </high>
            </referenceRange>
         </Observation>
      </resource>
   </entry>
   <entry>
      <fullUrl value="urn:uuid:8e43396b-a690-46ef-92c6-9061f620ab9f"/>
      <resource>
         <Observation>
            <id value="8e43396b-a690-46ef-92c6-9061f620ab9f"/>
            <meta>
               <profile value="http://hl7.eu/fhir/laboratory/StructureDefinition/Observation-resultslab-eu-lab"/>
            </meta>
            <text>
               <status value="generated"/>
               <div xmlns="http://www.w3.org/1999/xhtml">
                  <table class="hl7__eu__lab__report">
                     <tr>
                        <th>Test</th>
                        <th>05-May-2025</th>
                        <th>Reference Range</th>
                        <th>Unit</th>
                     </tr>
                     <tr>
                        <td>Globulin [Mass/volume] in Serum by calculation</td>
                        <td>2.1</td>
                        <td>2 - 3.5</td>
                        <td/>
                        <td>g/L</td>
                     </tr>
                  </table>
               </div>
            </text>
            <status value="final"/>
            <category>
               <coding>
                  <system value="http://terminology.hl7.org/CodeSystem/observation-category"/>
                  <code value="laboratory"/>
               </coding>
            </category>
            <code>
               <coding>
                  <system value="http://loinc.org"/>
                  <code value="10834-0"/>
                  <display value="Globulin [Mass/volume] in Serum by calculation"/>
               </coding>
               <text value="Globulin [Mass/volume] in Serum by calculation"/>
            </code>
            <subject>
               <reference value="urn:uuid:e51a5d0c-0e99-41cf-aa6f-9c70d3b634f0"/>
               <display value="Eileen Taylor"/>
            </subject>
            <effectiveDateTime value="2025-05-05T05:47:02Z"/>
            <performer>
               <display value="The Central European Lab"/>
            </performer>
            <valueQuantity>
               <value value="2.1"/>
               <unit value="g/L"/>
               <system value="http://unitsofmeasure.org"/>
               <code value="g/L"/>
            </valueQuantity>
            <referenceRange>
               <low>
                  <value value="2"/>
                  <system value="http://unitsofmeasure.org"/>
                  <code value="g/L"/>
               </low>
            </referenceRange>
            <referenceRange>
               <high>
                  <value value="3.5"/>
                  <system value="http://unitsofmeasure.org"/>
                  <code value="g/L"/>
               </high>
            </referenceRange>
         </Observation>
      </resource>
   </entry>
   <entry>
      <fullUrl value="urn:uuid:a50b761c-a5c8-488c-b92a-761d8dc6708f"/>
      <resource>
         <Observation>
            <id value="a50b761c-a5c8-488c-b92a-761d8dc6708f"/>
            <meta>
               <profile value="http://hl7.eu/fhir/laboratory/StructureDefinition/Observation-resultslab-eu-lab"/>
            </meta>
            <text>
               <status value="generated"/>
               <div xmlns="http://www.w3.org/1999/xhtml">
                  <table class="hl7__eu__lab__report">
                     <tr>
                        <th>Test</th>
                        <th>05-May-2025</th>
                        <th>Reference Range</th>
                        <th>Unit</th>
                     </tr>
                     <tr>
                        <td>Bilirubin.total [Mass/volume] in Serum or Plasma</td>
                        <td>0.7</td>
                        <td>0.2 - 1.2</td>
                        <td/>
                        <td>mg/dL</td>
                     </tr>
                  </table>
               </div>
            </text>
            <status value="final"/>
            <category>
               <coding>
                  <system value="http://terminology.hl7.org/CodeSystem/observation-category"/>
                  <code value="laboratory"/>
               </coding>
            </category>
            <code>
               <coding>
                  <system value="http://loinc.org"/>
                  <code value="1975-2"/>
                  <display value="Bilirubin.total [Mass/volume] in Serum or Plasma"/>
               </coding>
               <text value="Bilirubin.total [Mass/volume] in Serum or Plasma"/>
            </code>
            <subject>
               <reference value="urn:uuid:e51a5d0c-0e99-41cf-aa6f-9c70d3b634f0"/>
               <display value="Eileen Taylor"/>
            </subject>
            <effectiveDateTime value="2025-05-05T05:47:02Z"/>
            <performer>
               <display value="The Central European Lab"/>
            </performer>
            <valueQuantity>
               <value value="0.7"/>
               <unit value="mg/dL"/>
               <system value="http://unitsofmeasure.org"/>
               <code value="mg/dL"/>
            </valueQuantity>
            <referenceRange>
               <low>
                  <value value="0.2"/>
                  <system value="http://unitsofmeasure.org"/>
                  <code value="mg/dL"/>
               </low>
            </referenceRange>
            <referenceRange>
               <high>
                  <value value="1.2"/>
                  <system value="http://unitsofmeasure.org"/>
                  <code value="mg/dL"/>
               </high>
            </referenceRange>
         </Observation>
      </resource>
   </entry>
   <entry>
      <fullUrl value="urn:uuid:efc07344-2994-40be-95d7-f553c0eed6f3"/>
      <resource>
         <Observation>
            <id value="efc07344-2994-40be-95d7-f553c0eed6f3"/>
            <meta>
               <profile value="http://hl7.eu/fhir/laboratory/StructureDefinition/Observation-resultslab-eu-lab"/>
            </meta>
            <text>
               <status value="generated"/>
               <div xmlns="http://www.w3.org/1999/xhtml">
                  <table class="hl7__eu__lab__report">
                     <tr>
                        <th>Test</th>
                        <th>05-May-2025</th>
                        <th>Reference Range</th>
                        <th>Unit</th>
                     </tr>
                     <tr>
                        <td>Alkaline phosphatase [Enzymatic activity/volume] in Serum or Plasma</td>
                        <td>127.5</td>
                        <td>44 - 104</td>
                        <td>H</td>
                        <td>U/L</td>
                     </tr>
                  </table>
               </div>
            </text>
            <status value="final"/>
            <category>
               <coding>
                  <system value="http://terminology.hl7.org/CodeSystem/observation-category"/>
                  <code value="laboratory"/>
               </coding>
            </category>
            <code>
               <coding>
                  <system value="http://loinc.org"/>
                  <code value="6768-6"/>
                  <display value="Alkaline phosphatase [Enzymatic activity/volume] in Serum or Plasma"/>
               </coding>
               <text value="Alkaline phosphatase [Enzymatic activity/volume] in Serum or Plasma"/>
            </code>
            <subject>
               <reference value="urn:uuid:e51a5d0c-0e99-41cf-aa6f-9c70d3b634f0"/>
               <display value="Eileen Taylor"/>
            </subject>
            <effectiveDateTime value="2025-05-05T05:47:02Z"/>
            <performer>
               <display value="The Central European Lab"/>
            </performer>
            <valueQuantity>
               <value value="127.5"/>
               <unit value="U/L"/>
               <system value="http://unitsofmeasure.org"/>
               <code value="U/L"/>
            </valueQuantity>
            <interpretation>
               <coding>
                  <system value="http://terminology.hl7.org/CodeSystem/v3-ObservationInterpretation"/>
                  <code value="H"/>
                  <display value="High"/>
               </coding>
            </interpretation>
            <referenceRange>
               <low>
                  <value value="44"/>
                  <system value="http://unitsofmeasure.org"/>
                  <code value="U/L"/>
               </low>
            </referenceRange>
            <referenceRange>
               <high>
                  <value value="104"/>
                  <system value="http://unitsofmeasure.org"/>
                  <code value="U/L"/>
               </high>
            </referenceRange>
         </Observation>
      </resource>
   </entry>
   <entry>
      <fullUrl value="urn:uuid:d3128d67-284f-439a-8faf-21cac4738e16"/>
      <resource>
         <Observation>
            <id value="d3128d67-284f-439a-8faf-21cac4738e16"/>
            <meta>
               <profile value="http://hl7.eu/fhir/laboratory/StructureDefinition/Observation-resultslab-eu-lab"/>
            </meta>
            <text>
               <status value="generated"/>
               <div xmlns="http://www.w3.org/1999/xhtml">
                  <table class="hl7__eu__lab__report">
                     <tr>
                        <th>Test</th>
                        <th>05-May-2025</th>
                        <th>Reference Range</th>
                        <th>Unit</th>
                     </tr>
                     <tr>
                        <td>Alanine aminotransferase [Enzymatic activity/volume] in Serum or Plasma</td>
                        <td>46.3</td>
                        <td>13 - 36</td>
                        <td>H</td>
                        <td>U/L</td>
                     </tr>
                  </table>
               </div>
            </text>
            <status value="final"/>
            <category>
               <coding>
                  <system value="http://terminology.hl7.org/CodeSystem/observation-category"/>
                  <code value="laboratory"/>
               </coding>
            </category>
            <code>
               <coding>
                  <system value="http://loinc.org"/>
                  <code value="1742-6"/>
                  <display value="Alanine aminotransferase [Enzymatic activity/volume] in Serum or Plasma"/>
               </coding>
               <text value="Alanine aminotransferase [Enzymatic activity/volume] in Serum or Plasma"/>
            </code>
            <subject>
               <reference value="urn:uuid:e51a5d0c-0e99-41cf-aa6f-9c70d3b634f0"/>
               <display value="Eileen Taylor"/>
            </subject>
            <effectiveDateTime value="2025-05-05T05:47:02Z"/>
            <performer>
               <display value="The Central European Lab"/>
            </performer>
            <valueQuantity>
               <value value="46.3"/>
               <unit value="U/L"/>
               <system value="http://unitsofmeasure.org"/>
               <code value="U/L"/>
            </valueQuantity>
            <interpretation>
               <coding>
                  <system value="http://terminology.hl7.org/CodeSystem/v3-ObservationInterpretation"/>
                  <code value="H"/>
                  <display value="High"/>
               </coding>
            </interpretation>
            <referenceRange>
               <low>
                  <value value="13"/>
                  <system value="http://unitsofmeasure.org"/>
                  <code value="U/L"/>
               </low>
            </referenceRange>
            <referenceRange>
               <high>
                  <value value="36"/>
                  <system value="http://unitsofmeasure.org"/>
                  <code value="U/L"/>
               </high>
            </referenceRange>
         </Observation>
      </resource>
   </entry>
   <entry>
      <fullUrl value="urn:uuid:ee9d82fb-d574-4658-8e21-6ee8e2cb81a2"/>
      <resource>
         <Observation>
            <id value="ee9d82fb-d574-4658-8e21-6ee8e2cb81a2"/>
            <meta>
               <profile value="http://hl7.eu/fhir/laboratory/StructureDefinition/Observation-resultslab-eu-lab"/>
            </meta>
            <text>
               <status value="generated"/>
               <div xmlns="http://www.w3.org/1999/xhtml">
                  <table class="hl7__eu__lab__report">
                     <tr>
                        <th>Test</th>
                        <th>05-May-2025</th>
                        <th>Reference Range</th>
                        <th>Unit</th>
                     </tr>
                     <tr>
                        <td>Aspartate aminotransferase [Enzymatic activity/volume] in Serum or Plasma</td>
                        <td>36.8</td>
                        <td>10 - 40</td>
                        <td/>
                        <td>U/L</td>
                     </tr>
                  </table>
               </div>
            </text>
            <status value="final"/>
            <category>
               <coding>
                  <system value="http://terminology.hl7.org/CodeSystem/observation-category"/>
                  <code value="laboratory"/>
               </coding>
            </category>
            <code>
               <coding>
                  <system value="http://loinc.org"/>
                  <code value="1920-8"/>
                  <display value="Aspartate aminotransferase [Enzymatic activity/volume] in Serum or Plasma"/>
               </coding>
               <text value="Aspartate aminotransferase [Enzymatic activity/volume] in Serum or Plasma"/>
            </code>
            <subject>
               <reference value="urn:uuid:e51a5d0c-0e99-41cf-aa6f-9c70d3b634f0"/>
               <display value="Eileen Taylor"/>
            </subject>
            <effectiveDateTime value="2025-05-05T05:47:02Z"/>
            <performer>
               <display value="The Central European Lab"/>
            </performer>
            <valueQuantity>
               <value value="36.8"/>
               <unit value="U/L"/>
               <system value="http://unitsofmeasure.org"/>
               <code value="U/L"/>
            </valueQuantity>
            <referenceRange>
               <low>
                  <value value="10"/>
                  <system value="http://unitsofmeasure.org"/>
                  <code value="U/L"/>
               </low>
            </referenceRange>
            <referenceRange>
               <high>
                  <value value="40"/>
                  <system value="http://unitsofmeasure.org"/>
                  <code value="U/L"/>
               </high>
            </referenceRange>
         </Observation>
      </resource>
   </entry>
   <entry>
      <fullUrl value="urn:uuid:a7b8064a-a5c5-4660-bffb-30814f739965"/>
      <resource>
         <Observation>
            <id value="a7b8064a-a5c5-4660-bffb-30814f739965"/>
            <meta>
               <profile value="http://hl7.eu/fhir/laboratory/StructureDefinition/Observation-resultslab-eu-lab"/>
            </meta>
            <text>
               <status value="generated"/>
               <div xmlns="http://www.w3.org/1999/xhtml">
                  <table class="hl7__eu__lab__report">
                     <tr>
                        <th>Test</th>
                        <th>05-May-2025</th>
                        <th>Reference Range</th>
                        <th>Unit</th>
                     </tr>
                     <tr>
                        <td>Cholesterol [Mass/volume] in Serum or Plasma</td>
                        <td>181.1</td>
                        <td>130 - 200</td>
                        <td/>
                        <td>mg/dL</td>
                     </tr>
                  </table>
               </div>
            </text>
            <status value="final"/>
            <category>
               <coding>
                  <system value="http://terminology.hl7.org/CodeSystem/observation-category"/>
                  <code value="laboratory"/>
               </coding>
            </category>
            <code>
               <coding>
                  <system value="http://loinc.org"/>
                  <code value="2093-3"/>
                  <display value="Cholesterol [Mass/volume] in Serum or Plasma"/>
               </coding>
               <text value="Cholesterol [Mass/volume] in Serum or Plasma"/>
            </code>
            <subject>
               <reference value="urn:uuid:e51a5d0c-0e99-41cf-aa6f-9c70d3b634f0"/>
               <display value="Eileen Taylor"/>
            </subject>
            <effectiveDateTime value="2025-05-05T05:47:02Z"/>
            <performer>
               <display value="The Central European Lab"/>
            </performer>
            <valueQuantity>
               <value value="181.1"/>
               <unit value="mg/dL"/>
               <system value="http://unitsofmeasure.org"/>
               <code value="mg/dL"/>
            </valueQuantity>
            <referenceRange>
               <low>
                  <value value="130"/>
                  <system value="http://unitsofmeasure.org"/>
                  <code value="mg/dL"/>
               </low>
            </referenceRange>
            <referenceRange>
               <high>
                  <value value="200"/>
                  <system value="http://unitsofmeasure.org"/>
                  <code value="mg/dL"/>
               </high>
            </referenceRange>
         </Observation>
      </resource>
   </entry>
   <entry>
      <fullUrl value="urn:uuid:f2ca2787-ea33-4eea-b9c1-17ce9ade01d3"/>
      <resource>
         <Observation>
            <id value="f2ca2787-ea33-4eea-b9c1-17ce9ade01d3"/>
            <meta>
               <profile value="http://hl7.eu/fhir/laboratory/StructureDefinition/Observation-resultslab-eu-lab"/>
            </meta>
            <text>
               <status value="generated"/>
               <div xmlns="http://www.w3.org/1999/xhtml">
                  <table class="hl7__eu__lab__report">
                     <tr>
                        <th>Test</th>
                        <th>05-May-2025</th>
                        <th>Reference Range</th>
                        <th>Unit</th>
                     </tr>
                     <tr>
                        <td>Triglyceride [Mass/volume] in Serum or Plasma</td>
                        <td>101.8</td>
                        <td>35 - 175</td>
                        <td/>
                        <td>mg/dL</td>
                     </tr>
                  </table>
               </div>
            </text>
            <status value="final"/>
            <category>
               <coding>
                  <system value="http://terminology.hl7.org/CodeSystem/observation-category"/>
                  <code value="laboratory"/>
               </coding>
            </category>
            <code>
               <coding>
                  <system value="http://loinc.org"/>
                  <code value="2571-8"/>
                  <display value="Triglyceride [Mass/volume] in Serum or Plasma"/>
               </coding>
               <text value="Triglyceride [Mass/volume] in Serum or Plasma"/>
            </code>
            <subject>
               <reference value="urn:uuid:e51a5d0c-0e99-41cf-aa6f-9c70d3b634f0"/>
               <display value="Eileen Taylor"/>
            </subject>
            <effectiveDateTime value="2025-05-05T05:47:02Z"/>
            <performer>
               <display value="The Central European Lab"/>
            </performer>
            <valueQuantity>
               <value value="101.8"/>
               <unit value="mg/dL"/>
               <system value="http://unitsofmeasure.org"/>
               <code value="mg/dL"/>
            </valueQuantity>
            <referenceRange>
               <low>
                  <value value="35"/>
                  <system value="http://unitsofmeasure.org"/>
                  <code value="mg/dL"/>
               </low>
            </referenceRange>
            <referenceRange>
               <high>
                  <value value="175"/>
                  <system value="http://unitsofmeasure.org"/>
                  <code value="mg/dL"/>
               </high>
            </referenceRange>
         </Observation>
      </resource>
   </entry>
   <entry>
      <fullUrl value="urn:uuid:3879417f-737f-4b6a-b4b1-9d10221ff7c8"/>
      <resource>
         <Observation>
            <id value="3879417f-737f-4b6a-b4b1-9d10221ff7c8"/>
            <meta>
               <profile value="http://hl7.eu/fhir/laboratory/StructureDefinition/Observation-resultslab-eu-lab"/>
            </meta>
            <text>
               <status value="generated"/>
               <div xmlns="http://www.w3.org/1999/xhtml">
                  <table class="hl7__eu__lab__report">
                     <tr>
                        <th>Test</th>
                        <th>05-May-2025</th>
                        <th>Reference Range</th>
                        <th>Unit</th>
                     </tr>
                     <tr>
                        <td>Cholesterol in LDL [Mass/volume] in Serum or Plasma by Direct assay</td>
                        <td>94.0</td>
                        <td>0 - 190</td>
                        <td/>
                        <td>mg/dL</td>
                     </tr>
                  </table>
               </div>
            </text>
            <status value="final"/>
            <category>
               <coding>
                  <system value="http://terminology.hl7.org/CodeSystem/observation-category"/>
                  <code value="laboratory"/>
               </coding>
            </category>
            <code>
               <coding>
                  <system value="http://loinc.org"/>
                  <code value="18262-6"/>
                  <display value="Cholesterol in LDL [Mass/volume] in Serum or Plasma by Direct assay"/>
               </coding>
               <text value="Cholesterol in LDL [Mass/volume] in Serum or Plasma by Direct assay"/>
            </code>
            <subject>
               <reference value="urn:uuid:e51a5d0c-0e99-41cf-aa6f-9c70d3b634f0"/>
               <display value="Eileen Taylor"/>
            </subject>
            <effectiveDateTime value="2025-05-05T05:47:02Z"/>
            <performer>
               <display value="The Central European Lab"/>
            </performer>
            <valueQuantity>
               <value value="94"/>
               <unit value="mg/dL"/>
               <system value="http://unitsofmeasure.org"/>
               <code value="mg/dL"/>
            </valueQuantity>
            <referenceRange>
               <low>
                  <value value="0"/>
                  <system value="http://unitsofmeasure.org"/>
                  <code value="mg/dL"/>
               </low>
            </referenceRange>
            <referenceRange>
               <high>
                  <value value="190"/>
                  <system value="http://unitsofmeasure.org"/>
                  <code value="mg/dL"/>
               </high>
            </referenceRange>
         </Observation>
      </resource>
   </entry>
   <entry>
      <fullUrl value="urn:uuid:77019f9a-a208-4a30-be7e-e2f0272e9d9d"/>
      <resource>
         <Observation>
            <id value="77019f9a-a208-4a30-be7e-e2f0272e9d9d"/>
            <meta>
               <profile value="http://hl7.eu/fhir/laboratory/StructureDefinition/Observation-resultslab-eu-lab"/>
            </meta>
            <text>
               <status value="generated"/>
               <div xmlns="http://www.w3.org/1999/xhtml">
                  <table class="hl7__eu__lab__report">
                     <tr>
                        <th>Test</th>
                        <th>05-May-2025</th>
                        <th>Reference Range</th>
                        <th>Unit</th>
                     </tr>
                     <tr>
                        <td>Cholesterol in HDL [Mass/volume] in Serum or Plasma</td>
                        <td>54.9</td>
                        <td>50 - 100</td>
                        <td/>
                        <td>mg/dL</td>
                     </tr>
                  </table>
               </div>
            </text>
            <status value="final"/>
            <category>
               <coding>
                  <system value="http://terminology.hl7.org/CodeSystem/observation-category"/>
                  <code value="laboratory"/>
               </coding>
            </category>
            <code>
               <coding>
                  <system value="http://loinc.org"/>
                  <code value="2085-9"/>
                  <display value="Cholesterol in HDL [Mass/volume] in Serum or Plasma"/>
               </coding>
               <text value="Cholesterol in HDL [Mass/volume] in Serum or Plasma"/>
            </code>
            <subject>
               <reference value="urn:uuid:e51a5d0c-0e99-41cf-aa6f-9c70d3b634f0"/>
               <display value="Eileen Taylor"/>
            </subject>
            <effectiveDateTime value="2025-05-05T05:47:02Z"/>
            <performer>
               <display value="The Central European Lab"/>
            </performer>
            <valueQuantity>
               <value value="54.9"/>
               <unit value="mg/dL"/>
               <system value="http://unitsofmeasure.org"/>
               <code value="mg/dL"/>
            </valueQuantity>
            <referenceRange>
               <low>
                  <value value="50"/>
                  <system value="http://unitsofmeasure.org"/>
                  <code value="mg/dL"/>
               </low>
            </referenceRange>
            <referenceRange>
               <high>
                  <value value="100"/>
                  <system value="http://unitsofmeasure.org"/>
                  <code value="mg/dL"/>
               </high>
            </referenceRange>
         </Observation>
      </resource>
   </entry>
   <entry>
      <fullUrl value="urn:uuid:0b6d2b11-6dfa-4527-b251-ad455fd48b7c"/>
      <resource>
         <DeviceUseStatement>
            <id value="0b6d2b11-6dfa-4527-b251-ad455fd48b7c"/>
            <meta>
               <profile value="http://hl7.eu/fhir/eps/StructureDefinition/deviceUseStatement-eu-eps"/>
            </meta>
            <text>
               <status value="generated"/>
               <div xmlns="http://www.w3.org/1999/xhtml">
                  <table class="hl7__ips">
                     <tr>
                        <td>Wheelchair accessory (physical object)</td>
                        <td>
                           <span class="nb">19-Mar-2008</span>
                        </td>
                     </tr>
                  </table>
               </div>
            </text>
            <status value="active"/>
            <subject>
               <reference value="urn:uuid:e51a5d0c-0e99-41cf-aa6f-9c70d3b634f0"/>
               <display value="Eileen Taylor"/>
            </subject>
            <timingPeriod>
               <start value="2008-03-19"/>
            </timingPeriod>
            <device>
               <reference value="urn:uuid:e98596f8-43a4-4a81-9af1-d4a1a1df58d4"/>
               <display value="Wheelchair accessory (physical object)"/>
            </device>
         </DeviceUseStatement>
      </resource>
   </entry>
   <entry>
      <fullUrl value="urn:uuid:e98596f8-43a4-4a81-9af1-d4a1a1df58d4"/>
      <resource>
         <Device>
            <id value="e98596f8-43a4-4a81-9af1-d4a1a1df58d4"/>
            <meta>
               <profile value="http://hl7.eu/fhir/eps/StructureDefinition/device-eu-eps"/>
            </meta>
            <udiCarrier id="(01)58230749558279(11)080227(17)330313(10)76225285450928(21)10251559463017"/>
            <status value="active"/>
            <type>
               <coding>
                  <system value="http://snomed.info/sct"/>
                  <code value="705417005"/>
                  <display value="Wheelchair accessory (physical object)"/>
               </coding>
            </type>
            <patient>
               <reference value="urn:uuid:e51a5d0c-0e99-41cf-aa6f-9c70d3b634f0"/>
               <display value="Eileen Taylor"/>
            </patient>
         </Device>
      </resource>
   </entry>
   <entry>
      <fullUrl value="urn:uuid:2f130ad6-5a83-4972-9398-5c12e50738b8"/>
      <resource>
         <DeviceUseStatement>
            <id value="2f130ad6-5a83-4972-9398-5c12e50738b8"/>
            <meta>
               <profile value="http://hl7.eu/fhir/eps/StructureDefinition/deviceUseStatement-eu-eps"/>
            </meta>
            <text>
               <status value="generated"/>
               <div xmlns="http://www.w3.org/1999/xhtml">
                  <table class="hl7__ips">
                     <tr>
                        <td>Power-assisted wheelchair (physical object)</td>
                        <td>
                           <span class="nb">19-Mar-2008</span>
                        </td>
                     </tr>
                  </table>
               </div>
            </text>
            <status value="active"/>
            <subject>
               <reference value="urn:uuid:e51a5d0c-0e99-41cf-aa6f-9c70d3b634f0"/>
               <display value="Eileen Taylor"/>
            </subject>
            <timingPeriod>
               <start value="2008-03-19"/>
            </timingPeriod>
            <device>
               <reference value="urn:uuid:17a89dd9-d955-4155-a242-ab3006152cd4"/>
               <display value="Power-assisted wheelchair (physical object)"/>
            </device>
         </DeviceUseStatement>
      </resource>
   </entry>
   <entry>
      <fullUrl value="urn:uuid:17a89dd9-d955-4155-a242-ab3006152cd4"/>
      <resource>
         <Device>
            <id value="17a89dd9-d955-4155-a242-ab3006152cd4"/>
            <meta>
               <profile value="http://hl7.eu/fhir/eps/StructureDefinition/device-eu-eps"/>
            </meta>
            <udiCarrier id="(01)32203504002468(11)080227(17)330313(10)817484637584(21)132672242309356201"/>
            <status value="active"/>
            <type>
               <coding>
                  <system value="http://snomed.info/sct"/>
                  <code value="705427004"/>
                  <display value="Power-assisted wheelchair (physical object)"/>
               </coding>
            </type>
            <patient>
               <reference value="urn:uuid:e51a5d0c-0e99-41cf-aa6f-9c70d3b634f0"/>
               <display value="Eileen Taylor"/>
            </patient>
         </Device>
      </resource>
   </entry>
   <entry>
      <fullUrl value="urn:uuid:0f70cc08-f36c-4d8f-b796-a6efb9aa2947"/>
      <resource>
         <Device>
            <id value="0f70cc08-f36c-4d8f-b796-a6efb9aa2947"/>
            <text>
               <status value="generated"/>
               <div xmlns="http://www.w3.org/1999/xhtml">SYNDERAI Synthetic Generator v5.0</div>
            </text>
            <status value="active&#34;"/>
            <distinctIdentifier value="synderai-generator-50"/>
            <manufacturer value="SYNDERAI Project"/>
            <deviceName>
               <name value="SYNDERAI Synthetic Generator"/>
               <type value="manufacturer-name"/>
            </deviceName>
            <version>
               <value value="5.0"/>
            </version>
         </Device>
      </resource>
   </entry>
   <entry>
      <fullUrl value="urn:uuid:f569e65b-89a5-4648-ac98-0ba879fdb830"/>
      <resource>
         <Provenance>
            <id value="f569e65b-89a5-4648-ac98-0ba879fdb830"/>
            <text>
               <status value="generated"/>
               <div xmlns="http://www.w3.org/1999/xhtml">Provenance for SYNDERAI Synthetic Example Data Resource</div>
            </text>
            <target>
               <reference value="Patient/e51a5d0c-0e99-41cf-aa6f-9c70d3b634f0"/>
            </target>
            <target>
               <reference value="Bundle/0831eb9c-d798-437e-bd0c-79864d633419"/>
            </target>
            <target>
               <reference value="Composition/471cfbda-0358-433c-8ea6-9323959595f2"/>
            </target>
            <target>
               <reference value="PractitionerRole/37998c51-a508-4b6b-9017-1a17d177e970"/>
            </target>
            <target>
               <reference value="Organization/b5257e66-df5c-478b-8354-bda0e813b848"/>
            </target>
            <target>
               <reference value="Practitioner/7807b397-6c48-462e-9fb2-f73c4819342f"/>
            </target>
            <recorded value="2025-05-05T05:47:02Z"/>
            <policy value="https://synderai.net/synderai-synthetic-data-policy"/>
            <reason>
               <text value="Interoperability Testing and Training (non-clinical use)"/>
            </reason>
            <activity>
               <text value="Synthetic Example Data Generation"/>
            </activity>
            <agent>
               <type>
                  <text value="author"/>
               </type>
               <who>
                  <reference value="Device/0f70cc08-f36c-4d8f-b796-a6efb9aa2947"/>
               </who>
            </agent>
         </Provenance>
      </resource>
   </entry>
</Bundle>