{
  "resourceType": "Bundle",
  "id": "6aab481f-866c-4413-ab33-c9950121a851",
  "meta": {
    "profile": [
      "http://hl7.eu/fhir/eps/StructureDefinition/bundle-eu-eps"
    ]
  },
  "identifier": {
    "assigner": {
      "display": "HL7 Europe"
    },
    "system": "urn:oid:2.16.840.1.113883.2.51.999",
    "value": "74b64d2c-0953-4cfa-b283-5c4dacbdf62c"
  },
  "entry": [
    {
      "fullUrl": "urn:uuid:e8fb9d04-922b-4931-9ed3-54942ff5f6a6",
      "resource": {
        "resourceType": "Composition",
        "id": "e8fb9d04-922b-4931-9ed3-54942ff5f6a6",
        "meta": {
          "security": [
            {
              "system": "http://terminology.hl7.org/CodeSystem/v3-ActReason",
              "code": "HTEST"
            },
            {
              "system": "http://terminology.hl7.org/CodeSystem/v3-ActReason",
              "code": "TRAIN"
            }
          ],
          "tag": [
            {
              "system": "https://synderai.net/fhir/CodeSystem/tags",
              "code": "synthetic",
              "display": "SYNDERAI Synthetic data"
            }
          ],
          "profile": [
            "http://hl7.eu/fhir/eps/StructureDefinition/composition-eu-eps"
          ]
        },
        "identifier": {
          "assigner": {
            "display": "HL7 Europe"
          },
          "system": "urn:oid:2.16.840.1.113883.2.51.999",
          "value": "234b2609-62c1-465e-9f40-0bc8e18c090a"
        },
        "type": {
          "coding": [
            {
              "system": "http://loinc.org",
              "code": "60591-5",
              "display": "Patient summary Document"
            }
          ],
          "text": "Patient summary Document"
        },
        "author": [
          {
            "reference": "urn:uuid:425ee769-ed9a-4716-b8a6-41d1a9877cec"
          }
        ],
        "section": [
          {
            "text": {
              "status": "generated",
              "div": "<div xmlns=\"http://www.w3.org/1999/xhtml\"><table class=\"hl7__ips\"><tr><th>Condition</th><th>Onset Date</th><th>Status</th></tr><tr><td>Prediabetes</td><td><span class=\"nb\">14-Apr-2024</span></td><td>active</td></tr><tr><td>Anemia</td><td><span class=\"nb\">14-Apr-2024</span></td><td>active</td></tr></table></div>"
            },
            "entry": [
              {
                "reference": "urn:uuid:496e72c8-77d3-4eb0-8a8c-152966785e8d"
              },
              {
                "reference": "urn:uuid:fe53e9bd-e83c-4be9-95f0-d248a7baddff"
              }
            ],
            "code": {
              "coding": [
                {
                  "system": "http://loinc.org",
                  "code": "11450-4",
                  "display": "Problem list - Reported"
                }
              ]
            },
            "title": "Problem list"
          },
          {
            "text": {
              "status": "generated",
              "div": "<div xmlns=\"http://www.w3.org/1999/xhtml\"><table class=\"hl7__ips\"><tr><th>Condition</th><th>Period</th><th>Status</th></tr><tr><td><span class=\"grayedout\">Acute bronchitis</span></td><td><span class=\"nb\">24-Dec-2021 - 10-Jan-2022</span></td><td><span class=\"grayedout\">inactive</span></td></tr><tr><td><span class=\"grayedout\">Viral sinusitis</span></td><td><span class=\"nb\">17-May-2021 - 25-May-2021</span></td><td><span class=\"grayedout\">inactive</span></td></tr></table></div>"
            },
            "entry": [
              {
                "reference": "urn:uuid:7a8a6bb7-c803-47ad-a927-2c8b773b41a2"
              },
              {
                "reference": "urn:uuid:da1e8e37-b376-4933-808a-18df28c32dd4"
              }
            ],
            "code": {
              "coding": [
                {
                  "system": "http://loinc.org",
                  "code": "11348-0",
                  "display": "History of Past illness note"
                }
              ]
            },
            "title": "History of Past Illness"
          },
          {
            "text": {
              "status": "generated",
              "div": "<div xmlns=\"http://www.w3.org/1999/xhtml\"><table class=\"hl7__ips\"><tr><th>Medication</th><th>Since</th><th>Form</th><th>Dosage</th><th>Reason</th></tr><tr><td>Acetaminophen 300 mg and codeine phosphate 15 mg oral tablet</td><td><span class=\"nb\">2025-04-20</span></td><td>Oral tablet</td><td>1 tablet (300 mg / 15 mg) every 4 hours as needed</td><td></td></tr><tr><td>12 HR Hydrocodone Bitartrate 10 MG Extended Release Oral Capsule</td><td><span class=\"nb\">2025-04-20</span></td><td></td><td>10 mg every 12 hours</td><td></td></tr><tr><td>Vitamin B12 5 MG/ML Injectable Solution</td><td><span class=\"nb\">2024-04-21</span></td><td></td><td>1 mL (5 mg) intramuscularly once weekly</td><td></td></tr></table></div>"
            },
            "entry": [
              {
                "reference": "urn:uuid:b559d7ca-ee78-49d2-bbfd-9db4c1c00522"
              },
              {
                "reference": "urn:uuid:5feb9fe1-4098-4be7-b2d7-94b3d3d08531"
              },
              {
                "reference": "urn:uuid:28e64dce-3142-4dcc-be1e-9ff3ae0d02f1"
              }
            ],
            "code": {
              "coding": [
                {
                  "system": "http://loinc.org",
                  "code": "10160-0",
                  "display": "History of Medication use Narrative"
                }
              ]
            },
            "title": "Medication list"
          },
          {
            "text": {
              "status": "generated",
              "div": "<div xmlns=\"http://www.w3.org/1999/xhtml\"><table class=\"hl7__ips\"><tr><th>Vaccine</th><th>Date</th></tr><tr><td>Influenza virus antigen only vaccine product</td><td><span class=\"nb\">20-Apr-2025</span></td></tr><tr><td>Clostridium tetani toxoid antigen adsorbed only vaccine product</td><td><span class=\"nb\">02-Jan-2022</span></td></tr><tr><td>SARS-CoV-2 mRNA vaccine</td><td><span class=\"nb\">18-Apr-2021</span></td></tr></table></div>"
            },
            "entry": [
              {
                "reference": "urn:uuid:93df8815-c637-45af-a84d-79f53abf9f9e"
              },
              {
                "reference": "urn:uuid:9f080799-c254-44b0-9f32-da2f857af554"
              },
              {
                "reference": "urn:uuid:5f1d866e-6430-443b-b21d-f89988b0b057"
              }
            ],
            "code": {
              "coding": [
                {
                  "system": "http://loinc.org",
                  "code": "11369-6",
                  "display": "History of Immunization note"
                }
              ]
            },
            "title": "Immunizations list"
          },
          {
            "text": {
              "status": "generated",
              "div": "<div xmlns=\"http://www.w3.org/1999/xhtml\"><table class=\"hl7__ips\"><tr><th>Procedure</th><th>Date</th><th>Reason</th></tr><tr><td>Cesarean section</td><td><span class=\"nb\">03-Mar-2024</span></td><td>Normal pregnancy</td></tr><tr><td>Epidural anesthesia</td><td><span class=\"nb\">03-Mar-2024</span></td><td>Normal pregnancy</td></tr><tr><td>Parturition</td><td><span class=\"nb\">13-Sep-2015</span></td><td>Normal pregnancy</td></tr></table></div>"
            },
            "entry": [
              {
                "reference": "urn:uuid:73a25969-1c35-4d8a-abae-8031a857fa85"
              },
              {
                "reference": "urn:uuid:6397f9a3-16b1-4cf4-b42b-fcbacc176b92"
              },
              {
                "reference": "urn:uuid:b081f912-b702-4862-a278-951caf95dfd4"
              }
            ],
            "code": {
              "coding": [
                {
                  "system": "http://loinc.org",
                  "code": "47519-4",
                  "display": "History of Procedures Document"
                }
              ]
            },
            "title": "Procedure History list"
          },
          {
            "text": {
              "status": "generated",
              "div": "<div xmlns=\"http://www.w3.org/1999/xhtml\"><table class=\"hl7__ips\"><tr><td>No known allergies or intolerances</td></tr></table></div>"
            },
            "entry": [
              {
                "reference": "urn:uuid:ccb85aea-2b51-461c-a583-d603c2f905fb"
              }
            ],
            "code": {
              "coding": [
                {
                  "system": "http://loinc.org",
                  "code": "48765-2",
                  "display": "Allergies and adverse reactions Document"
                }
              ]
            },
            "title": "Allergies and Intolerances"
          },
          {
            "text": {
              "status": "generated",
              "div": "<div xmlns=\"http://www.w3.org/1999/xhtml\"><table class=\"hl7__ips\"><tr><td>Diabetes self management plan</td><td><span class=\"nb\">14-Apr-2024</span></td><td>Prediabetes</td></tr><tr><td><ul><li>Patient will implement lifestyle modifications to reduce risk of progression to diabetes, including dietary changes, increased physical activity, and regular blood glucose monitoring.</li></ul></td><td></td><td></td></tr><tr><td>Therapy</td><td><span class=\"nb\">18-Apr-2014</span></td><td>-</td></tr></table></div>"
            },
            "entry": [
              {
                "reference": "urn:uuid:a91e40f1-2426-4319-aca1-2b3b811cc391"
              },
              {
                "reference": "urn:uuid:f20971eb-9dd2-43db-94af-2cf6f2644afc"
              }
            ],
            "code": {
              "coding": [
                {
                  "system": "http://loinc.org",
                  "code": "18776-5",
                  "display": "Plan of care note"
                }
              ]
            },
            "title": "Care Plan"
          },
          {
            "text": {
              "status": "generated",
              "div": "<div xmlns=\"http://www.w3.org/1999/xhtml\"><table class=\"hl7__ips\"><tr><th>Vital Signs</th><th>2025-04-20</th><th>2024-04-14</th></tr><tr><td>Body Height</td><td>168.3 cm</td><td>168.3 cm</td></tr><tr><td>Pain severity - 0-10 verbal numeric rating [Score] - Reported</td><td>2 {score}</td><td>3 {score}</td></tr><tr><td>Body Weight</td><td>85 kg</td><td>84.1 kg</td></tr><tr><td>Body mass index (BMI) [Ratio]</td><td>30 kg/m2</td><td>29.7 kg/m2</td></tr><tr><td>Diastolic Blood Pressure</td><td>77 mm[Hg]</td><td>82 mm[Hg]</td></tr><tr><td>Systolic Blood Pressure</td><td>136 mm[Hg]</td><td>139 mm[Hg]</td></tr><tr><td>Heart rate</td><td>68 /min</td><td>85 /min</td></tr><tr><td>Respiratory rate</td><td>13 /min</td><td>15 /min</td></tr></table></div>"
            },
            "entry": [
              {
                "reference": "urn:uuid:3656198e-2d6c-4651-bda8-a6473a9e3848"
              },
              {
                "reference": "urn:uuid:fa4b081e-2c75-4b64-8080-e742fc7255f5"
              },
              {
                "reference": "urn:uuid:dd72cd9b-b0f8-4bac-8af4-07b29249883c"
              },
              {
                "reference": "urn:uuid:e2b3c803-4e0e-47e0-9f23-a52ab37fa0c2"
              },
              {
                "reference": "urn:uuid:33b6cb5d-6862-430b-92d3-aee2fb17f34c"
              },
              {
                "reference": "urn:uuid:e6eb6848-521a-41ea-a197-9e4715336c11"
              },
              {
                "reference": "urn:uuid:41879a11-7b19-44b6-8d5a-2408163bf807"
              },
              {
                "reference": "urn:uuid:ebe0bbb6-7def-4d9d-97c9-af5217db3293"
              },
              {
                "reference": "urn:uuid:45e7c4b5-1151-4103-981d-6c23a9c62e20"
              },
              {
                "reference": "urn:uuid:ec8bcabd-0876-4bdb-86b7-bc4a8753bdbf"
              },
              {
                "reference": "urn:uuid:5c533915-8507-4063-a5fe-8040d8f693a6"
              },
              {
                "reference": "urn:uuid:500fb102-ce0f-4708-bf0d-3972c91ee36a"
              },
              {
                "reference": "urn:uuid:35fb0a21-cc1e-4852-a2bc-31733d60bbc1"
              },
              {
                "reference": "urn:uuid:c065a48f-836f-4813-9626-f8c64bc79ffa"
              },
              {
                "reference": "urn:uuid:ac28fd5a-c397-46b7-93a6-2be0678e6d7f"
              },
              {
                "reference": "urn:uuid:e19cad06-0bfa-47e8-84d9-2836bfb5e470"
              }
            ],
            "code": {
              "coding": [
                {
                  "system": "http://loinc.org",
                  "code": "8716-3",
                  "display": "Vital signs note"
                }
              ]
            },
            "title": "Vital Signs"
          },
          {
            "text": {
              "status": "generated",
              "div": "<div xmlns=\"http://www.w3.org/1999/xhtml\"><table class=\"hl7__ips\">$<tr><td>[#] Births total</td><td>1</td></tr></table></div>"
            },
            "code": {
              "coding": [
                {
                  "system": "http://loinc.org",
                  "code": "10162-6",
                  "display": "History of pregnancies Narrative"
                }
              ]
            },
            "title": "Pregnancy History"
          },
          {
            "text": {
              "status": "generated",
              "div": "<div xmlns=\"http://www.w3.org/1999/xhtml\"><table class=\"hl7__ips\"><table class=\"hl7__ips\"><thead><tr><th>Recent Lab Observations</th><th>20-APR-2025</th><th>Reference Range</th><th>Unit</th></tr></thead><tbody><tr><td>Hemoglobin A1c/Hemoglobin.total in Blood</td><td><strong>6.4 H</strong></td><td>4.8 - 5.7</td><td>%</td></tr><tr><td>Glucose [Mass/volume] in Blood</td><td>98.9</td><td>70 - 99</td><td>mg/dL</td></tr><tr><td>Urea nitrogen [Mass/volume] in Blood</td><td>9.4</td><td>7 - 20</td><td>mg/dL</td></tr><tr><td>Creatinine [Mass/volume] in Blood</td><td><strong>1.2 H</strong></td><td>0.6 - 1.1</td><td>mg/dL</td></tr><tr><td>Calcium [Mass/volume] in Blood</td><td>9.9</td><td>8.5 - 10.4</td><td>mg/dL</td></tr><tr><td>Sodium [Moles/volume] in Blood</td><td>142.1</td><td>135 - 145</td><td>mmol/L</td></tr><tr><td>Potassium [Moles/volume] in Blood</td><td>4.6</td><td>3.5 - 5.1</td><td>mmol/L</td></tr><tr><td>Chloride [Moles/volume] in Blood</td><td><strong>110.7 H</strong></td><td>98 - 107</td><td>mmol/L</td></tr><tr><td>Carbon dioxide, total [Moles/volume] in Blood</td><td><strong>21.1 L</strong></td><td>22 - 29</td><td>mmol/L</td></tr></tbody></table></table></div>"
            },
            "entry": [
              {
                "reference": "urn:uuid:6e263a59-a57f-48e3-8ebe-6a63c46809a0"
              },
              {
                "reference": "urn:uuid:27b7efc7-1c87-42e8-81b8-568584427b07"
              },
              {
                "reference": "urn:uuid:c604db7c-4fb6-4e90-8a66-bd962a54e368"
              },
              {
                "reference": "urn:uuid:e3ccc22a-a26a-4db1-bd87-dc5d3b91df4f"
              },
              {
                "reference": "urn:uuid:fe2d1298-1c17-4593-a249-a9633043b81c"
              },
              {
                "reference": "urn:uuid:a5062e45-65c6-401f-8678-b965843ed975"
              },
              {
                "reference": "urn:uuid:1cfae690-328e-4c66-beed-8f0689854e7e"
              },
              {
                "reference": "urn:uuid:282c9c9a-6787-4182-871f-2d98a4906557"
              },
              {
                "reference": "urn:uuid:a57c8695-6171-454c-a831-0ca576f3e65d"
              }
            ],
            "code": {
              "coding": [
                {
                  "system": "http://loinc.org",
                  "code": "30954-2",
                  "display": "Relevant diagnostic tests/laboratory data note"
                }
              ]
            },
            "title": "Relevant diagnostic tests/laboratory data"
          },
          {
            "text": {
              "status": "generated",
              "div": "<div xmlns=\"http://www.w3.org/1999/xhtml\"><table class=\"hl7__ips\"><tr><th>Device</th><th>Date (since)</th></tr><tr><td>Blood glucose meter (physical object)</td><td><span class=\"nb\">14-Apr-2024</span></td></tr></table></div>"
            },
            "entry": [
              {
                "reference": "urn:uuid:0734fa0e-d8ee-449c-a976-dd6162b1bcce"
              }
            ],
            "code": {
              "coding": [
                {
                  "system": "http://loinc.org",
                  "code": "46264-8",
                  "display": "History of medical device use"
                }
              ]
            },
            "title": "Device Use"
          }
        ],
        "title": "European Patient Summary",
        "status": "final",
        "subject": {
          "reference": "urn:uuid:8b60c406-f262-47ce-80bf-7382f7b80766",
          "display": "Olga Bąbel"
        },
        "custodian": {
          "reference": "urn:uuid:5bec286a-9f6a-47c4-b3b3-b6171ed2eaa6"
        },
        "date": "2025-04-20",
        "confidentiality": "N"
      }
    },
    {
      "fullUrl": "urn:uuid:8b60c406-f262-47ce-80bf-7382f7b80766",
      "resource": {
        "resourceType": "Patient",
        "id": "8b60c406-f262-47ce-80bf-7382f7b80766",
        "meta": {
          "security": [
            {
              "system": "http://terminology.hl7.org/CodeSystem/v3-ActReason",
              "code": "HTEST"
            },
            {
              "system": "http://terminology.hl7.org/CodeSystem/v3-ActReason",
              "code": "TRAIN"
            }
          ],
          "tag": [
            {
              "system": "https://synderai.net/fhir/CodeSystem/tags",
              "code": "synthetic",
              "display": "SYNDERAI Synthetic data"
            }
          ],
          "profile": [
            "http://hl7.eu/fhir/eps/StructureDefinition/patient-eu-eps"
          ]
        },
        "identifier": [
          {
            "type": {
              "coding": [
                {
                  "code": "PT",
                  "system": "http://terminology.hl7.org/CodeSystem/v2-0203"
                }
              ]
            },
            "system": "http://ec.europa.eu/identifier/eci",
            "value": "5030-866518-6"
          },
          {
            "type": {
              "coding": [
                {
                  "code": "MR",
                  "system": "http://terminology.hl7.org/CodeSystem/v2-0203"
                }
              ]
            },
            "system": "http://local.setting.eu/identifier",
            "value": "90f4ce41-5cb2-20e8-d5ac-80001edd2b41"
          }
        ],
        "name": [
          {
            "family": "Bąbel"
          },
          {
            "given": [
              "Olga"
            ]
          },
          {
            "text": "Olga Bąbel"
          }
        ],
        "address": [
          {
            "line": [
              "ul. Podleśna 13/38"
            ],
            "use": "home",
            "type": "physical",
            "postalCode": "05-200",
            "city": "Wołomin",
            "country": "Poland"
          }
        ],
        "telecom": [
          {
            "system": "phone",
            "value": "+48 506 354 073"
          }
        ],
        "extension": [
          {
            "url": "http://hl7.org/fhir/StructureDefinition/patient-nationality",
            "valueCodeableConcept": {
              "coding": [
                {
                  "code": "PL",
                  "system": "http://hl7.org/fhir/ValueSet/country"
                }
              ]
            }
          }
        ],
        "text": {
          "status": "generated",
          "div": "<div xmlns=\"http://www.w3.org/1999/xhtml\"><table class=\"hl7__ips\"><tr><td>Olga Bąbel</td><td>female</td><td>05-Jun-1993</td></tr></table></div>"
        },
        "gender": "female",
        "birthDate": "1993-06-05"
      }
    },
    {
      "fullUrl": "urn:uuid:425ee769-ed9a-4716-b8a6-41d1a9877cec",
      "resource": {
        "resourceType": "PractitionerRole",
        "id": "425ee769-ed9a-4716-b8a6-41d1a9877cec",
        "meta": {
          "profile": [
            "http://hl7.eu/fhir/base/StructureDefinition/practitionerRole-eu"
          ]
        },
        "text": {
          "status": "generated",
          "div": "<div xmlns=\"http://www.w3.org/1999/xhtml\"><table class=\"hl7__ips\">Provider Role Id 425ee769-ed9a-4716-b8a6-41d1a9877cec</table></div>"
        },
        "practitioner": {
          "reference": "urn:uuid:5e9985ee-9987-4ec1-bd5d-7c533cba64d4"
        },
        "organization": {
          "reference": "urn:uuid:5bec286a-9f6a-47c4-b3b3-b6171ed2eaa6"
        }
      }
    },
    {
      "fullUrl": "urn:uuid:5e9985ee-9987-4ec1-bd5d-7c533cba64d4",
      "resource": {
        "resourceType": "Practitioner",
        "id": "5e9985ee-9987-4ec1-bd5d-7c533cba64d4",
        "meta": {
          "profile": [
            "http://hl7.eu/fhir/base/StructureDefinition/practitioner-eu"
          ]
        },
        "name": [
          {
            "prefix": [
              "Dr."
            ],
            "given": [
              "Hel"
            ],
            "family": "Ping"
          }
        ],
        "text": {
          "status": "generated",
          "div": "<div xmlns=\"http://www.w3.org/1999/xhtml\"><table class=\"hl7__ips\">Dr. Hel Ping</table></div>"
        }
      }
    },
    {
      "fullUrl": "urn:uuid:5bec286a-9f6a-47c4-b3b3-b6171ed2eaa6",
      "resource": {
        "resourceType": "Organization",
        "id": "5bec286a-9f6a-47c4-b3b3-b6171ed2eaa6",
        "meta": {
          "profile": [
            "http://hl7.eu/fhir/base/StructureDefinition/organization-eu"
          ]
        },
        "identifier": [
          {
            "assigner": {
              "display": "HL7 Europe"
            },
            "system": "urn:oid:2.16.840.1.113883.2.51.999",
            "value": "86961609-39a6-48d7-b966-42d019ab82eb"
          }
        ],
        "address": [
          {
            "line": [
              "Ignacego Prądzyńskiego 11"
            ],
            "city": "Wołomin",
            "postalCode": "05-200",
            "country": "Poland"
          }
        ],
        "text": {
          "status": "generated",
          "div": "<div xmlns=\"http://www.w3.org/1999/xhtml\"><table class=\"hl7__ips\">Miejski Samodzielny Publiczny Zakład Opieki Zdrowotnej Nr 1</table></div>"
        },
        "name": "Miejski Samodzielny Publiczny Zakład Opieki Zdrowotnej Nr 1"
      }
    },
    {
      "fullUrl": "urn:uuid:496e72c8-77d3-4eb0-8a8c-152966785e8d",
      "resource": {
        "resourceType": "Condition",
        "id": "496e72c8-77d3-4eb0-8a8c-152966785e8d",
        "meta": {
          "profile": [
            "http://hl7.org/fhir/uv/ips/StructureDefinition/Condition-uv-ips"
          ]
        },
        "category": [
          {
            "coding": [
              {
                "code": "problem-list-item",
                "system": "http://terminology.hl7.org/CodeSystem/condition-category",
                "display": "Problem List Item"
              }
            ]
          }
        ],
        "code": {
          "coding": [
            {
              "code": "15777000",
              "system": "http://snomed.info/sct",
              "display": "Prediabetes (disorder)"
            }
          ],
          "text": "Prediabetes"
        },
        "text": {
          "status": "generated",
          "div": "<div xmlns=\"http://www.w3.org/1999/xhtml\"><table class=\"hl7__ips\"><tr><td>Prediabetes</td><td><span class=\"nb\">14-Apr-2024</span></td><td>active</td></tr></table></div>"
        },
        "onsetDateTime": "2024-04-14",
        "subject": {
          "reference": "urn:uuid:",
          "display": "Olga Bąbel"
        },
        "asserter": {
          "reference": "urn:uuid:",
          "display": "Miejski Samodzielny Publiczny Zakład Opieki Zdrowotnej Nr 1"
        }
      }
    },
    {
      "fullUrl": "urn:uuid:fe53e9bd-e83c-4be9-95f0-d248a7baddff",
      "resource": {
        "resourceType": "Condition",
        "id": "fe53e9bd-e83c-4be9-95f0-d248a7baddff",
        "meta": {
          "profile": [
            "http://hl7.org/fhir/uv/ips/StructureDefinition/Condition-uv-ips"
          ]
        },
        "category": [
          {
            "coding": [
              {
                "code": "problem-list-item",
                "system": "http://terminology.hl7.org/CodeSystem/condition-category",
                "display": "Problem List Item"
              }
            ]
          }
        ],
        "code": {
          "coding": [
            {
              "code": "271737000",
              "system": "http://snomed.info/sct",
              "display": "Anemia (disorder)"
            }
          ],
          "text": "Anemia"
        },
        "text": {
          "status": "generated",
          "div": "<div xmlns=\"http://www.w3.org/1999/xhtml\"><table class=\"hl7__ips\"><tr><td>Anemia</td><td><span class=\"nb\">14-Apr-2024</span></td><td>active</td></tr></table></div>"
        },
        "onsetDateTime": "2024-04-14",
        "subject": {
          "reference": "urn:uuid:",
          "display": "Olga Bąbel"
        },
        "asserter": {
          "reference": "urn:uuid:",
          "display": "Miejski Samodzielny Publiczny Zakład Opieki Zdrowotnej Nr 1"
        }
      }
    },
    {
      "fullUrl": "urn:uuid:7a8a6bb7-c803-47ad-a927-2c8b773b41a2",
      "resource": {
        "resourceType": "Condition",
        "id": "7a8a6bb7-c803-47ad-a927-2c8b773b41a2",
        "meta": {
          "profile": [
            "http://hl7.org/fhir/uv/ips/StructureDefinition/Condition-uv-ips"
          ]
        },
        "category": [
          {
            "coding": [
              {
                "code": "problem-list-item",
                "system": "http://terminology.hl7.org/CodeSystem/condition-category",
                "display": "Problem List Item"
              }
            ]
          }
        ],
        "code": {
          "coding": [
            {
              "code": "10509002",
              "system": "http://snomed.info/sct",
              "display": "Acute bronchitis (disorder)"
            }
          ],
          "text": "Acute bronchitis"
        },
        "text": {
          "status": "generated",
          "div": "<div xmlns=\"http://www.w3.org/1999/xhtml\"><table class=\"hl7__ips\"><tr><td><span class=\"grayedout\">Acute bronchitis</span></td><td><span class=\"nb\">24-Dec-2021 - 10-Jan-2022</span></td><td><span class=\"grayedout\">inactive</span></td></tr></table></div>"
        },
        "onsetDateTime": "2021-12-24",
        "abatementDateTime": "2022-01-10",
        "subject": {
          "reference": "urn:uuid:",
          "display": "Olga Bąbel"
        },
        "asserter": {
          "reference": "urn:uuid:",
          "display": "Miejski Samodzielny Publiczny Zakład Opieki Zdrowotnej Nr 1"
        }
      }
    },
    {
      "fullUrl": "urn:uuid:da1e8e37-b376-4933-808a-18df28c32dd4",
      "resource": {
        "resourceType": "Condition",
        "id": "da1e8e37-b376-4933-808a-18df28c32dd4",
        "meta": {
          "profile": [
            "http://hl7.org/fhir/uv/ips/StructureDefinition/Condition-uv-ips"
          ]
        },
        "category": [
          {
            "coding": [
              {
                "code": "problem-list-item",
                "system": "http://terminology.hl7.org/CodeSystem/condition-category",
                "display": "Problem List Item"
              }
            ]
          }
        ],
        "code": {
          "coding": [
            {
              "code": "444814009",
              "system": "http://snomed.info/sct",
              "display": "Viral sinusitis (disorder)"
            }
          ],
          "text": "Viral sinusitis"
        },
        "text": {
          "status": "generated",
          "div": "<div xmlns=\"http://www.w3.org/1999/xhtml\"><table class=\"hl7__ips\"><tr><td><span class=\"grayedout\">Viral sinusitis</span></td><td><span class=\"nb\">17-May-2021 - 25-May-2021</span></td><td><span class=\"grayedout\">inactive</span></td></tr></table></div>"
        },
        "onsetDateTime": "2021-05-17",
        "abatementDateTime": "2021-05-25",
        "subject": {
          "reference": "urn:uuid:",
          "display": "Olga Bąbel"
        },
        "asserter": {
          "reference": "urn:uuid:",
          "display": "Miejski Samodzielny Publiczny Zakład Opieki Zdrowotnej Nr 1"
        }
      }
    },
    {
      "fullUrl": "urn:uuid:d59dc4ba-e674-4593-8f04-93ebf37fe57d",
      "resource": {
        "resourceType": "Medication",
        "id": "d59dc4ba-e674-4593-8f04-93ebf37fe57d",
        "meta": {
          "profile": [
            "http://hl7.eu/fhir/eps/StructureDefinition/Medication-eu-eps"
          ]
        },
        "code": {
          "coding": [
            {
              "code": "993770",
              "system": "http://www.nlm.nih.gov/research/umls/rxnorm",
              "display": "acetaminophen 300 MG / codeine phosphate 15 MG Oral Tablet"
            },
            {
              "code": "377261001",
              "system": "http://snomed.info/sct",
              "display": "Product containing precisely codeine phosphate 15 milligram and paracetamol 300 milligram/1 each conventional release oral tablet (clinical drug)"
            }
          ],
          "text": "Acetaminophen 300 mg and codeine phosphate 15 mg oral tablet"
        },
        "form": {
          "coding": [
            {
              "code": "421026006",
              "system": "http://snomed.info/sct",
              "display": "Oral tablet"
            }
          ]
        },
        "ingredient": [
          {
            "itemCodeableConcept": {
              "coding": [
                {
                  "code": "261000",
                  "system": "http://snomed.info/sct",
                  "display": "Codeine phosphate"
                }
              ]
            },
            "isActive": true
          }
        ],
        "text": {
          "status": "generated",
          "div": "<div xmlns=\"http://www.w3.org/1999/xhtml\">Acetaminophen 300 mg and codeine phosphate 15 mg oral tablet, Oral tablet</div>"
        }
      }
    },
    {
      "fullUrl": "urn:uuid:b559d7ca-ee78-49d2-bbfd-9db4c1c00522",
      "resource": {
        "resourceType": "MedicationStatement",
        "id": "b559d7ca-ee78-49d2-bbfd-9db4c1c00522",
        "meta": {
          "profile": [
            "http://hl7.eu/fhir/eps/StructureDefinition/MedicationStatement-eu-eps"
          ]
        },
        "effectivePeriod": {
          "start": "2025-04-20"
        },
        "dosage": [
          {
            "doseAndRate": [
              {
                "doseQuantity": {
                  "value": 1,
                  "unit": "{tbl}",
                  "system": "$ucum",
                  "code": "{tbl}"
                }
              }
            ],
            "timing": {
              "repeat": {
                "frequency": 1,
                "period": 4,
                "periodUnit": "h"
              }
            },
            "text": "1 tablet (300 mg / 15 mg) every 4 hours as needed",
            "asNeededBoolean": true
          }
        ],
        "text": {
          "status": "generated",
          "div": "<div xmlns=\"http://www.w3.org/1999/xhtml\"><table class=\"hl7__ips\"><tr><td>Acetaminophen 300 mg and codeine phosphate 15 mg oral tablet</td><td><span class=\"nb\">2025-04-20</span></td><td>Oral tablet</td><td>1 tablet (300 mg / 15 mg) every 4 hours as needed</td><td></td></tr></table></div>"
        },
        "status": "active",
        "medicationReference": {
          "reference": "urn:uuid:d59dc4ba-e674-4593-8f04-93ebf37fe57d",
          "display": "Acetaminophen 300 mg and codeine phosphate 15 mg oral tablet"
        },
        "subject": {
          "reference": "urn:uuid:8b60c406-f262-47ce-80bf-7382f7b80766",
          "display": "Olga Bąbel"
        }
      }
    },
    {
      "fullUrl": "urn:uuid:158d1120-f342-43fb-bb21-5aee23ea8615",
      "resource": {
        "resourceType": "Medication",
        "id": "158d1120-f342-43fb-bb21-5aee23ea8615",
        "meta": {
          "profile": [
            "http://hl7.eu/fhir/eps/StructureDefinition/Medication-eu-eps"
          ]
        },
        "code": {
          "coding": [
            {
              "code": "1860491",
              "system": "http://www.nlm.nih.gov/research/umls/rxnorm",
              "display": "12 HR Hydrocodone Bitartrate 10 MG Extended Release Oral Capsule"
            }
          ],
          "text": "12 HR Hydrocodone Bitartrate 10 MG Extended Release Oral Capsule"
        },
        "text": {
          "status": "generated",
          "div": "<div xmlns=\"http://www.w3.org/1999/xhtml\">12 HR Hydrocodone Bitartrate 10 MG Extended Release Oral Capsule,</div>"
        }
      }
    },
    {
      "fullUrl": "urn:uuid:5feb9fe1-4098-4be7-b2d7-94b3d3d08531",
      "resource": {
        "resourceType": "MedicationStatement",
        "id": "5feb9fe1-4098-4be7-b2d7-94b3d3d08531",
        "meta": {
          "profile": [
            "http://hl7.eu/fhir/eps/StructureDefinition/MedicationStatement-eu-eps"
          ]
        },
        "effectivePeriod": {
          "start": "2025-04-20"
        },
        "dosage": [
          {
            "doseAndRate": [
              {
                "doseQuantity": {
                  "value": 10,
                  "unit": "mg",
                  "system": "$ucum",
                  "code": "mg"
                }
              }
            ],
            "timing": {
              "repeat": {
                "frequency": 2,
                "period": 1,
                "periodUnit": "d"
              }
            },
            "text": "10 mg every 12 hours",
            "asNeededBoolean": false
          }
        ],
        "text": {
          "status": "generated",
          "div": "<div xmlns=\"http://www.w3.org/1999/xhtml\"><table class=\"hl7__ips\"><tr><td>12 HR Hydrocodone Bitartrate 10 MG Extended Release Oral Capsule</td><td><span class=\"nb\">2025-04-20</span></td><td></td><td>10 mg every 12 hours</td><td></td></tr></table></div>"
        },
        "status": "active",
        "medicationReference": {
          "reference": "urn:uuid:158d1120-f342-43fb-bb21-5aee23ea8615",
          "display": "12 HR Hydrocodone Bitartrate 10 MG Extended Release Oral Capsule"
        },
        "subject": {
          "reference": "urn:uuid:8b60c406-f262-47ce-80bf-7382f7b80766",
          "display": "Olga Bąbel"
        }
      }
    },
    {
      "fullUrl": "urn:uuid:4f4ebb8f-d32c-46f8-9549-765466a547bd",
      "resource": {
        "resourceType": "Medication",
        "id": "4f4ebb8f-d32c-46f8-9549-765466a547bd",
        "meta": {
          "profile": [
            "http://hl7.eu/fhir/eps/StructureDefinition/Medication-eu-eps"
          ]
        },
        "code": {
          "coding": [
            {
              "code": "2001499",
              "system": "http://www.nlm.nih.gov/research/umls/rxnorm",
              "display": "Vitamin B12 5 MG/ML Injectable Solution"
            }
          ],
          "text": "Vitamin B12 5 MG/ML Injectable Solution"
        },
        "text": {
          "status": "generated",
          "div": "<div xmlns=\"http://www.w3.org/1999/xhtml\">Vitamin B12 5 MG/ML Injectable Solution,</div>"
        }
      }
    },
    {
      "fullUrl": "urn:uuid:28e64dce-3142-4dcc-be1e-9ff3ae0d02f1",
      "resource": {
        "resourceType": "MedicationStatement",
        "id": "28e64dce-3142-4dcc-be1e-9ff3ae0d02f1",
        "meta": {
          "profile": [
            "http://hl7.eu/fhir/eps/StructureDefinition/MedicationStatement-eu-eps"
          ]
        },
        "effectivePeriod": {
          "start": "2024-04-21"
        },
        "dosage": [
          {
            "doseAndRate": [
              {
                "doseQuantity": {
                  "value": 1,
                  "unit": "mL",
                  "system": "$ucum",
                  "code": "mL"
                }
              }
            ],
            "timing": {
              "repeat": {
                "frequency": 1,
                "period": 1,
                "periodUnit": "wk"
              }
            },
            "text": "1 mL (5 mg) intramuscularly once weekly",
            "asNeededBoolean": false
          }
        ],
        "text": {
          "status": "generated",
          "div": "<div xmlns=\"http://www.w3.org/1999/xhtml\"><table class=\"hl7__ips\"><tr><td>Vitamin B12 5 MG/ML Injectable Solution</td><td><span class=\"nb\">2024-04-21</span></td><td></td><td>1 mL (5 mg) intramuscularly once weekly</td><td></td></tr></table></div>"
        },
        "status": "active",
        "medicationReference": {
          "reference": "urn:uuid:4f4ebb8f-d32c-46f8-9549-765466a547bd",
          "display": "Vitamin B12 5 MG/ML Injectable Solution"
        },
        "subject": {
          "reference": "urn:uuid:8b60c406-f262-47ce-80bf-7382f7b80766",
          "display": "Olga Bąbel"
        }
      }
    },
    {
      "fullUrl": "urn:uuid:93df8815-c637-45af-a84d-79f53abf9f9e",
      "resource": {
        "resourceType": "Immunization",
        "id": "93df8815-c637-45af-a84d-79f53abf9f9e",
        "meta": {
          "profile": [
            "http://hl7.org/fhir/uv/ips/StructureDefinition/Immunization-uv-ips"
          ]
        },
        "vaccineCode": {
          "coding": [
            {
              "code": "1181000221105",
              "system": "http://snomed.info/sct",
              "display": "Vaccine product containing Influenza virus antigen"
            },
            {
              "code": "J07BB02",
              "system": "http://www.whocc.no/atc",
              "display": "Influenza, inactivated, split virus"
            },
            {
              "code": "140",
              "system": "http://hl7.org/fhir/sid/cvx",
              "display": "Influenza  seasonal  injectable  preservative free"
            }
          ],
          "text": "Influenza virus antigen only vaccine product"
        },
        "site": {
          "coding": [
            {
              "code": "244979005",
              "system": "http://snomed.info/sct",
              "display": "Entire muscle of upper arm"
            }
          ],
          "text": "Entire muscle of upper arm"
        },
        "route": {
          "coding": [
            {
              "code": "78421000",
              "system": "http://snomed.info/sct",
              "display": "Intramuscular route"
            }
          ],
          "text": "Intramuscular route"
        },
        "text": {
          "status": "generated",
          "div": "<div xmlns=\"http://www.w3.org/1999/xhtml\"><table class=\"hl7__ips\"><tr><td>Influenza virus antigen only vaccine product</td><td><span class=\"nb\">20-Apr-2025</span></td></tr></table></div>"
        },
        "status": "completed",
        "patient": {
          "reference": "urn:uuid:8b60c406-f262-47ce-80bf-7382f7b80766",
          "display": "Olga Bąbel"
        },
        "occurrenceDateTime": "2025-04-20",
        "lotNumber": "BK-sELXghq",
        "expirationDate": "2026-03-15"
      }
    },
    {
      "fullUrl": "urn:uuid:9f080799-c254-44b0-9f32-da2f857af554",
      "resource": {
        "resourceType": "Immunization",
        "id": "9f080799-c254-44b0-9f32-da2f857af554",
        "meta": {
          "profile": [
            "http://hl7.org/fhir/uv/ips/StructureDefinition/Immunization-uv-ips"
          ]
        },
        "vaccineCode": {
          "coding": [
            {
              "code": "777725002",
              "system": "http://snomed.info/sct",
              "display": "Vaccine product containing only Clostridium tetani toxoid antigen adsorbed"
            },
            {
              "code": "J07AM51",
              "system": "http://www.whocc.no/atc",
              "display": "Diphtheria-tetanus vaccines, adult type"
            },
            {
              "code": "113",
              "system": "http://hl7.org/fhir/sid/cvx",
              "display": "Td (adult)  5 Lf tetanus toxoid  preservative free  adsorbed"
            }
          ],
          "text": "Clostridium tetani toxoid antigen adsorbed only vaccine product"
        },
        "site": {
          "coding": [
            {
              "code": "244979005",
              "system": "http://snomed.info/sct",
              "display": "Entire muscle of upper arm"
            }
          ],
          "text": "Entire muscle of upper arm"
        },
        "route": {
          "coding": [
            {
              "code": "78421000",
              "system": "http://snomed.info/sct",
              "display": "Intramuscular route"
            }
          ],
          "text": "Intramuscular route"
        },
        "text": {
          "status": "generated",
          "div": "<div xmlns=\"http://www.w3.org/1999/xhtml\"><table class=\"hl7__ips\"><tr><td>Clostridium tetani toxoid antigen adsorbed only vaccine product</td><td><span class=\"nb\">02-Jan-2022</span></td></tr></table></div>"
        },
        "status": "completed",
        "patient": {
          "reference": "urn:uuid:8b60c406-f262-47ce-80bf-7382f7b80766",
          "display": "Olga Bąbel"
        },
        "occurrenceDateTime": "2022-01-02",
        "lotNumber": "CR-Dwpw6z",
        "expirationDate": "2022-10-25"
      }
    },
    {
      "fullUrl": "urn:uuid:5f1d866e-6430-443b-b21d-f89988b0b057",
      "resource": {
        "resourceType": "Immunization",
        "id": "5f1d866e-6430-443b-b21d-f89988b0b057",
        "meta": {
          "profile": [
            "http://hl7.org/fhir/uv/ips/StructureDefinition/Immunization-uv-ips"
          ]
        },
        "vaccineCode": {
          "coding": [
            {
              "code": "1119349007",
              "system": "http://snomed.info/sct",
              "display": "Vaccine product containing SARS-CoV-2 mRNA"
            },
            {
              "code": "J07BX03",
              "system": "http://www.whocc.no/atc",
              "display": "COVID-19 mRNA vaccines"
            },
            {
              "code": "208",
              "system": "http://hl7.org/fhir/sid/cvx",
              "display": "SARS-COV-2 (COVID-19) vaccine  mRNA  spike protein  LNP  preservative free  30 mcg/0.3mL dose"
            }
          ],
          "text": "SARS-CoV-2 mRNA vaccine"
        },
        "site": {
          "coding": [
            {
              "code": "244979005",
              "system": "http://snomed.info/sct",
              "display": "Entire muscle of upper arm"
            }
          ],
          "text": "Entire muscle of upper arm"
        },
        "route": {
          "coding": [
            {
              "code": "78421000",
              "system": "http://snomed.info/sct",
              "display": "Intramuscular route"
            }
          ],
          "text": "Intramuscular route"
        },
        "text": {
          "status": "generated",
          "div": "<div xmlns=\"http://www.w3.org/1999/xhtml\"><table class=\"hl7__ips\"><tr><td>SARS-CoV-2 mRNA vaccine</td><td><span class=\"nb\">18-Apr-2021</span></td></tr></table></div>"
        },
        "status": "completed",
        "patient": {
          "reference": "urn:uuid:8b60c406-f262-47ce-80bf-7382f7b80766",
          "display": "Olga Bąbel"
        },
        "occurrenceDateTime": "2021-04-18",
        "lotNumber": "ES-27L9sc1",
        "expirationDate": "2022-03-02"
      }
    },
    {
      "fullUrl": "urn:uuid:73a25969-1c35-4d8a-abae-8031a857fa85",
      "resource": {
        "resourceType": "Procedure",
        "id": "73a25969-1c35-4d8a-abae-8031a857fa85",
        "meta": {
          "profile": [
            "http://hl7.org/fhir/uv/ips/StructureDefinition/Procedure-uv-ips"
          ]
        },
        "code": {
          "coding": [
            {
              "code": "11466000",
              "system": "http://snomed.info/sct",
              "display": "Cesarean section"
            }
          ],
          "text": "Cesarean section"
        },
        "reasonCode": [
          {
            "coding": [
              {
                "code": "72892002",
                "system": "http://snomed.info/sct",
                "display": "Normal pregnancy"
              }
            ]
          }
        ],
        "text": {
          "status": "generated",
          "div": "<div xmlns=\"http://www.w3.org/1999/xhtml\"><table class=\"hl7__ips\"><tr><td>Cesarean section</td><td><span class=\"nb\">03-Mar-2024</span></td><td>Normal pregnancy</td></tr></table></div>"
        },
        "status": "completed",
        "performedDateTime": "2024-03-03",
        "subject": {
          "reference": "urn:uuid:",
          "display": "Olga Bąbel"
        }
      }
    },
    {
      "fullUrl": "urn:uuid:6397f9a3-16b1-4cf4-b42b-fcbacc176b92",
      "resource": {
        "resourceType": "Procedure",
        "id": "6397f9a3-16b1-4cf4-b42b-fcbacc176b92",
        "meta": {
          "profile": [
            "http://hl7.org/fhir/uv/ips/StructureDefinition/Procedure-uv-ips"
          ]
        },
        "code": {
          "coding": [
            {
              "code": "18946005",
              "system": "http://snomed.info/sct",
              "display": "Epidural anesthesia"
            }
          ],
          "text": "Epidural anesthesia"
        },
        "reasonCode": [
          {
            "coding": [
              {
                "code": "72892002",
                "system": "http://snomed.info/sct",
                "display": "Normal pregnancy"
              }
            ]
          }
        ],
        "text": {
          "status": "generated",
          "div": "<div xmlns=\"http://www.w3.org/1999/xhtml\"><table class=\"hl7__ips\"><tr><td>Epidural anesthesia</td><td><span class=\"nb\">03-Mar-2024</span></td><td>Normal pregnancy</td></tr></table></div>"
        },
        "status": "completed",
        "performedDateTime": "2024-03-03",
        "subject": {
          "reference": "urn:uuid:",
          "display": "Olga Bąbel"
        }
      }
    },
    {
      "fullUrl": "urn:uuid:b081f912-b702-4862-a278-951caf95dfd4",
      "resource": {
        "resourceType": "Procedure",
        "id": "b081f912-b702-4862-a278-951caf95dfd4",
        "meta": {
          "profile": [
            "http://hl7.org/fhir/uv/ips/StructureDefinition/Procedure-uv-ips"
          ]
        },
        "code": {
          "coding": [
            {
              "code": "66348005",
              "system": "http://snomed.info/sct",
              "display": "Childbirth"
            }
          ],
          "text": "Parturition"
        },
        "reasonCode": [
          {
            "coding": [
              {
                "code": "72892002",
                "system": "http://snomed.info/sct",
                "display": "Normal pregnancy"
              }
            ]
          }
        ],
        "text": {
          "status": "generated",
          "div": "<div xmlns=\"http://www.w3.org/1999/xhtml\"><table class=\"hl7__ips\"><tr><td>Parturition</td><td><span class=\"nb\">13-Sep-2015</span></td><td>Normal pregnancy</td></tr></table></div>"
        },
        "status": "completed",
        "performedDateTime": "2015-09-13",
        "subject": {
          "reference": "urn:uuid:",
          "display": "Olga Bąbel"
        }
      }
    },
    {
      "fullUrl": "urn:uuid:ccb85aea-2b51-461c-a583-d603c2f905fb",
      "resource": {
        "resourceType": "AllergyIntolerance",
        "id": "ccb85aea-2b51-461c-a583-d603c2f905fb",
        "meta": {
          "profile": [
            "http://hl7.eu/fhir/eps/StructureDefinition/allergyIntolerance-eu-eps"
          ]
        },
        "code": {
          "coding": [
            {
              "code": "716186003",
              "system": "http://snomed.info/sct",
              "display": "No known allergy (situation)"
            }
          ]
        },
        "clinicalStatus": {
          "coding": [
            {
              "code": "active",
              "system": "http://terminology.hl7.org/CodeSystem/allergyintolerance-clinical"
            }
          ]
        },
        "text": {
          "status": "generated",
          "div": "<div xmlns=\"http://www.w3.org/1999/xhtml\"><table class=\"hl7__ips\"><tr><td>No known allergies or intolerances</td></tr></table></div>"
        },
        "patient": {
          "reference": "urn:uuid:8b60c406-f262-47ce-80bf-7382f7b80766",
          "display": "Olga Bąbel"
        },
        "verificationStatus": {
          "coding": [
            {
              "code": "confirmed",
              "system": "http://terminology.hl7.org/CodeSystem/allergyintolerance-verification"
            }
          ]
        },
        "_onsetDateTime": {
          "extension": [
            {
              "url": "http://hl7.org/fhir/StructureDefinition/data-absent-reason",
              "valueCode": "unknown"
            }
          ]
        }
      }
    },
    {
      "fullUrl": "urn:uuid:a91e40f1-2426-4319-aca1-2b3b811cc391",
      "resource": {
        "resourceType": "CarePlan",
        "id": "a91e40f1-2426-4319-aca1-2b3b811cc391",
        "category": [
          {
            "coding": [
              {
                "code": "assess-plan",
                "system": "http://terminology.hl7.org/CodeSystem/care-plan-category",
                "display": "Assessment and Plan"
              }
            ]
          }
        ],
        "activity": [
          {
            "detail": {
              "code": {
                "coding": [
                  {
                    "code": "698360004",
                    "system": "http://snomed.info/sct",
                    "display": "Diabetes self management plan (qualifier value)"
                  }
                ]
              },
              "reasonCode": [
                {
                  "coding": [
                    {
                      "code": "15777000",
                      "system": "http://snomed.info/sct",
                      "display": "Prediabetes"
                    }
                  ]
                }
              ],
              "status": "unknown",
              "description": "Diabetes self management plan",
              "kind": "Appointment"
            }
          }
        ],
        "period": {
          "start": "2024-04-14"
        },
        "goal": [
          {
            "reference": "urn:uuid:ce0d08f1-9b57-4da7-b167-62cd6be30bf4"
          }
        ],
        "text": {
          "status": "generated",
          "div": "<div xmlns=\"http://www.w3.org/1999/xhtml\"><table class=\"hl7__ips\"><tr><th>Active Planned Care / Goals</th><th>Date</th><th>Reason</th></tr><tr><td>Diabetes self management plan</td><td><span class=\"nb\">14-Apr-2024</span></td><td>Prediabetes</td></tr><tr><td><ul><li>Patient will implement lifestyle modifications to reduce risk of progression to diabetes, including dietary changes, increased physical activity, and regular blood glucose monitoring.</li></ul></td><td></td><td></td></tr></table></div>"
        },
        "status": "active",
        "intent": "plan",
        "subject": {
          "reference": "urn:uuid:8b60c406-f262-47ce-80bf-7382f7b80766",
          "display": "Olga Bąbel"
        }
      }
    },
    {
      "fullUrl": "urn:uuid:f20971eb-9dd2-43db-94af-2cf6f2644afc",
      "resource": {
        "resourceType": "CarePlan",
        "id": "f20971eb-9dd2-43db-94af-2cf6f2644afc",
        "category": [
          {
            "coding": [
              {
                "code": "assess-plan",
                "system": "http://terminology.hl7.org/CodeSystem/care-plan-category",
                "display": "Assessment and Plan"
              }
            ]
          }
        ],
        "activity": [
          {
            "detail": {
              "code": {
                "coding": [
                  {
                    "code": "276239002",
                    "system": "http://snomed.info/sct",
                    "display": "Therapy (regime/therapy)"
                  }
                ]
              },
              "status": "unknown",
              "description": "Therapy",
              "kind": "Appointment"
            }
          }
        ],
        "period": {
          "start": "2014-04-18"
        },
        "text": {
          "status": "generated",
          "div": "<div xmlns=\"http://www.w3.org/1999/xhtml\"><table class=\"hl7__ips\"><tr><th>Active Planned Care / Goals</th><th>Date</th><th>Reason</th></tr><tr><td>Therapy</td><td><span class=\"nb\">18-Apr-2014</span></td><td>-</td></tr></table></div>"
        },
        "status": "active",
        "intent": "plan",
        "subject": {
          "reference": "urn:uuid:8b60c406-f262-47ce-80bf-7382f7b80766",
          "display": "Olga Bąbel"
        }
      }
    },
    {
      "fullUrl": "urn:uuid:3656198e-2d6c-4651-bda8-a6473a9e3848",
      "resource": {
        "resourceType": "Observation",
        "id": "3656198e-2d6c-4651-bda8-a6473a9e3848",
        "meta": {
          "profile": [
            "http://hl7.org/fhir/StructureDefinition/vitalsigns"
          ]
        },
        "category": [
          {
            "coding": [
              {
                "system": "http://terminology.hl7.org/CodeSystem/observation-category",
                "code": "vital-signs",
                "display": "Vital Signs"
              }
            ]
          }
        ],
        "valueQuantity": {
          "value": 168.3,
          "code": "cm",
          "unit": "cm"
        },
        "text": {
          "status": "generated",
          "div": "<div xmlns=\"http://www.w3.org/1999/xhtml\"><table class=\"hl7__ips\"><tr><th>Vital Sign</th><th>Date</th><th>Measurement</th></tr><tr><td>Body Height</td><td>20-Apr-2025</td><td>168.3 cm</td></tr></table></div>"
        },
        "status": "final",
        "code": {
          "coding": [
            {
              "code": "$8302-2",
              "system": "http://loinc.org",
              "display": "Body Height"
            }
          ]
        },
        "subject": {
          "reference": "urn:uuid:8b60c406-f262-47ce-80bf-7382f7b80766",
          "display": "Olga Bąbel"
        },
        "effectiveDateTime": "2025-04-20"
      }
    },
    {
      "fullUrl": "urn:uuid:fa4b081e-2c75-4b64-8080-e742fc7255f5",
      "resource": {
        "resourceType": "Observation",
        "id": "fa4b081e-2c75-4b64-8080-e742fc7255f5",
        "meta": {
          "profile": [
            "http://hl7.org/fhir/StructureDefinition/vitalsigns"
          ]
        },
        "category": [
          {
            "coding": [
              {
                "system": "http://terminology.hl7.org/CodeSystem/observation-category",
                "code": "vital-signs",
                "display": "Vital Signs"
              }
            ]
          }
        ],
        "valueQuantity": {
          "value": 2,
          "code": "{score}",
          "unit": "{score}"
        },
        "text": {
          "status": "generated",
          "div": "<div xmlns=\"http://www.w3.org/1999/xhtml\"><table class=\"hl7__ips\"><tr><th>Vital Sign</th><th>Date</th><th>Measurement</th></tr><tr><td>Pain severity - 0-10 verbal numeric rating [Score] - Reported</td><td>20-Apr-2025</td><td>2 {score}</td></tr></table></div>"
        },
        "status": "final",
        "code": {
          "coding": [
            {
              "code": "$72514-3",
              "system": "http://loinc.org",
              "display": "Pain severity - 0-10 verbal numeric rating [Score] - Reported"
            }
          ]
        },
        "subject": {
          "reference": "urn:uuid:8b60c406-f262-47ce-80bf-7382f7b80766",
          "display": "Olga Bąbel"
        },
        "effectiveDateTime": "2025-04-20"
      }
    },
    {
      "fullUrl": "urn:uuid:dd72cd9b-b0f8-4bac-8af4-07b29249883c",
      "resource": {
        "resourceType": "Observation",
        "id": "dd72cd9b-b0f8-4bac-8af4-07b29249883c",
        "meta": {
          "profile": [
            "http://hl7.org/fhir/StructureDefinition/vitalsigns"
          ]
        },
        "category": [
          {
            "coding": [
              {
                "system": "http://terminology.hl7.org/CodeSystem/observation-category",
                "code": "vital-signs",
                "display": "Vital Signs"
              }
            ]
          }
        ],
        "valueQuantity": {
          "value": 85,
          "code": "kg",
          "unit": "kg"
        },
        "text": {
          "status": "generated",
          "div": "<div xmlns=\"http://www.w3.org/1999/xhtml\"><table class=\"hl7__ips\"><tr><th>Vital Sign</th><th>Date</th><th>Measurement</th></tr><tr><td>Body Weight</td><td>20-Apr-2025</td><td>85 kg</td></tr></table></div>"
        },
        "status": "final",
        "code": {
          "coding": [
            {
              "code": "$29463-7",
              "system": "http://loinc.org",
              "display": "Body Weight"
            }
          ]
        },
        "subject": {
          "reference": "urn:uuid:8b60c406-f262-47ce-80bf-7382f7b80766",
          "display": "Olga Bąbel"
        },
        "effectiveDateTime": "2025-04-20"
      }
    },
    {
      "fullUrl": "urn:uuid:e2b3c803-4e0e-47e0-9f23-a52ab37fa0c2",
      "resource": {
        "resourceType": "Observation",
        "id": "e2b3c803-4e0e-47e0-9f23-a52ab37fa0c2",
        "meta": {
          "profile": [
            "http://hl7.org/fhir/StructureDefinition/vitalsigns"
          ]
        },
        "category": [
          {
            "coding": [
              {
                "system": "http://terminology.hl7.org/CodeSystem/observation-category",
                "code": "vital-signs",
                "display": "Vital Signs"
              }
            ]
          }
        ],
        "valueQuantity": {
          "value": 30,
          "code": "kg/m2",
          "unit": "kg/m2"
        },
        "text": {
          "status": "generated",
          "div": "<div xmlns=\"http://www.w3.org/1999/xhtml\"><table class=\"hl7__ips\"><tr><th>Vital Sign</th><th>Date</th><th>Measurement</th></tr><tr><td>Body mass index (BMI) [Ratio]</td><td>20-Apr-2025</td><td>30 kg/m2</td></tr></table></div>"
        },
        "status": "final",
        "code": {
          "coding": [
            {
              "code": "$39156-5",
              "system": "http://loinc.org",
              "display": "Body mass index (BMI) [Ratio]"
            }
          ]
        },
        "subject": {
          "reference": "urn:uuid:8b60c406-f262-47ce-80bf-7382f7b80766",
          "display": "Olga Bąbel"
        },
        "effectiveDateTime": "2025-04-20"
      }
    },
    {
      "fullUrl": "urn:uuid:33b6cb5d-6862-430b-92d3-aee2fb17f34c",
      "resource": {
        "resourceType": "Observation",
        "id": "33b6cb5d-6862-430b-92d3-aee2fb17f34c",
        "meta": {
          "profile": [
            "http://hl7.org/fhir/StructureDefinition/vitalsigns"
          ]
        },
        "category": [
          {
            "coding": [
              {
                "system": "http://terminology.hl7.org/CodeSystem/observation-category",
                "code": "vital-signs",
                "display": "Vital Signs"
              }
            ]
          }
        ],
        "valueQuantity": {
          "value": 77,
          "code": "mm[Hg]",
          "unit": "mm[Hg]"
        },
        "text": {
          "status": "generated",
          "div": "<div xmlns=\"http://www.w3.org/1999/xhtml\"><table class=\"hl7__ips\"><tr><th>Vital Sign</th><th>Date</th><th>Measurement</th></tr><tr><td>Diastolic Blood Pressure</td><td>20-Apr-2025</td><td>77 mm[Hg]</td></tr></table></div>"
        },
        "status": "final",
        "code": {
          "coding": [
            {
              "code": "$8462-4",
              "system": "http://loinc.org",
              "display": "Diastolic Blood Pressure"
            }
          ]
        },
        "subject": {
          "reference": "urn:uuid:8b60c406-f262-47ce-80bf-7382f7b80766",
          "display": "Olga Bąbel"
        },
        "effectiveDateTime": "2025-04-20"
      }
    },
    {
      "fullUrl": "urn:uuid:e6eb6848-521a-41ea-a197-9e4715336c11",
      "resource": {
        "resourceType": "Observation",
        "id": "e6eb6848-521a-41ea-a197-9e4715336c11",
        "meta": {
          "profile": [
            "http://hl7.org/fhir/StructureDefinition/vitalsigns"
          ]
        },
        "category": [
          {
            "coding": [
              {
                "system": "http://terminology.hl7.org/CodeSystem/observation-category",
                "code": "vital-signs",
                "display": "Vital Signs"
              }
            ]
          }
        ],
        "valueQuantity": {
          "value": 136,
          "code": "mm[Hg]",
          "unit": "mm[Hg]"
        },
        "text": {
          "status": "generated",
          "div": "<div xmlns=\"http://www.w3.org/1999/xhtml\"><table class=\"hl7__ips\"><tr><th>Vital Sign</th><th>Date</th><th>Measurement</th></tr><tr><td>Systolic Blood Pressure</td><td>20-Apr-2025</td><td>136 mm[Hg]</td></tr></table></div>"
        },
        "status": "final",
        "code": {
          "coding": [
            {
              "code": "$8480-6",
              "system": "http://loinc.org",
              "display": "Systolic Blood Pressure"
            }
          ]
        },
        "subject": {
          "reference": "urn:uuid:8b60c406-f262-47ce-80bf-7382f7b80766",
          "display": "Olga Bąbel"
        },
        "effectiveDateTime": "2025-04-20"
      }
    },
    {
      "fullUrl": "urn:uuid:41879a11-7b19-44b6-8d5a-2408163bf807",
      "resource": {
        "resourceType": "Observation",
        "id": "41879a11-7b19-44b6-8d5a-2408163bf807",
        "meta": {
          "profile": [
            "http://hl7.org/fhir/StructureDefinition/vitalsigns"
          ]
        },
        "category": [
          {
            "coding": [
              {
                "system": "http://terminology.hl7.org/CodeSystem/observation-category",
                "code": "vital-signs",
                "display": "Vital Signs"
              }
            ]
          }
        ],
        "valueQuantity": {
          "value": 68,
          "code": "/min",
          "unit": "/min"
        },
        "text": {
          "status": "generated",
          "div": "<div xmlns=\"http://www.w3.org/1999/xhtml\"><table class=\"hl7__ips\"><tr><th>Vital Sign</th><th>Date</th><th>Measurement</th></tr><tr><td>Heart rate</td><td>20-Apr-2025</td><td>68 /min</td></tr></table></div>"
        },
        "status": "final",
        "code": {
          "coding": [
            {
              "code": "$8867-4",
              "system": "http://loinc.org",
              "display": "Heart rate"
            }
          ]
        },
        "subject": {
          "reference": "urn:uuid:8b60c406-f262-47ce-80bf-7382f7b80766",
          "display": "Olga Bąbel"
        },
        "effectiveDateTime": "2025-04-20"
      }
    },
    {
      "fullUrl": "urn:uuid:ebe0bbb6-7def-4d9d-97c9-af5217db3293",
      "resource": {
        "resourceType": "Observation",
        "id": "ebe0bbb6-7def-4d9d-97c9-af5217db3293",
        "meta": {
          "profile": [
            "http://hl7.org/fhir/StructureDefinition/vitalsigns"
          ]
        },
        "category": [
          {
            "coding": [
              {
                "system": "http://terminology.hl7.org/CodeSystem/observation-category",
                "code": "vital-signs",
                "display": "Vital Signs"
              }
            ]
          }
        ],
        "valueQuantity": {
          "value": 13,
          "code": "/min",
          "unit": "/min"
        },
        "text": {
          "status": "generated",
          "div": "<div xmlns=\"http://www.w3.org/1999/xhtml\"><table class=\"hl7__ips\"><tr><th>Vital Sign</th><th>Date</th><th>Measurement</th></tr><tr><td>Respiratory rate</td><td>20-Apr-2025</td><td>13 /min</td></tr></table></div>"
        },
        "status": "final",
        "code": {
          "coding": [
            {
              "code": "$9279-1",
              "system": "http://loinc.org",
              "display": "Respiratory rate"
            }
          ]
        },
        "subject": {
          "reference": "urn:uuid:8b60c406-f262-47ce-80bf-7382f7b80766",
          "display": "Olga Bąbel"
        },
        "effectiveDateTime": "2025-04-20"
      }
    },
    {
      "fullUrl": "urn:uuid:45e7c4b5-1151-4103-981d-6c23a9c62e20",
      "resource": {
        "resourceType": "Observation",
        "id": "45e7c4b5-1151-4103-981d-6c23a9c62e20",
        "meta": {
          "profile": [
            "http://hl7.org/fhir/StructureDefinition/vitalsigns"
          ]
        },
        "category": [
          {
            "coding": [
              {
                "system": "http://terminology.hl7.org/CodeSystem/observation-category",
                "code": "vital-signs",
                "display": "Vital Signs"
              }
            ]
          }
        ],
        "valueQuantity": {
          "value": 168.3,
          "code": "cm",
          "unit": "cm"
        },
        "text": {
          "status": "generated",
          "div": "<div xmlns=\"http://www.w3.org/1999/xhtml\"><table class=\"hl7__ips\"><tr><th>Vital Sign</th><th>Date</th><th>Measurement</th></tr><tr><td>Body Height</td><td>14-Apr-2024</td><td>168.3 cm</td></tr></table></div>"
        },
        "status": "final",
        "code": {
          "coding": [
            {
              "code": "$8302-2",
              "system": "http://loinc.org",
              "display": "Body Height"
            }
          ]
        },
        "subject": {
          "reference": "urn:uuid:8b60c406-f262-47ce-80bf-7382f7b80766",
          "display": "Olga Bąbel"
        },
        "effectiveDateTime": "2024-04-14"
      }
    },
    {
      "fullUrl": "urn:uuid:ec8bcabd-0876-4bdb-86b7-bc4a8753bdbf",
      "resource": {
        "resourceType": "Observation",
        "id": "ec8bcabd-0876-4bdb-86b7-bc4a8753bdbf",
        "meta": {
          "profile": [
            "http://hl7.org/fhir/StructureDefinition/vitalsigns"
          ]
        },
        "category": [
          {
            "coding": [
              {
                "system": "http://terminology.hl7.org/CodeSystem/observation-category",
                "code": "vital-signs",
                "display": "Vital Signs"
              }
            ]
          }
        ],
        "valueQuantity": {
          "value": 3,
          "code": "{score}",
          "unit": "{score}"
        },
        "text": {
          "status": "generated",
          "div": "<div xmlns=\"http://www.w3.org/1999/xhtml\"><table class=\"hl7__ips\"><tr><th>Vital Sign</th><th>Date</th><th>Measurement</th></tr><tr><td>Pain severity - 0-10 verbal numeric rating [Score] - Reported</td><td>14-Apr-2024</td><td>3 {score}</td></tr></table></div>"
        },
        "status": "final",
        "code": {
          "coding": [
            {
              "code": "$72514-3",
              "system": "http://loinc.org",
              "display": "Pain severity - 0-10 verbal numeric rating [Score] - Reported"
            }
          ]
        },
        "subject": {
          "reference": "urn:uuid:8b60c406-f262-47ce-80bf-7382f7b80766",
          "display": "Olga Bąbel"
        },
        "effectiveDateTime": "2024-04-14"
      }
    },
    {
      "fullUrl": "urn:uuid:5c533915-8507-4063-a5fe-8040d8f693a6",
      "resource": {
        "resourceType": "Observation",
        "id": "5c533915-8507-4063-a5fe-8040d8f693a6",
        "meta": {
          "profile": [
            "http://hl7.org/fhir/StructureDefinition/vitalsigns"
          ]
        },
        "category": [
          {
            "coding": [
              {
                "system": "http://terminology.hl7.org/CodeSystem/observation-category",
                "code": "vital-signs",
                "display": "Vital Signs"
              }
            ]
          }
        ],
        "valueQuantity": {
          "value": 84.1,
          "code": "kg",
          "unit": "kg"
        },
        "text": {
          "status": "generated",
          "div": "<div xmlns=\"http://www.w3.org/1999/xhtml\"><table class=\"hl7__ips\"><tr><th>Vital Sign</th><th>Date</th><th>Measurement</th></tr><tr><td>Body Weight</td><td>14-Apr-2024</td><td>84.1 kg</td></tr></table></div>"
        },
        "status": "final",
        "code": {
          "coding": [
            {
              "code": "$29463-7",
              "system": "http://loinc.org",
              "display": "Body Weight"
            }
          ]
        },
        "subject": {
          "reference": "urn:uuid:8b60c406-f262-47ce-80bf-7382f7b80766",
          "display": "Olga Bąbel"
        },
        "effectiveDateTime": "2024-04-14"
      }
    },
    {
      "fullUrl": "urn:uuid:500fb102-ce0f-4708-bf0d-3972c91ee36a",
      "resource": {
        "resourceType": "Observation",
        "id": "500fb102-ce0f-4708-bf0d-3972c91ee36a",
        "meta": {
          "profile": [
            "http://hl7.org/fhir/StructureDefinition/vitalsigns"
          ]
        },
        "category": [
          {
            "coding": [
              {
                "system": "http://terminology.hl7.org/CodeSystem/observation-category",
                "code": "vital-signs",
                "display": "Vital Signs"
              }
            ]
          }
        ],
        "valueQuantity": {
          "value": 29.7,
          "code": "kg/m2",
          "unit": "kg/m2"
        },
        "text": {
          "status": "generated",
          "div": "<div xmlns=\"http://www.w3.org/1999/xhtml\"><table class=\"hl7__ips\"><tr><th>Vital Sign</th><th>Date</th><th>Measurement</th></tr><tr><td>Body mass index (BMI) [Ratio]</td><td>14-Apr-2024</td><td>29.7 kg/m2</td></tr></table></div>"
        },
        "status": "final",
        "code": {
          "coding": [
            {
              "code": "$39156-5",
              "system": "http://loinc.org",
              "display": "Body mass index (BMI) [Ratio]"
            }
          ]
        },
        "subject": {
          "reference": "urn:uuid:8b60c406-f262-47ce-80bf-7382f7b80766",
          "display": "Olga Bąbel"
        },
        "effectiveDateTime": "2024-04-14"
      }
    },
    {
      "fullUrl": "urn:uuid:35fb0a21-cc1e-4852-a2bc-31733d60bbc1",
      "resource": {
        "resourceType": "Observation",
        "id": "35fb0a21-cc1e-4852-a2bc-31733d60bbc1",
        "meta": {
          "profile": [
            "http://hl7.org/fhir/StructureDefinition/vitalsigns"
          ]
        },
        "category": [
          {
            "coding": [
              {
                "system": "http://terminology.hl7.org/CodeSystem/observation-category",
                "code": "vital-signs",
                "display": "Vital Signs"
              }
            ]
          }
        ],
        "valueQuantity": {
          "value": 82,
          "code": "mm[Hg]",
          "unit": "mm[Hg]"
        },
        "text": {
          "status": "generated",
          "div": "<div xmlns=\"http://www.w3.org/1999/xhtml\"><table class=\"hl7__ips\"><tr><th>Vital Sign</th><th>Date</th><th>Measurement</th></tr><tr><td>Diastolic Blood Pressure</td><td>14-Apr-2024</td><td>82 mm[Hg]</td></tr></table></div>"
        },
        "status": "final",
        "code": {
          "coding": [
            {
              "code": "$8462-4",
              "system": "http://loinc.org",
              "display": "Diastolic Blood Pressure"
            }
          ]
        },
        "subject": {
          "reference": "urn:uuid:8b60c406-f262-47ce-80bf-7382f7b80766",
          "display": "Olga Bąbel"
        },
        "effectiveDateTime": "2024-04-14"
      }
    },
    {
      "fullUrl": "urn:uuid:c065a48f-836f-4813-9626-f8c64bc79ffa",
      "resource": {
        "resourceType": "Observation",
        "id": "c065a48f-836f-4813-9626-f8c64bc79ffa",
        "meta": {
          "profile": [
            "http://hl7.org/fhir/StructureDefinition/vitalsigns"
          ]
        },
        "category": [
          {
            "coding": [
              {
                "system": "http://terminology.hl7.org/CodeSystem/observation-category",
                "code": "vital-signs",
                "display": "Vital Signs"
              }
            ]
          }
        ],
        "valueQuantity": {
          "value": 139,
          "code": "mm[Hg]",
          "unit": "mm[Hg]"
        },
        "text": {
          "status": "generated",
          "div": "<div xmlns=\"http://www.w3.org/1999/xhtml\"><table class=\"hl7__ips\"><tr><th>Vital Sign</th><th>Date</th><th>Measurement</th></tr><tr><td>Systolic Blood Pressure</td><td>14-Apr-2024</td><td>139 mm[Hg]</td></tr></table></div>"
        },
        "status": "final",
        "code": {
          "coding": [
            {
              "code": "$8480-6",
              "system": "http://loinc.org",
              "display": "Systolic Blood Pressure"
            }
          ]
        },
        "subject": {
          "reference": "urn:uuid:8b60c406-f262-47ce-80bf-7382f7b80766",
          "display": "Olga Bąbel"
        },
        "effectiveDateTime": "2024-04-14"
      }
    },
    {
      "fullUrl": "urn:uuid:ac28fd5a-c397-46b7-93a6-2be0678e6d7f",
      "resource": {
        "resourceType": "Observation",
        "id": "ac28fd5a-c397-46b7-93a6-2be0678e6d7f",
        "meta": {
          "profile": [
            "http://hl7.org/fhir/StructureDefinition/vitalsigns"
          ]
        },
        "category": [
          {
            "coding": [
              {
                "system": "http://terminology.hl7.org/CodeSystem/observation-category",
                "code": "vital-signs",
                "display": "Vital Signs"
              }
            ]
          }
        ],
        "valueQuantity": {
          "value": 85,
          "code": "/min",
          "unit": "/min"
        },
        "text": {
          "status": "generated",
          "div": "<div xmlns=\"http://www.w3.org/1999/xhtml\"><table class=\"hl7__ips\"><tr><th>Vital Sign</th><th>Date</th><th>Measurement</th></tr><tr><td>Heart rate</td><td>14-Apr-2024</td><td>85 /min</td></tr></table></div>"
        },
        "status": "final",
        "code": {
          "coding": [
            {
              "code": "$8867-4",
              "system": "http://loinc.org",
              "display": "Heart rate"
            }
          ]
        },
        "subject": {
          "reference": "urn:uuid:8b60c406-f262-47ce-80bf-7382f7b80766",
          "display": "Olga Bąbel"
        },
        "effectiveDateTime": "2024-04-14"
      }
    },
    {
      "fullUrl": "urn:uuid:e19cad06-0bfa-47e8-84d9-2836bfb5e470",
      "resource": {
        "resourceType": "Observation",
        "id": "e19cad06-0bfa-47e8-84d9-2836bfb5e470",
        "meta": {
          "profile": [
            "http://hl7.org/fhir/StructureDefinition/vitalsigns"
          ]
        },
        "category": [
          {
            "coding": [
              {
                "system": "http://terminology.hl7.org/CodeSystem/observation-category",
                "code": "vital-signs",
                "display": "Vital Signs"
              }
            ]
          }
        ],
        "valueQuantity": {
          "value": 15,
          "code": "/min",
          "unit": "/min"
        },
        "text": {
          "status": "generated",
          "div": "<div xmlns=\"http://www.w3.org/1999/xhtml\"><table class=\"hl7__ips\"><tr><th>Vital Sign</th><th>Date</th><th>Measurement</th></tr><tr><td>Respiratory rate</td><td>14-Apr-2024</td><td>15 /min</td></tr></table></div>"
        },
        "status": "final",
        "code": {
          "coding": [
            {
              "code": "$9279-1",
              "system": "http://loinc.org",
              "display": "Respiratory rate"
            }
          ]
        },
        "subject": {
          "reference": "urn:uuid:8b60c406-f262-47ce-80bf-7382f7b80766",
          "display": "Olga Bąbel"
        },
        "effectiveDateTime": "2024-04-14"
      }
    },
    {
      "fullUrl": "urn:uuid:6e263a59-a57f-48e3-8ebe-6a63c46809a0",
      "resource": {
        "resourceType": "Observation",
        "id": "6e263a59-a57f-48e3-8ebe-6a63c46809a0",
        "meta": {
          "profile": [
            "http://hl7.eu/fhir/laboratory/StructureDefinition/Observation-resultslab-eu-lab"
          ]
        },
        "performer": [
          {
            "display": "The Central European Lab"
          }
        ],
        "category": [
          {
            "coding": [
              {
                "system": "http://terminology.hl7.org/CodeSystem/observation-category",
                "code": "laboratory"
              }
            ]
          }
        ],
        "code": {
          "coding": [
            {
              "code": "4548-4",
              "system": "http://loinc.org",
              "display": "Hemoglobin A1c/Hemoglobin.total in Blood"
            }
          ],
          "text": "Hemoglobin A1c/Hemoglobin.total in Blood"
        },
        "valueQuantity": {
          "system": "http://unitsofmeasure.org",
          "value": 6.4,
          "unit": "%",
          "code": "%"
        },
        "referenceRange": [
          {
            "low": {
              "value": 4.8,
              "code": "%",
              "system": "http://unitsofmeasure.org"
            }
          },
          {
            "high": {
              "value": 5.7,
              "code": "%",
              "system": "http://unitsofmeasure.org"
            }
          }
        ],
        "interpretation": [
          {
            "coding": [
              {
                "code": "H",
                "system": "http://terminology.hl7.org/CodeSystem/v3-ObservationInterpretation",
                "display": "High"
              }
            ]
          }
        ],
        "text": {
          "status": "generated",
          "div": "<div xmlns=\"http://www.w3.org/1999/xhtml\"><table class=\"hl7__eu__lab__report\"><tr><th>Test</th><th>20-Apr-2025</th><th>Reference Range</th><th>Unit</th></tr><tr><td>Hemoglobin A1c/Hemoglobin.total in Blood</td><td>6.4</td><td>4.8 - 5.7</td><td>H</td><td>%</td></tr></table></div>"
        },
        "status": "final",
        "subject": {
          "reference": "urn:uuid:8b60c406-f262-47ce-80bf-7382f7b80766",
          "display": "Olga Bąbel"
        },
        "effectiveDateTime": "2025-04-20T03:55:50Z"
      }
    },
    {
      "fullUrl": "urn:uuid:27b7efc7-1c87-42e8-81b8-568584427b07",
      "resource": {
        "resourceType": "Observation",
        "id": "27b7efc7-1c87-42e8-81b8-568584427b07",
        "meta": {
          "profile": [
            "http://hl7.eu/fhir/laboratory/StructureDefinition/Observation-resultslab-eu-lab"
          ]
        },
        "performer": [
          {
            "display": "The Central European Lab"
          }
        ],
        "category": [
          {
            "coding": [
              {
                "system": "http://terminology.hl7.org/CodeSystem/observation-category",
                "code": "laboratory"
              }
            ]
          }
        ],
        "code": {
          "coding": [
            {
              "code": "2339-0",
              "system": "http://loinc.org",
              "display": "Glucose [Mass/volume] in Blood"
            }
          ],
          "text": "Glucose [Mass/volume] in Blood"
        },
        "valueQuantity": {
          "system": "http://unitsofmeasure.org",
          "value": 98.9,
          "unit": "mg/dL",
          "code": "mg/dL"
        },
        "referenceRange": [
          {
            "low": {
              "value": 70,
              "code": "mg/dL",
              "system": "http://unitsofmeasure.org"
            }
          },
          {
            "high": {
              "value": 99,
              "code": "mg/dL",
              "system": "http://unitsofmeasure.org"
            }
          }
        ],
        "text": {
          "status": "generated",
          "div": "<div xmlns=\"http://www.w3.org/1999/xhtml\"><table class=\"hl7__eu__lab__report\"><tr><th>Test</th><th>20-Apr-2025</th><th>Reference Range</th><th>Unit</th></tr><tr><td>Glucose [Mass/volume] in Blood</td><td>98.9</td><td>70 - 99</td><td></td><td>mg/dL</td></tr></table></div>"
        },
        "status": "final",
        "subject": {
          "reference": "urn:uuid:8b60c406-f262-47ce-80bf-7382f7b80766",
          "display": "Olga Bąbel"
        },
        "effectiveDateTime": "2025-04-20T03:55:50Z"
      }
    },
    {
      "fullUrl": "urn:uuid:c604db7c-4fb6-4e90-8a66-bd962a54e368",
      "resource": {
        "resourceType": "Observation",
        "id": "c604db7c-4fb6-4e90-8a66-bd962a54e368",
        "meta": {
          "profile": [
            "http://hl7.eu/fhir/laboratory/StructureDefinition/Observation-resultslab-eu-lab"
          ]
        },
        "performer": [
          {
            "display": "The Central European Lab"
          }
        ],
        "category": [
          {
            "coding": [
              {
                "system": "http://terminology.hl7.org/CodeSystem/observation-category",
                "code": "laboratory"
              }
            ]
          }
        ],
        "code": {
          "coding": [
            {
              "code": "6299-2",
              "system": "http://loinc.org",
              "display": "Urea nitrogen [Mass/volume] in Blood"
            }
          ],
          "text": "Urea nitrogen [Mass/volume] in Blood"
        },
        "valueQuantity": {
          "system": "http://unitsofmeasure.org",
          "value": 9.4,
          "unit": "mg/dL",
          "code": "mg/dL"
        },
        "referenceRange": [
          {
            "low": {
              "value": 7,
              "code": "mg/dL",
              "system": "http://unitsofmeasure.org"
            }
          },
          {
            "high": {
              "value": 20,
              "code": "mg/dL",
              "system": "http://unitsofmeasure.org"
            }
          }
        ],
        "text": {
          "status": "generated",
          "div": "<div xmlns=\"http://www.w3.org/1999/xhtml\"><table class=\"hl7__eu__lab__report\"><tr><th>Test</th><th>20-Apr-2025</th><th>Reference Range</th><th>Unit</th></tr><tr><td>Urea nitrogen [Mass/volume] in Blood</td><td>9.4</td><td>7 - 20</td><td></td><td>mg/dL</td></tr></table></div>"
        },
        "status": "final",
        "subject": {
          "reference": "urn:uuid:8b60c406-f262-47ce-80bf-7382f7b80766",
          "display": "Olga Bąbel"
        },
        "effectiveDateTime": "2025-04-20T03:55:50Z"
      }
    },
    {
      "fullUrl": "urn:uuid:e3ccc22a-a26a-4db1-bd87-dc5d3b91df4f",
      "resource": {
        "resourceType": "Observation",
        "id": "e3ccc22a-a26a-4db1-bd87-dc5d3b91df4f",
        "meta": {
          "profile": [
            "http://hl7.eu/fhir/laboratory/StructureDefinition/Observation-resultslab-eu-lab"
          ]
        },
        "performer": [
          {
            "display": "The Central European Lab"
          }
        ],
        "category": [
          {
            "coding": [
              {
                "system": "http://terminology.hl7.org/CodeSystem/observation-category",
                "code": "laboratory"
              }
            ]
          }
        ],
        "code": {
          "coding": [
            {
              "code": "38483-4",
              "system": "http://loinc.org",
              "display": "Creatinine [Mass/volume] in Blood"
            }
          ],
          "text": "Creatinine [Mass/volume] in Blood"
        },
        "valueQuantity": {
          "system": "http://unitsofmeasure.org",
          "value": 1.2,
          "unit": "mg/dL",
          "code": "mg/dL"
        },
        "referenceRange": [
          {
            "low": {
              "value": 0.6,
              "code": "mg/dL",
              "system": "http://unitsofmeasure.org"
            }
          },
          {
            "high": {
              "value": 1.1,
              "code": "mg/dL",
              "system": "http://unitsofmeasure.org"
            }
          }
        ],
        "interpretation": [
          {
            "coding": [
              {
                "code": "H",
                "system": "http://terminology.hl7.org/CodeSystem/v3-ObservationInterpretation",
                "display": "High"
              }
            ]
          }
        ],
        "text": {
          "status": "generated",
          "div": "<div xmlns=\"http://www.w3.org/1999/xhtml\"><table class=\"hl7__eu__lab__report\"><tr><th>Test</th><th>20-Apr-2025</th><th>Reference Range</th><th>Unit</th></tr><tr><td>Creatinine [Mass/volume] in Blood</td><td>1.2</td><td>0.6 - 1.1</td><td>H</td><td>mg/dL</td></tr></table></div>"
        },
        "status": "final",
        "subject": {
          "reference": "urn:uuid:8b60c406-f262-47ce-80bf-7382f7b80766",
          "display": "Olga Bąbel"
        },
        "effectiveDateTime": "2025-04-20T03:55:50Z"
      }
    },
    {
      "fullUrl": "urn:uuid:fe2d1298-1c17-4593-a249-a9633043b81c",
      "resource": {
        "resourceType": "Observation",
        "id": "fe2d1298-1c17-4593-a249-a9633043b81c",
        "meta": {
          "profile": [
            "http://hl7.eu/fhir/laboratory/StructureDefinition/Observation-resultslab-eu-lab"
          ]
        },
        "performer": [
          {
            "display": "The Central European Lab"
          }
        ],
        "category": [
          {
            "coding": [
              {
                "system": "http://terminology.hl7.org/CodeSystem/observation-category",
                "code": "laboratory"
              }
            ]
          }
        ],
        "code": {
          "coding": [
            {
              "code": "49765-1",
              "system": "http://loinc.org",
              "display": "Calcium [Mass/volume] in Blood"
            }
          ],
          "text": "Calcium [Mass/volume] in Blood"
        },
        "valueQuantity": {
          "system": "http://unitsofmeasure.org",
          "value": 9.9,
          "unit": "mg/dL",
          "code": "mg/dL"
        },
        "referenceRange": [
          {
            "low": {
              "value": 8.5,
              "code": "mg/dL",
              "system": "http://unitsofmeasure.org"
            }
          },
          {
            "high": {
              "value": 10.4,
              "code": "mg/dL",
              "system": "http://unitsofmeasure.org"
            }
          }
        ],
        "text": {
          "status": "generated",
          "div": "<div xmlns=\"http://www.w3.org/1999/xhtml\"><table class=\"hl7__eu__lab__report\"><tr><th>Test</th><th>20-Apr-2025</th><th>Reference Range</th><th>Unit</th></tr><tr><td>Calcium [Mass/volume] in Blood</td><td>9.9</td><td>8.5 - 10.4</td><td></td><td>mg/dL</td></tr></table></div>"
        },
        "status": "final",
        "subject": {
          "reference": "urn:uuid:8b60c406-f262-47ce-80bf-7382f7b80766",
          "display": "Olga Bąbel"
        },
        "effectiveDateTime": "2025-04-20T03:55:50Z"
      }
    },
    {
      "fullUrl": "urn:uuid:a5062e45-65c6-401f-8678-b965843ed975",
      "resource": {
        "resourceType": "Observation",
        "id": "a5062e45-65c6-401f-8678-b965843ed975",
        "meta": {
          "profile": [
            "http://hl7.eu/fhir/laboratory/StructureDefinition/Observation-resultslab-eu-lab"
          ]
        },
        "performer": [
          {
            "display": "The Central European Lab"
          }
        ],
        "category": [
          {
            "coding": [
              {
                "system": "http://terminology.hl7.org/CodeSystem/observation-category",
                "code": "laboratory"
              }
            ]
          }
        ],
        "code": {
          "coding": [
            {
              "code": "2947-0",
              "system": "http://loinc.org",
              "display": "Sodium [Moles/volume] in Blood"
            }
          ],
          "text": "Sodium [Moles/volume] in Blood"
        },
        "valueQuantity": {
          "system": "http://unitsofmeasure.org",
          "value": 142.1,
          "unit": "mmol/L",
          "code": "mmol/L"
        },
        "referenceRange": [
          {
            "low": {
              "value": 135,
              "code": "mmol/L",
              "system": "http://unitsofmeasure.org"
            }
          },
          {
            "high": {
              "value": 145,
              "code": "mmol/L",
              "system": "http://unitsofmeasure.org"
            }
          }
        ],
        "text": {
          "status": "generated",
          "div": "<div xmlns=\"http://www.w3.org/1999/xhtml\"><table class=\"hl7__eu__lab__report\"><tr><th>Test</th><th>20-Apr-2025</th><th>Reference Range</th><th>Unit</th></tr><tr><td>Sodium [Moles/volume] in Blood</td><td>142.1</td><td>135 - 145</td><td></td><td>mmol/L</td></tr></table></div>"
        },
        "status": "final",
        "subject": {
          "reference": "urn:uuid:8b60c406-f262-47ce-80bf-7382f7b80766",
          "display": "Olga Bąbel"
        },
        "effectiveDateTime": "2025-04-20T03:55:50Z"
      }
    },
    {
      "fullUrl": "urn:uuid:1cfae690-328e-4c66-beed-8f0689854e7e",
      "resource": {
        "resourceType": "Observation",
        "id": "1cfae690-328e-4c66-beed-8f0689854e7e",
        "meta": {
          "profile": [
            "http://hl7.eu/fhir/laboratory/StructureDefinition/Observation-resultslab-eu-lab"
          ]
        },
        "performer": [
          {
            "display": "The Central European Lab"
          }
        ],
        "category": [
          {
            "coding": [
              {
                "system": "http://terminology.hl7.org/CodeSystem/observation-category",
                "code": "laboratory"
              }
            ]
          }
        ],
        "code": {
          "coding": [
            {
              "code": "6298-4",
              "system": "http://loinc.org",
              "display": "Potassium [Moles/volume] in Blood"
            }
          ],
          "text": "Potassium [Moles/volume] in Blood"
        },
        "valueQuantity": {
          "system": "http://unitsofmeasure.org",
          "value": 4.6,
          "unit": "mmol/L",
          "code": "mmol/L"
        },
        "referenceRange": [
          {
            "low": {
              "value": 3.5,
              "code": "mmol/L",
              "system": "http://unitsofmeasure.org"
            }
          },
          {
            "high": {
              "value": 5.1,
              "code": "mmol/L",
              "system": "http://unitsofmeasure.org"
            }
          }
        ],
        "text": {
          "status": "generated",
          "div": "<div xmlns=\"http://www.w3.org/1999/xhtml\"><table class=\"hl7__eu__lab__report\"><tr><th>Test</th><th>20-Apr-2025</th><th>Reference Range</th><th>Unit</th></tr><tr><td>Potassium [Moles/volume] in Blood</td><td>4.6</td><td>3.5 - 5.1</td><td></td><td>mmol/L</td></tr></table></div>"
        },
        "status": "final",
        "subject": {
          "reference": "urn:uuid:8b60c406-f262-47ce-80bf-7382f7b80766",
          "display": "Olga Bąbel"
        },
        "effectiveDateTime": "2025-04-20T03:55:50Z"
      }
    },
    {
      "fullUrl": "urn:uuid:282c9c9a-6787-4182-871f-2d98a4906557",
      "resource": {
        "resourceType": "Observation",
        "id": "282c9c9a-6787-4182-871f-2d98a4906557",
        "meta": {
          "profile": [
            "http://hl7.eu/fhir/laboratory/StructureDefinition/Observation-resultslab-eu-lab"
          ]
        },
        "performer": [
          {
            "display": "The Central European Lab"
          }
        ],
        "category": [
          {
            "coding": [
              {
                "system": "http://terminology.hl7.org/CodeSystem/observation-category",
                "code": "laboratory"
              }
            ]
          }
        ],
        "code": {
          "coding": [
            {
              "code": "2069-3",
              "system": "http://loinc.org",
              "display": "Chloride [Moles/volume] in Blood"
            }
          ],
          "text": "Chloride [Moles/volume] in Blood"
        },
        "valueQuantity": {
          "system": "http://unitsofmeasure.org",
          "value": 110.7,
          "unit": "mmol/L",
          "code": "mmol/L"
        },
        "referenceRange": [
          {
            "low": {
              "value": 98,
              "code": "mmol/L",
              "system": "http://unitsofmeasure.org"
            }
          },
          {
            "high": {
              "value": 107,
              "code": "mmol/L",
              "system": "http://unitsofmeasure.org"
            }
          }
        ],
        "interpretation": [
          {
            "coding": [
              {
                "code": "H",
                "system": "http://terminology.hl7.org/CodeSystem/v3-ObservationInterpretation",
                "display": "High"
              }
            ]
          }
        ],
        "text": {
          "status": "generated",
          "div": "<div xmlns=\"http://www.w3.org/1999/xhtml\"><table class=\"hl7__eu__lab__report\"><tr><th>Test</th><th>20-Apr-2025</th><th>Reference Range</th><th>Unit</th></tr><tr><td>Chloride [Moles/volume] in Blood</td><td>110.7</td><td>98 - 107</td><td>H</td><td>mmol/L</td></tr></table></div>"
        },
        "status": "final",
        "subject": {
          "reference": "urn:uuid:8b60c406-f262-47ce-80bf-7382f7b80766",
          "display": "Olga Bąbel"
        },
        "effectiveDateTime": "2025-04-20T03:55:50Z"
      }
    },
    {
      "fullUrl": "urn:uuid:a57c8695-6171-454c-a831-0ca576f3e65d",
      "resource": {
        "resourceType": "Observation",
        "id": "a57c8695-6171-454c-a831-0ca576f3e65d",
        "meta": {
          "profile": [
            "http://hl7.eu/fhir/laboratory/StructureDefinition/Observation-resultslab-eu-lab"
          ]
        },
        "performer": [
          {
            "display": "The Central European Lab"
          }
        ],
        "category": [
          {
            "coding": [
              {
                "system": "http://terminology.hl7.org/CodeSystem/observation-category",
                "code": "laboratory"
              }
            ]
          }
        ],
        "code": {
          "coding": [
            {
              "code": "20565-8",
              "system": "http://loinc.org",
              "display": "Carbon dioxide, total [Moles/volume] in Blood"
            }
          ],
          "text": "Carbon dioxide, total [Moles/volume] in Blood"
        },
        "valueQuantity": {
          "system": "http://unitsofmeasure.org",
          "value": 21.1,
          "unit": "mmol/L",
          "code": "mmol/L"
        },
        "referenceRange": [
          {
            "low": {
              "value": 22,
              "code": "mmol/L",
              "system": "http://unitsofmeasure.org"
            }
          },
          {
            "high": {
              "value": 29,
              "code": "mmol/L",
              "system": "http://unitsofmeasure.org"
            }
          }
        ],
        "interpretation": [
          {
            "coding": [
              {
                "code": "L",
                "system": "http://terminology.hl7.org/CodeSystem/v3-ObservationInterpretation",
                "display": "Low"
              }
            ]
          }
        ],
        "text": {
          "status": "generated",
          "div": "<div xmlns=\"http://www.w3.org/1999/xhtml\"><table class=\"hl7__eu__lab__report\"><tr><th>Test</th><th>20-Apr-2025</th><th>Reference Range</th><th>Unit</th></tr><tr><td>Carbon dioxide, total [Moles/volume] in Blood</td><td>21.1</td><td>22 - 29</td><td>L</td><td>mmol/L</td></tr></table></div>"
        },
        "status": "final",
        "subject": {
          "reference": "urn:uuid:8b60c406-f262-47ce-80bf-7382f7b80766",
          "display": "Olga Bąbel"
        },
        "effectiveDateTime": "2025-04-20T03:55:50Z"
      }
    },
    {
      "fullUrl": "urn:uuid:0734fa0e-d8ee-449c-a976-dd6162b1bcce",
      "resource": {
        "resourceType": "DeviceUseStatement",
        "id": "0734fa0e-d8ee-449c-a976-dd6162b1bcce",
        "meta": {
          "profile": [
            "http://hl7.eu/fhir/eps/StructureDefinition/deviceUseStatement-eu-eps"
          ]
        },
        "timingPeriod": {
          "start": "2024-04-14"
        },
        "text": {
          "status": "generated",
          "div": "<div xmlns=\"http://www.w3.org/1999/xhtml\"><table class=\"hl7__ips\"><tr><td>Blood glucose meter (physical object)</td><td><span class=\"nb\">14-Apr-2024</span></td></tr></table></div>"
        },
        "status": "active",
        "device": {
          "reference": "urn:uuid:c0aa1ce9-0471-4c59-8123-8c9de4d9e248",
          "display": "Blood glucose meter (physical object)"
        },
        "subject": {
          "reference": "urn:uuid:8b60c406-f262-47ce-80bf-7382f7b80766",
          "display": "Olga Bąbel"
        }
      }
    },
    {
      "fullUrl": "urn:uuid:c0aa1ce9-0471-4c59-8123-8c9de4d9e248",
      "resource": {
        "resourceType": "Device",
        "id": "c0aa1ce9-0471-4c59-8123-8c9de4d9e248",
        "meta": {
          "profile": [
            "http://hl7.eu/fhir/eps/StructureDefinition/device-eu-eps"
          ]
        },
        "udiCarrier": [
          {
            "id": "(01)42192044523399(11)240324(17)490408(10)3678134(21)984351"
          }
        ],
        "status": "active",
        "patient": {
          "reference": "urn:uuid:8b60c406-f262-47ce-80bf-7382f7b80766",
          "display": "Olga Bąbel"
        },
        "type": {
          "coding": [
            {
              "code": "337414009",
              "system": "http://snomed.info/sct",
              "display": "Blood glucose meter (physical object)"
            }
          ]
        }
      }
    },
    {
      "fullUrl": "urn:uuid:970fd107-56c8-4bb9-9379-7bd2b02e08d5",
      "resource": {
        "resourceType": "Device",
        "id": "970fd107-56c8-4bb9-9379-7bd2b02e08d5",
        "deviceName": [
          {
            "name": "SYNDERAI Synthetic Generator",
            "type": "manufacturer-name"
          }
        ],
        "version": [
          {
            "value": "5.0"
          }
        ],
        "text": {
          "status": "generated",
          "div": "<div xmlns=\"http://www.w3.org/1999/xhtml\">SYNDERAI Synthetic Generator v5.0</div>"
        },
        "status": "active\"",
        "distinctIdentifier": "synderai-generator-50",
        "manufacturer": "SYNDERAI Project"
      }
    },
    {
      "fullUrl": "urn:uuid:fcbcbd02-3b93-4f54-9197-7303d4b15b02",
      "resource": {
        "resourceType": "Provenance",
        "id": "fcbcbd02-3b93-4f54-9197-7303d4b15b02",
        "target": [
          {
            "reference": "Patient/8b60c406-f262-47ce-80bf-7382f7b80766"
          },
          {
            "reference": "Bundle/6aab481f-866c-4413-ab33-c9950121a851"
          },
          {
            "reference": "Composition/e8fb9d04-922b-4931-9ed3-54942ff5f6a6"
          },
          {
            "reference": "PractitionerRole/425ee769-ed9a-4716-b8a6-41d1a9877cec"
          },
          {
            "reference": "Organization/5bec286a-9f6a-47c4-b3b3-b6171ed2eaa6"
          },
          {
            "reference": "Practitioner/5e9985ee-9987-4ec1-bd5d-7c533cba64d4"
          }
        ],
        "activity": {
          "text": "Synthetic Example Data Generation"
        },
        "policy": [
          "https://synderai.net/synderai-synthetic-data-policy"
        ],
        "agent": [
          {
            "type": {
              "text": "author"
            },
            "who": {
              "reference": "Device/970fd107-56c8-4bb9-9379-7bd2b02e08d5"
            }
          }
        ],
        "reason": [
          {
            "text": "Interoperability Testing and Training (non-clinical use)"
          }
        ],
        "text": {
          "status": "generated",
          "div": "<div xmlns=\"http://www.w3.org/1999/xhtml\">Provenance for SYNDERAI Synthetic Example Data Resource</div>"
        },
        "recorded": "2025-04-20T03:55:50Z"
      }
    }
  ],
  "type": "document",
  "timestamp": "2025-04-20T03:55:50Z"
}
