<Bundle xmlns="http://hl7.org/fhir">
   <id value="63ec5f59-c135-4826-83c7-609e64e62363"/>
   <meta>
      <profile value="http://hl7.eu/fhir/eps/StructureDefinition/bundle-eu-eps"/>
   </meta>
   <identifier>
      <system value="urn:oid:2.16.840.1.113883.2.51.999"/>
      <value value="35e5116e-3dc7-425a-bda2-b17335c6dfc2"/>
      <assigner>
         <display value="HL7 Europe"/>
      </assigner>
   </identifier>
   <type value="document"/>
   <timestamp value="2024-08-07T00:49:39Z"/>
   <entry>
      <fullUrl value="urn:uuid:4db4af21-cab5-454a-99f1-05fd2f756697"/>
      <resource>
         <Composition>
            <id value="4db4af21-cab5-454a-99f1-05fd2f756697"/>
            <meta>
               <profile value="http://hl7.eu/fhir/eps/StructureDefinition/composition-eu-eps"/>
               <security>
                  <system value="http://terminology.hl7.org/CodeSystem/v3-ActReason"/>
                  <code value="HTEST"/>
               </security>
               <security>
                  <system value="http://terminology.hl7.org/CodeSystem/v3-ActReason"/>
                  <code value="TRAIN"/>
               </security>
               <tag>
                  <system value="https://synderai.net/fhir/CodeSystem/tags"/>
                  <code value="synthetic"/>
                  <display value="SYNDERAI Synthetic data"/>
               </tag>
            </meta>
            <identifier>
               <system value="urn:oid:2.16.840.1.113883.2.51.999"/>
               <value value="de6b4b37-6460-4212-a571-bb955d9ec2ad"/>
               <assigner>
                  <display value="HL7 Europe"/>
               </assigner>
            </identifier>
            <status value="final"/>
            <type>
               <coding>
                  <system value="http://loinc.org"/>
                  <code value="60591-5"/>
                  <display value="Patient summary Document"/>
               </coding>
               <text value="Patient summary Document"/>
            </type>
            <subject>
               <reference value="urn:uuid:e371bc4a-2970-465c-8eab-e5cf8cd255f9"/>
               <display value="Charlene Sharpe"/>
            </subject>
            <date value="2024-08-07"/>
            <author>
               <reference value="urn:uuid:1143a6d3-55d5-448a-93a9-8ca251cc8237"/>
            </author>
            <title value="European Patient Summary"/>
            <confidentiality value="N"/>
            <custodian>
               <reference value="urn:uuid:6c7a8322-e7f9-41be-930e-19e775238e7b"/>
            </custodian>
            <section>
               <title value="Problem list"/>
               <code>
                  <coding>
                     <system value="http://loinc.org"/>
                     <code value="11450-4"/>
                     <display value="Problem list - Reported"/>
                  </coding>
               </code>
               <text>
                  <status value="generated"/>
                  <div xmlns="http://www.w3.org/1999/xhtml">
                     <table class="hl7__ips">
                        <tr>
                           <td>No known problems or disabilities</td>
                        </tr>
                     </table>
                  </div>
               </text>
               <entry>
                  <reference value="urn:uuid:3ca4c2cc-54ec-4e24-835d-4f4c4ddb6390"/>
               </entry>
            </section>
            <section>
               <title value="Medication list"/>
               <code>
                  <coding>
                     <system value="http://loinc.org"/>
                     <code value="10160-0"/>
                     <display value="History of Medication use Narrative"/>
                  </coding>
               </code>
               <text>
                  <status value="generated"/>
                  <div xmlns="http://www.w3.org/1999/xhtml">
                     <table class="hl7__ips">
                        <tr>
                           <th>Medication</th>
                           <th>Since</th>
                           <th>Form</th>
                           <th>Dosage</th>
                           <th>Reason</th>
                        </tr>
                        <tr>
                           <td>Vitamin B12 5 MG/ML Injectable Solution</td>
                           <td>
                              <span class="nb">2008-04-02</span>
                           </td>
                           <td>-</td>
                           <td>5 mg (1 mL) by intramuscular injection once weekly</td>
                           <td>-</td>
                        </tr>
                     </table>
                  </div>
               </text>
               <entry>
                  <reference value="urn:uuid:80997954-397c-4382-a218-e9514d487609"/>
               </entry>
            </section>
            <section>
               <title value="Immunizations list"/>
               <code>
                  <coding>
                     <system value="http://loinc.org"/>
                     <code value="11369-6"/>
                     <display value="History of Immunization note"/>
                  </coding>
               </code>
               <text>
                  <status value="generated"/>
                  <div xmlns="http://www.w3.org/1999/xhtml">
                     <table class="hl7__ips">
                        <tr>
                           <th>Vaccine</th>
                           <th>Date</th>
                        </tr>
                        <tr>
                           <td>Influenza virus antigen only vaccine product</td>
                           <td>
                              <span class="nb">07-Aug-2024</span>
                           </td>
                        </tr>
                        <tr>
                           <td>Clostridium tetani toxoid antigen adsorbed only vaccine product</td>
                           <td>
                              <span class="nb">04-Aug-2021</span>
                           </td>
                        </tr>
                        <tr>
                           <td>SARS-CoV-2 mRNA vaccine</td>
                           <td>
                              <span class="nb">09-Jun-2021</span>
                           </td>
                        </tr>
                     </table>
                  </div>
               </text>
               <entry>
                  <reference value="urn:uuid:43dc9281-8711-4c7f-8a60-b3508714bedf"/>
               </entry>
               <entry>
                  <reference value="urn:uuid:dd735bde-67c0-483c-b519-2cd5abfceeab"/>
               </entry>
               <entry>
                  <reference value="urn:uuid:37d99457-621a-4934-8746-c6cdf7f2aba8"/>
               </entry>
            </section>
            <section>
               <title value="Procedure History list"/>
               <code>
                  <coding>
                     <system value="http://loinc.org"/>
                     <code value="47519-4"/>
                     <display value="History of Procedures Document"/>
                  </coding>
               </code>
               <text>
                  <status value="generated"/>
                  <div xmlns="http://www.w3.org/1999/xhtml">
                     <table class="hl7__ips">
                        <tr>
                           <th>Procedure</th>
                           <th>Date</th>
                           <th>Reason</th>
                        </tr>
                        <tr>
                           <td>Medical induction of labor</td>
                           <td>
                              <span class="nb">09-Jul-2025</span>
                           </td>
                           <td>Normal pregnancy</td>
                        </tr>
                        <tr>
                           <td>Parturition</td>
                           <td>
                              <span class="nb">09-Jul-2025</span>
                           </td>
                           <td>Normal pregnancy</td>
                        </tr>
                        <tr>
                           <td>Epidural anesthesia</td>
                           <td>
                              <span class="nb">09-Aug-2023</span>
                           </td>
                           <td>Normal pregnancy</td>
                        </tr>
                        <tr>
                           <td>Cesarean section</td>
                           <td>
                              <span class="nb">30-Jan-2019</span>
                           </td>
                           <td>Normal pregnancy</td>
                        </tr>
                        <tr>
                           <td>Augmentation of labor</td>
                           <td>
                              <span class="nb">30-Jan-2019</span>
                           </td>
                           <td>Normal pregnancy</td>
                        </tr>
                     </table>
                  </div>
               </text>
               <entry>
                  <reference value="urn:uuid:3aa45fb3-298e-41c2-92e9-a85ff76f8caf"/>
               </entry>
               <entry>
                  <reference value="urn:uuid:399655ca-7cd2-4f65-b81f-4fd450b6b1b1"/>
               </entry>
               <entry>
                  <reference value="urn:uuid:caf7447c-a03f-4a65-8a4d-7600285496d4"/>
               </entry>
               <entry>
                  <reference value="urn:uuid:d6956b1f-eda4-4a97-96b1-0a652c24e1ec"/>
               </entry>
               <entry>
                  <reference value="urn:uuid:1e8f75ad-681b-4a90-9e2f-23f1a9a40d0a"/>
               </entry>
            </section>
            <section>
               <title value="Allergies and Intolerances"/>
               <code>
                  <coding>
                     <system value="http://loinc.org"/>
                     <code value="48765-2"/>
                     <display value="Allergies and adverse reactions Document"/>
                  </coding>
               </code>
               <text>
                  <status value="generated"/>
                  <div xmlns="http://www.w3.org/1999/xhtml">
                     <table class="hl7__ips">
                        <tr>
                           <th>Allergy/Intolerance</th>
                           <th>Onset Date</th>
                           <th>Status</th>
                           <th>Type</th>
                           <th>Reaction</th>
                        </tr>
                        <tr>
                           <td/>
                           <td>?</td>
                           <td>active</td>
                           <td>?</td>
                           <td/>
                        </tr>
                     </table>
                  </div>
               </text>
               <entry>
                  <reference value="urn:uuid:ce5d0c52-4640-4af7-b61b-e3030099d4e6"/>
               </entry>
            </section>
            <section>
               <title value="Vital Signs"/>
               <code>
                  <coding>
                     <system value="http://loinc.org"/>
                     <code value="8716-3"/>
                     <display value="Vital signs note"/>
                  </coding>
               </code>
               <text>
                  <status value="generated"/>
                  <div xmlns="http://www.w3.org/1999/xhtml">
                     <table class="hl7__ips">
                        <tr>
                           <th>Vital Signs</th>
                           <th>2024-08-07</th>
                           <th>2021-08-04</th>
                        </tr>
                        <tr>
                           <td>Body Height</td>
                           <td>157.1 cm</td>
                           <td>157.1 cm</td>
                        </tr>
                        <tr>
                           <td>Pain severity - 0-10 verbal numeric rating [Score] - Reported</td>
                           <td>4 {score}</td>
                           <td>1 {score}</td>
                        </tr>
                        <tr>
                           <td>Body Weight</td>
                           <td>74.1 kg</td>
                           <td>74.1 kg</td>
                        </tr>
                        <tr>
                           <td>Body mass index (BMI) [Ratio]</td>
                           <td>30 kg/m2</td>
                           <td>30 kg/m2</td>
                        </tr>
                        <tr>
                           <td>Diastolic Blood Pressure</td>
                           <td>83 mm[Hg]</td>
                           <td>79 mm[Hg]</td>
                        </tr>
                        <tr>
                           <td>Systolic Blood Pressure</td>
                           <td>125 mm[Hg]</td>
                           <td>128 mm[Hg]</td>
                        </tr>
                        <tr>
                           <td>Heart rate</td>
                           <td>86 /min</td>
                           <td>73 /min</td>
                        </tr>
                        <tr>
                           <td>Respiratory rate</td>
                           <td>14 /min</td>
                           <td>14 /min</td>
                        </tr>
                     </table>
                  </div>
               </text>
               <entry>
                  <reference value="urn:uuid:a3aef3c6-20d7-4bf1-bea9-41f68d2139c5"/>
               </entry>
               <entry>
                  <reference value="urn:uuid:45c19dc2-0eab-4cc8-956c-6fd49e5b6617"/>
               </entry>
               <entry>
                  <reference value="urn:uuid:a3e1374a-23cd-49e1-8e52-a10090d069ad"/>
               </entry>
               <entry>
                  <reference value="urn:uuid:b49df367-338e-436f-bb46-a52f517f8edf"/>
               </entry>
               <entry>
                  <reference value="urn:uuid:cb58207a-7f0e-43c7-8e0e-f2d4d520829d"/>
               </entry>
               <entry>
                  <reference value="urn:uuid:9daf8773-e758-4e04-a4c7-04db62ee1a62"/>
               </entry>
               <entry>
                  <reference value="urn:uuid:c032a45b-58ab-49fb-815d-9a68a56eca3e"/>
               </entry>
               <entry>
                  <reference value="urn:uuid:dc4e3500-653b-4ff9-a0a9-94b01e07ff75"/>
               </entry>
               <entry>
                  <reference value="urn:uuid:fb3acc96-c58d-4074-b879-42e339fb3ef7"/>
               </entry>
               <entry>
                  <reference value="urn:uuid:f46193a6-f055-4829-b3b9-1f8ce3fa7409"/>
               </entry>
               <entry>
                  <reference value="urn:uuid:bc2377d0-4518-4c3b-88cf-f752dcd28560"/>
               </entry>
               <entry>
                  <reference value="urn:uuid:53059bf8-3c56-481d-958b-33bdffcabba9"/>
               </entry>
               <entry>
                  <reference value="urn:uuid:141a3db3-c286-43f9-9b26-1ad5f8a5a4a3"/>
               </entry>
               <entry>
                  <reference value="urn:uuid:95e3f4c7-c420-448b-9674-9ab783d78eff"/>
               </entry>
               <entry>
                  <reference value="urn:uuid:1a04a717-3661-4c64-b57e-d8e46dbe93ee"/>
               </entry>
               <entry>
                  <reference value="urn:uuid:3ca14c5f-5b38-4666-871f-83b78b4a1e77"/>
               </entry>
            </section>
            <section>
               <title value="Pregnancy History"/>
               <code>
                  <coding>
                     <system value="http://loinc.org"/>
                     <code value="10162-6"/>
                     <display value="History of pregnancies Narrative"/>
                  </coding>
               </code>
               <text>
                  <status value="generated"/>
                  <div xmlns="http://www.w3.org/1999/xhtml">
                     <table class="hl7__ips">$<tr>
                           <td>[#] Births total</td>
                           <td>1</td>
                        </tr>
                     </table>
                  </div>
               </text>
            </section>
            <section>
               <title value="Relevant diagnostic tests/laboratory data"/>
               <code>
                  <coding>
                     <system value="http://loinc.org"/>
                     <code value="30954-2"/>
                     <display value="Relevant diagnostic tests/laboratory data note"/>
                  </coding>
               </code>
               <text>
                  <status value="generated"/>
                  <div xmlns="http://www.w3.org/1999/xhtml">
                     <table class="hl7__ips">
                        <table class="hl7__ips">
                           <thead>
                              <tr>
                                 <th>Recent Lab Observations</th>
                                 <th>07-AUG-2024</th>
                                 <th>Reference Range</th>
                                 <th>Unit</th>
                              </tr>
                           </thead>
                           <tbody>
                              <tr>
                                 <td>Cholesterol [Mass/volume] in Serum or Plasma</td>
                                 <td>147.2</td>
                                 <td>125 - 200</td>
                                 <td>mg/dL</td>
                              </tr>
                              <tr>
                                 <td>Triglyceride [Mass/volume] in Serum or Plasma</td>
                                 <td>123.7</td>
                                 <td>35 - 150</td>
                                 <td>mg/dL</td>
                              </tr>
                              <tr>
                                 <td>Cholesterol in LDL [Mass/volume] in Serum or Plasma by Direct assay</td>
                                 <td>63.8</td>
                                 <td>0 - 130</td>
                                 <td>mg/dL</td>
                              </tr>
                              <tr>
                                 <td>Cholesterol in HDL [Mass/volume] in Serum or Plasma</td>
                                 <td>58.7</td>
                                 <td>40 - 60</td>
                                 <td>mg/dL</td>
                              </tr>
                              <tr>
                                 <td>Leukocytes [#/volume] in Blood by Automated count</td>
                                 <td>7.5</td>
                                 <td>3.5 - 10.5</td>
                                 <td>10*3/uL</td>
                              </tr>
                              <tr>
                                 <td>Erythrocytes [#/volume] in Blood by Automated count</td>
                                 <td>5.0</td>
                                 <td>4.5 - 5.5</td>
                                 <td>10*6/uL</td>
                              </tr>
                              <tr>
                                 <td>Hemoglobin [Mass/volume] in Blood</td>
                                 <td>14.2</td>
                                 <td>12 - 16</td>
                                 <td>g/dL</td>
                              </tr>
                              <tr>
                                 <td>Hematocrit [Volume Fraction] of Blood by Automated count</td>
                                 <td>39.4</td>
                                 <td>36 - 48</td>
                                 <td>%</td>
                              </tr>
                              <tr>
                                 <td>MCV [Entitic volume] by Automated count</td>
                                 <td>90.1</td>
                                 <td>82 - 98</td>
                                 <td>fL</td>
                              </tr>
                              <tr>
                                 <td>MCH [Entitic mass] by Automated count</td>
                                 <td>31.5</td>
                                 <td>27.5 - 34.5</td>
                                 <td>pg</td>
                              </tr>
                              <tr>
                                 <td>MCHC [Mass/volume] by Automated count</td>
                                 <td>35.7</td>
                                 <td>32 - 37</td>
                                 <td>g/dL</td>
                              </tr>
                              <tr>
                                 <td>Erythrocyte distribution width [Entitic volume] by Automated count</td>
                                 <td>46.0</td>
                                 <td>36 - 55</td>
                                 <td>fL</td>
                              </tr>
                              <tr>
                                 <td>Platelets [#/volume] in Blood by Automated count</td>
                                 <td>343.1</td>
                                 <td>150 - 450</td>
                                 <td>10*3/uL</td>
                              </tr>
                              <tr>
                                 <td>Platelet distribution width [Entitic volume] in Blood by Automated count</td>
                                 <td>
                                    <strong>305.1 H</strong>
                                 </td>
                                 <td>11 - 15</td>
                                 <td>fL</td>
                              </tr>
                              <tr>
                                 <td>Platelet mean volume [Entitic volume] in Blood by Automated count</td>
                                 <td>9.8</td>
                                 <td>7.2 - 13.8</td>
                                 <td>fL</td>
                              </tr>
                           </tbody>
                        </table>
                     </table>
                  </div>
               </text>
               <entry>
                  <reference value="urn:uuid:8fbf7aab-fc6f-43f7-8958-20e55dbf8ea9"/>
               </entry>
               <entry>
                  <reference value="urn:uuid:38dccc55-5a5b-4cf8-a76c-6eda5228d0e6"/>
               </entry>
               <entry>
                  <reference value="urn:uuid:e4e309fc-463d-43e5-acea-9080ddb3a02f"/>
               </entry>
               <entry>
                  <reference value="urn:uuid:8d4cfa6a-729e-4c37-8498-919904b9018c"/>
               </entry>
               <entry>
                  <reference value="urn:uuid:d9197edf-2fcd-4535-999b-568265869314"/>
               </entry>
               <entry>
                  <reference value="urn:uuid:0e84fb29-6130-46dc-9a78-dd65c3622e5f"/>
               </entry>
               <entry>
                  <reference value="urn:uuid:4a305f29-f089-448e-bfe3-d029f69fce5a"/>
               </entry>
               <entry>
                  <reference value="urn:uuid:c6083fa5-c0bd-4f48-be0a-d055812d8e18"/>
               </entry>
               <entry>
                  <reference value="urn:uuid:0a370b69-cd37-43a2-bb8f-fd0e68b05aa3"/>
               </entry>
               <entry>
                  <reference value="urn:uuid:1c3eaed3-09f3-447c-853b-f1be934f9d89"/>
               </entry>
               <entry>
                  <reference value="urn:uuid:ec781f4c-8589-49e0-b2fd-c6780889cd8a"/>
               </entry>
               <entry>
                  <reference value="urn:uuid:6f9568e1-863c-49e2-9111-4907a78f537a"/>
               </entry>
               <entry>
                  <reference value="urn:uuid:f199c378-705c-4957-93f3-39a372f8037e"/>
               </entry>
               <entry>
                  <reference value="urn:uuid:f874e104-a10e-43bf-94a3-80e55b37e9c3"/>
               </entry>
               <entry>
                  <reference value="urn:uuid:ff7e5acb-fccf-40f5-99cc-c2f71c6029f2"/>
               </entry>
            </section>
         </Composition>
      </resource>
   </entry>
   <entry>
      <fullUrl value="urn:uuid:e371bc4a-2970-465c-8eab-e5cf8cd255f9"/>
      <resource>
         <Patient>
            <id value="e371bc4a-2970-465c-8eab-e5cf8cd255f9"/>
            <meta>
               <profile value="http://hl7.eu/fhir/eps/StructureDefinition/patient-eu-eps"/>
               <security>
                  <system value="http://terminology.hl7.org/CodeSystem/v3-ActReason"/>
                  <code value="HTEST"/>
               </security>
               <security>
                  <system value="http://terminology.hl7.org/CodeSystem/v3-ActReason"/>
                  <code value="TRAIN"/>
               </security>
               <tag>
                  <system value="https://synderai.net/fhir/CodeSystem/tags"/>
                  <code value="synthetic"/>
                  <display value="SYNDERAI Synthetic data"/>
               </tag>
            </meta>
            <text>
               <status value="generated"/>
               <div xmlns="http://www.w3.org/1999/xhtml">
                  <table class="hl7__ips">
                     <tr>
                        <td>Charlene Sharpe</td>
                        <td>female</td>
                        <td>20-Jun-1991</td>
                     </tr>
                  </table>
               </div>
            </text>
            <extension url="http://hl7.org/fhir/StructureDefinition/patient-nationality">
               <valueCodeableConcept>
                  <coding>
                     <system value="http://hl7.org/fhir/ValueSet/country"/>
                     <code value="GB"/>
                  </coding>
               </valueCodeableConcept>
            </extension>
            <identifier>
               <type>
                  <coding>
                     <system value="http://terminology.hl7.org/CodeSystem/v2-0203"/>
                     <code value="PT"/>
                  </coding>
               </type>
               <system value="http://ec.europa.eu/identifier/eci"/>
               <value value="1398-333111-0"/>
            </identifier>
            <identifier>
               <type>
                  <coding>
                     <system value="http://terminology.hl7.org/CodeSystem/v2-0203"/>
                     <code value="MR"/>
                  </coding>
               </type>
               <system value="http://local.setting.eu/identifier"/>
               <value value="6fe0fe4a-b508-d942-a7a7-576f68360f0d"/>
            </identifier>
            <name>
               <family value="Sharpe"/>
            </name>
            <name>
               <given value="Charlene"/>
            </name>
            <name>
               <text value="Charlene Sharpe"/>
            </name>
            <telecom>
               <system value="phone"/>
               <value value="+44289018242"/>
            </telecom>
            <gender value="female"/>
            <birthDate value="1991-06-20"/>
            <address>
               <use value="home"/>
               <type value="physical"/>
               <line value="Studio 63"/>
               <line value="Jenkins dale"/>
               <city value="London"/>
               <postalCode value="SW1A"/>
               <country value="United Kingdom"/>
            </address>
         </Patient>
      </resource>
   </entry>
   <entry>
      <fullUrl value="urn:uuid:1143a6d3-55d5-448a-93a9-8ca251cc8237"/>
      <resource>
         <PractitionerRole>
            <id value="1143a6d3-55d5-448a-93a9-8ca251cc8237"/>
            <meta>
               <profile value="http://hl7.eu/fhir/base/StructureDefinition/practitionerRole-eu"/>
            </meta>
            <text>
               <status value="generated"/>
               <div xmlns="http://www.w3.org/1999/xhtml">
                  <table class="hl7__ips">Provider Role Id 1143a6d3-55d5-448a-93a9-8ca251cc8237</table>
               </div>
            </text>
            <practitioner>
               <reference value="urn:uuid:154aa02c-d991-4a13-aa0d-4cd1f5d82ebd"/>
            </practitioner>
            <organization>
               <reference value="urn:uuid:6c7a8322-e7f9-41be-930e-19e775238e7b"/>
            </organization>
         </PractitionerRole>
      </resource>
   </entry>
   <entry>
      <fullUrl value="urn:uuid:154aa02c-d991-4a13-aa0d-4cd1f5d82ebd"/>
      <resource>
         <Practitioner>
            <id value="154aa02c-d991-4a13-aa0d-4cd1f5d82ebd"/>
            <meta>
               <profile value="http://hl7.eu/fhir/base/StructureDefinition/practitioner-eu"/>
            </meta>
            <text>
               <status value="generated"/>
               <div xmlns="http://www.w3.org/1999/xhtml">
                  <table class="hl7__ips">Dr. Hel Ping</table>
               </div>
            </text>
            <name>
               <family value="Ping"/>
               <given value="Hel"/>
               <prefix value="Dr."/>
            </name>
         </Practitioner>
      </resource>
   </entry>
   <entry>
      <fullUrl value="urn:uuid:6c7a8322-e7f9-41be-930e-19e775238e7b"/>
      <resource>
         <Organization>
            <id value="6c7a8322-e7f9-41be-930e-19e775238e7b"/>
            <meta>
               <profile value="http://hl7.eu/fhir/base/StructureDefinition/organization-eu"/>
            </meta>
            <text>
               <status value="generated"/>
               <div xmlns="http://www.w3.org/1999/xhtml">
                  <table class="hl7__ips">Evelina Children's Hospital</table>
               </div>
            </text>
            <identifier>
               <system value="urn:oid:2.16.840.1.113883.2.51.999"/>
               <value value="cdd6b461-4664-44c2-bbfe-32b1a6197672"/>
               <assigner>
                  <display value="HL7 Europe"/>
               </assigner>
            </identifier>
            <name value="Evelina Children&amp;#039;s Hospital"/>
            <address>
               <city value="London"/>
               <postalCode value="SE1 7"/>
               <country value="United Kingdom"/>
            </address>
         </Organization>
      </resource>
   </entry>
   <entry>
      <fullUrl value="urn:uuid:3ca4c2cc-54ec-4e24-835d-4f4c4ddb6390"/>
      <resource>
         <Condition>
            <id value="3ca4c2cc-54ec-4e24-835d-4f4c4ddb6390"/>
            <meta>
               <profile value="http://hl7.org/fhir/uv/ips/StructureDefinition/Condition-uv-ips"/>
            </meta>
            <text>
               <status value="generated"/>
               <div xmlns="http://www.w3.org/1999/xhtml">
                  <table class="hl7__ips">
                     <tr>
                        <td>No known problems or disabilities</td>
                     </tr>
                  </table>
               </div>
            </text>
            <code>
               <coding>
                  <system value="http://snomed.info/sct"/>
                  <code value="160245001"/>
                  <display value="No current problems or disability (situation)"/>
               </coding>
            </code>
            <subject>
               <reference value="Patient/e371bc4a-2970-465c-8eab-e5cf8cd255f9"/>
               <display value="Charlene Sharpe"/>
            </subject>
            <onsetDateTime>
               <extension url="http://hl7.org/fhir/StructureDefinition/data-absent-reason">
                  <valueCode value="unknown&#34;"/>
               </extension>
            </onsetDateTime>
         </Condition>
      </resource>
   </entry>
   <entry>
      <fullUrl value="urn:uuid:008f6d1d-86be-47d5-8a03-7ff3a975f3e2"/>
      <resource>
         <Medication>
            <id value="008f6d1d-86be-47d5-8a03-7ff3a975f3e2"/>
            <meta>
               <profile value="http://hl7.eu/fhir/eps/StructureDefinition/Medication-eu-eps"/>
            </meta>
            <text>
               <status value="generated"/>
               <div xmlns="http://www.w3.org/1999/xhtml">Vitamin B12 5 MG/ML Injectable Solution</div>
            </text>
            <code>
               <coding>
                  <system value="http://www.nlm.nih.gov/research/umls/rxnorm"/>
                  <code value="2001499"/>
                  <display value="Vitamin B12 5 MG/ML Injectable Solution"/>
               </coding>
               <text value="Vitamin B12 5 MG/ML Injectable Solution"/>
            </code>
         </Medication>
      </resource>
   </entry>
   <entry>
      <fullUrl value="urn:uuid:80997954-397c-4382-a218-e9514d487609"/>
      <resource>
         <MedicationStatement>
            <id value="80997954-397c-4382-a218-e9514d487609"/>
            <meta>
               <profile value="http://hl7.eu/fhir/eps/StructureDefinition/MedicationStatement-eu-eps"/>
            </meta>
            <text>
               <status value="generated"/>
               <div xmlns="http://www.w3.org/1999/xhtml">
                  <table class="hl7__ips first25">
                     <tr>
                        <th>Medication</th>
                        <th>Since</th>
                        <th>Form</th>
                        <th>Dosage</th>
                        <th>Reason</th>
                     </tr>
                     <tr>
                        <td>Vitamin B12 5 MG/ML Injectable Solution</td>
                        <td>
                           <span class="nb">2008-04-02</span>
                        </td>
                        <td>-</td>
                        <td>5 mg (1 mL) by intramuscular injection once weekly</td>
                        <td>-</td>
                     </tr>
                  </table>
               </div>
            </text>
            <status value="active"/>
            <medicationReference>
               <reference value="urn:uuid:008f6d1d-86be-47d5-8a03-7ff3a975f3e2"/>
               <display value="Vitamin B12 5 MG/ML Injectable Solution"/>
            </medicationReference>
            <subject>
               <reference value="urn:uuid:e371bc4a-2970-465c-8eab-e5cf8cd255f9"/>
               <display value="Charlene Sharpe"/>
            </subject>
            <effectivePeriod>
               <start value="2008-04-02"/>
            </effectivePeriod>
            <dosage>
               <text value="5 mg (1 mL) by intramuscular injection once weekly"/>
               <timing>
                  <repeat>
                     <frequency value="1"/>
                     <period value="1"/>
                     <periodUnit value="wk"/>
                  </repeat>
               </timing>
               <asNeededBoolean value="false"/>
               <doseAndRate>
                  <doseQuantity>
                     <value value="5"/>
                     <unit value="mg"/>
                     <system value="$ucum"/>
                     <code value="mg"/>
                  </doseQuantity>
               </doseAndRate>
            </dosage>
         </MedicationStatement>
      </resource>
   </entry>
   <entry>
      <fullUrl value="urn:uuid:43dc9281-8711-4c7f-8a60-b3508714bedf"/>
      <resource>
         <Immunization>
            <id value="43dc9281-8711-4c7f-8a60-b3508714bedf"/>
            <meta>
               <profile value="http://hl7.org/fhir/uv/ips/StructureDefinition/Immunization-uv-ips"/>
            </meta>
            <text>
               <status value="generated"/>
               <div xmlns="http://www.w3.org/1999/xhtml">
                  <table class="hl7__ips">
                     <tr>
                        <td>Influenza virus antigen only vaccine product</td>
                        <td>
                           <span class="nb">07-Aug-2024</span>
                        </td>
                     </tr>
                  </table>
               </div>
            </text>
            <status value="completed"/>
            <vaccineCode>
               <coding>
                  <system value="http://snomed.info/sct"/>
                  <code value="1181000221105"/>
                  <display value="Vaccine product containing Influenza virus antigen"/>
               </coding>
               <coding>
                  <system value="http://www.whocc.no/atc"/>
                  <code value="J07BB02"/>
                  <display value="Influenza, inactivated, split virus"/>
               </coding>
               <text value="Influenza virus antigen only vaccine product"/>
            </vaccineCode>
            <patient>
               <reference value="urn:uuid:e371bc4a-2970-465c-8eab-e5cf8cd255f9"/>
               <display value="Charlene Sharpe"/>
            </patient>
            <occurrenceDateTime value="2024-08-07"/>
            <lotNumber value="EA-if7DOLT"/>
            <expirationDate value="2025-07-04"/>
            <site>
               <coding>
                  <system value="http://snomed.info/sct"/>
                  <code value="244979005"/>
                  <display value="Entire muscle of upper arm"/>
               </coding>
               <text value="Entire muscle of upper arm"/>
            </site>
            <route>
               <coding>
                  <system value="http://snomed.info/sct"/>
                  <code value="78421000"/>
                  <display value="Intramuscular route"/>
               </coding>
               <text value="Intramuscular route"/>
            </route>
         </Immunization>
      </resource>
   </entry>
   <entry>
      <fullUrl value="urn:uuid:dd735bde-67c0-483c-b519-2cd5abfceeab"/>
      <resource>
         <Immunization>
            <id value="dd735bde-67c0-483c-b519-2cd5abfceeab"/>
            <meta>
               <profile value="http://hl7.org/fhir/uv/ips/StructureDefinition/Immunization-uv-ips"/>
            </meta>
            <text>
               <status value="generated"/>
               <div xmlns="http://www.w3.org/1999/xhtml">
                  <table class="hl7__ips">
                     <tr>
                        <td>Clostridium tetani toxoid antigen adsorbed only vaccine product</td>
                        <td>
                           <span class="nb">04-Aug-2021</span>
                        </td>
                     </tr>
                  </table>
               </div>
            </text>
            <status value="completed"/>
            <vaccineCode>
               <coding>
                  <system value="http://snomed.info/sct"/>
                  <code value="777725002"/>
                  <display value="Vaccine product containing only Clostridium tetani toxoid antigen adsorbed"/>
               </coding>
               <coding>
                  <system value="http://www.whocc.no/atc"/>
                  <code value="J07AM51"/>
                  <display value="Diphtheria-tetanus vaccines, adult type"/>
               </coding>
               <text value="Clostridium tetani toxoid antigen adsorbed only vaccine product"/>
            </vaccineCode>
            <patient>
               <reference value="urn:uuid:e371bc4a-2970-465c-8eab-e5cf8cd255f9"/>
               <display value="Charlene Sharpe"/>
            </patient>
            <occurrenceDateTime value="2021-08-04"/>
            <lotNumber value="KO-dN2b9q"/>
            <expirationDate value="2021-09-15"/>
            <site>
               <coding>
                  <system value="http://snomed.info/sct"/>
                  <code value="244979005"/>
                  <display value="Entire muscle of upper arm"/>
               </coding>
               <text value="Entire muscle of upper arm"/>
            </site>
            <route>
               <coding>
                  <system value="http://snomed.info/sct"/>
                  <code value="78421000"/>
                  <display value="Intramuscular route"/>
               </coding>
               <text value="Intramuscular route"/>
            </route>
         </Immunization>
      </resource>
   </entry>
   <entry>
      <fullUrl value="urn:uuid:37d99457-621a-4934-8746-c6cdf7f2aba8"/>
      <resource>
         <Immunization>
            <id value="37d99457-621a-4934-8746-c6cdf7f2aba8"/>
            <meta>
               <profile value="http://hl7.org/fhir/uv/ips/StructureDefinition/Immunization-uv-ips"/>
            </meta>
            <text>
               <status value="generated"/>
               <div xmlns="http://www.w3.org/1999/xhtml">
                  <table class="hl7__ips">
                     <tr>
                        <td>SARS-CoV-2 mRNA vaccine</td>
                        <td>
                           <span class="nb">09-Jun-2021</span>
                        </td>
                     </tr>
                  </table>
               </div>
            </text>
            <status value="completed"/>
            <vaccineCode>
               <coding>
                  <system value="http://snomed.info/sct"/>
                  <code value="1119349007"/>
                  <display value="Vaccine product containing SARS-CoV-2 mRNA"/>
               </coding>
               <coding>
                  <system value="http://www.whocc.no/atc"/>
                  <code value="J07BX03"/>
                  <display value="COVID-19 mRNA vaccines"/>
               </coding>
               <text value="SARS-CoV-2 mRNA vaccine"/>
            </vaccineCode>
            <patient>
               <reference value="urn:uuid:e371bc4a-2970-465c-8eab-e5cf8cd255f9"/>
               <display value="Charlene Sharpe"/>
            </patient>
            <occurrenceDateTime value="2021-06-09"/>
            <lotNumber value="FJ-fgWvS"/>
            <expirationDate value="2021-11-04"/>
            <site>
               <coding>
                  <system value="http://snomed.info/sct"/>
                  <code value="244979005"/>
                  <display value="Entire muscle of upper arm"/>
               </coding>
               <text value="Entire muscle of upper arm"/>
            </site>
            <route>
               <coding>
                  <system value="http://snomed.info/sct"/>
                  <code value="78421000"/>
                  <display value="Intramuscular route"/>
               </coding>
               <text value="Intramuscular route"/>
            </route>
         </Immunization>
      </resource>
   </entry>
   <entry>
      <fullUrl value="urn:uuid:3aa45fb3-298e-41c2-92e9-a85ff76f8caf"/>
      <resource>
         <Procedure>
            <id value="3aa45fb3-298e-41c2-92e9-a85ff76f8caf"/>
            <meta>
               <profile value="http://hl7.org/fhir/uv/ips/StructureDefinition/Procedure-uv-ips"/>
            </meta>
            <text>
               <status value="generated"/>
               <div xmlns="http://www.w3.org/1999/xhtml">
                  <table class="hl7__ips">
                     <tr>
                        <td>Medical induction of labor</td>
                        <td>
                           <span class="nb">09-Jul-2025</span>
                        </td>
                        <td>Normal pregnancy</td>
                     </tr>
                  </table>
               </div>
            </text>
            <status value="completed"/>
            <code>
               <coding>
                  <system value="http://snomed.info/sct"/>
                  <code value="31208007"/>
                  <display value="Medical induction of labor"/>
               </coding>
               <text value="Medical induction of labor"/>
            </code>
            <subject>
               <reference value="urn:uuid:"/>
               <display value="Charlene Sharpe"/>
            </subject>
            <performedDateTime value="2025-07-09"/>
            <reasonCode>
               <coding>
                  <system value="http://snomed.info/sct"/>
                  <code value="72892002"/>
                  <display value="Normal pregnancy"/>
               </coding>
            </reasonCode>
         </Procedure>
      </resource>
   </entry>
   <entry>
      <fullUrl value="urn:uuid:399655ca-7cd2-4f65-b81f-4fd450b6b1b1"/>
      <resource>
         <Procedure>
            <id value="399655ca-7cd2-4f65-b81f-4fd450b6b1b1"/>
            <meta>
               <profile value="http://hl7.org/fhir/uv/ips/StructureDefinition/Procedure-uv-ips"/>
            </meta>
            <text>
               <status value="generated"/>
               <div xmlns="http://www.w3.org/1999/xhtml">
                  <table class="hl7__ips">
                     <tr>
                        <td>Parturition</td>
                        <td>
                           <span class="nb">09-Jul-2025</span>
                        </td>
                        <td>Normal pregnancy</td>
                     </tr>
                  </table>
               </div>
            </text>
            <status value="completed"/>
            <code>
               <coding>
                  <system value="http://snomed.info/sct"/>
                  <code value="66348005"/>
                  <display value="Childbirth"/>
               </coding>
               <text value="Parturition"/>
            </code>
            <subject>
               <reference value="urn:uuid:"/>
               <display value="Charlene Sharpe"/>
            </subject>
            <performedDateTime value="2025-07-09"/>
            <reasonCode>
               <coding>
                  <system value="http://snomed.info/sct"/>
                  <code value="72892002"/>
                  <display value="Normal pregnancy"/>
               </coding>
            </reasonCode>
         </Procedure>
      </resource>
   </entry>
   <entry>
      <fullUrl value="urn:uuid:caf7447c-a03f-4a65-8a4d-7600285496d4"/>
      <resource>
         <Procedure>
            <id value="caf7447c-a03f-4a65-8a4d-7600285496d4"/>
            <meta>
               <profile value="http://hl7.org/fhir/uv/ips/StructureDefinition/Procedure-uv-ips"/>
            </meta>
            <text>
               <status value="generated"/>
               <div xmlns="http://www.w3.org/1999/xhtml">
                  <table class="hl7__ips">
                     <tr>
                        <td>Epidural anesthesia</td>
                        <td>
                           <span class="nb">09-Aug-2023</span>
                        </td>
                        <td>Normal pregnancy</td>
                     </tr>
                  </table>
               </div>
            </text>
            <status value="completed"/>
            <code>
               <coding>
                  <system value="http://snomed.info/sct"/>
                  <code value="18946005"/>
                  <display value="Epidural anesthesia"/>
               </coding>
               <text value="Epidural anesthesia"/>
            </code>
            <subject>
               <reference value="urn:uuid:"/>
               <display value="Charlene Sharpe"/>
            </subject>
            <performedDateTime value="2023-08-09"/>
            <reasonCode>
               <coding>
                  <system value="http://snomed.info/sct"/>
                  <code value="72892002"/>
                  <display value="Normal pregnancy"/>
               </coding>
            </reasonCode>
         </Procedure>
      </resource>
   </entry>
   <entry>
      <fullUrl value="urn:uuid:d6956b1f-eda4-4a97-96b1-0a652c24e1ec"/>
      <resource>
         <Procedure>
            <id value="d6956b1f-eda4-4a97-96b1-0a652c24e1ec"/>
            <meta>
               <profile value="http://hl7.org/fhir/uv/ips/StructureDefinition/Procedure-uv-ips"/>
            </meta>
            <text>
               <status value="generated"/>
               <div xmlns="http://www.w3.org/1999/xhtml">
                  <table class="hl7__ips">
                     <tr>
                        <td>Cesarean section</td>
                        <td>
                           <span class="nb">30-Jan-2019</span>
                        </td>
                        <td>Normal pregnancy</td>
                     </tr>
                  </table>
               </div>
            </text>
            <status value="completed"/>
            <code>
               <coding>
                  <system value="http://snomed.info/sct"/>
                  <code value="11466000"/>
                  <display value="Cesarean section"/>
               </coding>
               <text value="Cesarean section"/>
            </code>
            <subject>
               <reference value="urn:uuid:"/>
               <display value="Charlene Sharpe"/>
            </subject>
            <performedDateTime value="2019-01-30"/>
            <reasonCode>
               <coding>
                  <system value="http://snomed.info/sct"/>
                  <code value="72892002"/>
                  <display value="Normal pregnancy"/>
               </coding>
            </reasonCode>
         </Procedure>
      </resource>
   </entry>
   <entry>
      <fullUrl value="urn:uuid:1e8f75ad-681b-4a90-9e2f-23f1a9a40d0a"/>
      <resource>
         <Procedure>
            <id value="1e8f75ad-681b-4a90-9e2f-23f1a9a40d0a"/>
            <meta>
               <profile value="http://hl7.org/fhir/uv/ips/StructureDefinition/Procedure-uv-ips"/>
            </meta>
            <text>
               <status value="generated"/>
               <div xmlns="http://www.w3.org/1999/xhtml">
                  <table class="hl7__ips">
                     <tr>
                        <td>Augmentation of labor</td>
                        <td>
                           <span class="nb">30-Jan-2019</span>
                        </td>
                        <td>Normal pregnancy</td>
                     </tr>
                  </table>
               </div>
            </text>
            <status value="completed"/>
            <code>
               <coding>
                  <system value="http://snomed.info/sct"/>
                  <code value="237001001"/>
                  <display value="Augmentation of labor"/>
               </coding>
               <text value="Augmentation of labor"/>
            </code>
            <subject>
               <reference value="urn:uuid:"/>
               <display value="Charlene Sharpe"/>
            </subject>
            <performedDateTime value="2019-01-30"/>
            <reasonCode>
               <coding>
                  <system value="http://snomed.info/sct"/>
                  <code value="72892002"/>
                  <display value="Normal pregnancy"/>
               </coding>
            </reasonCode>
         </Procedure>
      </resource>
   </entry>
   <entry>
      <fullUrl value="urn:uuid:ce5d0c52-4640-4af7-b61b-e3030099d4e6"/>
      <resource>
         <AllergyIntolerance>
            <id value="ce5d0c52-4640-4af7-b61b-e3030099d4e6"/>
            <meta>
               <profile value="http://hl7.eu/fhir/eps/StructureDefinition/allergyIntolerance-eu-eps"/>
            </meta>
            <text>
               <status value="generated"/>
               <div xmlns="http://www.w3.org/1999/xhtml">
                  <table class="hl7__ips">
                     <tr>
                        <th>Allergy/Intolerance</th>
                        <th>Onset Date</th>
                        <th>Status</th>
                        <th>Type</th>
                        <th>Reaction</th>
                     </tr>
                     <tr>
                        <td/>
                        <td>?</td>
                        <td>active</td>
                        <td>?</td>
                        <td/>
                     </tr>
                  </table>
               </div>
            </text>
            <clinicalStatus>
               <coding>
                  <system value="http://terminology.hl7.org/CodeSystem/allergyintolerance-clinical"/>
                  <code value="active"/>
               </coding>
            </clinicalStatus>
            <verificationStatus>
               <coding>
                  <system value="http://terminology.hl7.org/CodeSystem/allergyintolerance-verification"/>
                  <code value="confirmed"/>
               </coding>
            </verificationStatus>
            <code>
               <text/>
            </code>
            <patient>
               <reference value="urn:uuid:e371bc4a-2970-465c-8eab-e5cf8cd255f9"/>
               <display value="Charlene Sharpe"/>
            </patient>
            <onsetDateTime>
               <extension url="http://hl7.org/fhir/StructureDefinition/data-absent-reason">
                  <valueCode value="unknown"/>
               </extension>
            </onsetDateTime>
         </AllergyIntolerance>
      </resource>
   </entry>
   <entry>
      <fullUrl value="urn:uuid:a3aef3c6-20d7-4bf1-bea9-41f68d2139c5"/>
      <resource>
         <Observation>
            <id value="a3aef3c6-20d7-4bf1-bea9-41f68d2139c5"/>
            <meta>
               <profile value="http://hl7.org/fhir/StructureDefinition/vitalsigns"/>
            </meta>
            <text>
               <status value="generated"/>
               <div xmlns="http://www.w3.org/1999/xhtml">
                  <table class="hl7__ips">
                     <tr>
                        <th>Vital Sign</th>
                        <th>Date</th>
                        <th>Measurement</th>
                     </tr>
                     <tr>
                        <td>Body Height</td>
                        <td>07-Aug-2024</td>
                        <td>157.1 cm</td>
                     </tr>
                  </table>
               </div>
            </text>
            <status value="final"/>
            <category>
               <coding>
                  <system value="http://terminology.hl7.org/CodeSystem/observation-category"/>
                  <code value="vital-signs"/>
                  <display value="Vital Signs"/>
               </coding>
            </category>
            <code>
               <coding>
                  <system value="http://loinc.org"/>
                  <code value="$8302-2"/>
                  <display value="Body Height"/>
               </coding>
            </code>
            <subject>
               <reference value="urn:uuid:e371bc4a-2970-465c-8eab-e5cf8cd255f9"/>
               <display value="Charlene Sharpe"/>
            </subject>
            <effectiveDateTime value="2024-08-07"/>
            <valueQuantity>
               <value value="157.1"/>
               <unit value="cm"/>
               <code value="cm"/>
            </valueQuantity>
         </Observation>
      </resource>
   </entry>
   <entry>
      <fullUrl value="urn:uuid:45c19dc2-0eab-4cc8-956c-6fd49e5b6617"/>
      <resource>
         <Observation>
            <id value="45c19dc2-0eab-4cc8-956c-6fd49e5b6617"/>
            <meta>
               <profile value="http://hl7.org/fhir/StructureDefinition/vitalsigns"/>
            </meta>
            <text>
               <status value="generated"/>
               <div xmlns="http://www.w3.org/1999/xhtml">
                  <table class="hl7__ips">
                     <tr>
                        <th>Vital Sign</th>
                        <th>Date</th>
                        <th>Measurement</th>
                     </tr>
                     <tr>
                        <td>Pain severity - 0-10 verbal numeric rating [Score] - Reported</td>
                        <td>07-Aug-2024</td>
                        <td>4 {score}</td>
                     </tr>
                  </table>
               </div>
            </text>
            <status value="final"/>
            <category>
               <coding>
                  <system value="http://terminology.hl7.org/CodeSystem/observation-category"/>
                  <code value="vital-signs"/>
                  <display value="Vital Signs"/>
               </coding>
            </category>
            <code>
               <coding>
                  <system value="http://loinc.org"/>
                  <code value="$72514-3"/>
                  <display value="Pain severity - 0-10 verbal numeric rating [Score] - Reported"/>
               </coding>
            </code>
            <subject>
               <reference value="urn:uuid:e371bc4a-2970-465c-8eab-e5cf8cd255f9"/>
               <display value="Charlene Sharpe"/>
            </subject>
            <effectiveDateTime value="2024-08-07"/>
            <valueQuantity>
               <value value="4"/>
               <unit value="{score}"/>
               <code value="{score}"/>
            </valueQuantity>
         </Observation>
      </resource>
   </entry>
   <entry>
      <fullUrl value="urn:uuid:a3e1374a-23cd-49e1-8e52-a10090d069ad"/>
      <resource>
         <Observation>
            <id value="a3e1374a-23cd-49e1-8e52-a10090d069ad"/>
            <meta>
               <profile value="http://hl7.org/fhir/StructureDefinition/vitalsigns"/>
            </meta>
            <text>
               <status value="generated"/>
               <div xmlns="http://www.w3.org/1999/xhtml">
                  <table class="hl7__ips">
                     <tr>
                        <th>Vital Sign</th>
                        <th>Date</th>
                        <th>Measurement</th>
                     </tr>
                     <tr>
                        <td>Body Weight</td>
                        <td>07-Aug-2024</td>
                        <td>74.1 kg</td>
                     </tr>
                  </table>
               </div>
            </text>
            <status value="final"/>
            <category>
               <coding>
                  <system value="http://terminology.hl7.org/CodeSystem/observation-category"/>
                  <code value="vital-signs"/>
                  <display value="Vital Signs"/>
               </coding>
            </category>
            <code>
               <coding>
                  <system value="http://loinc.org"/>
                  <code value="$29463-7"/>
                  <display value="Body Weight"/>
               </coding>
            </code>
            <subject>
               <reference value="urn:uuid:e371bc4a-2970-465c-8eab-e5cf8cd255f9"/>
               <display value="Charlene Sharpe"/>
            </subject>
            <effectiveDateTime value="2024-08-07"/>
            <valueQuantity>
               <value value="74.1"/>
               <unit value="kg"/>
               <code value="kg"/>
            </valueQuantity>
         </Observation>
      </resource>
   </entry>
   <entry>
      <fullUrl value="urn:uuid:b49df367-338e-436f-bb46-a52f517f8edf"/>
      <resource>
         <Observation>
            <id value="b49df367-338e-436f-bb46-a52f517f8edf"/>
            <meta>
               <profile value="http://hl7.org/fhir/StructureDefinition/vitalsigns"/>
            </meta>
            <text>
               <status value="generated"/>
               <div xmlns="http://www.w3.org/1999/xhtml">
                  <table class="hl7__ips">
                     <tr>
                        <th>Vital Sign</th>
                        <th>Date</th>
                        <th>Measurement</th>
                     </tr>
                     <tr>
                        <td>Body mass index (BMI) [Ratio]</td>
                        <td>07-Aug-2024</td>
                        <td>30 kg/m2</td>
                     </tr>
                  </table>
               </div>
            </text>
            <status value="final"/>
            <category>
               <coding>
                  <system value="http://terminology.hl7.org/CodeSystem/observation-category"/>
                  <code value="vital-signs"/>
                  <display value="Vital Signs"/>
               </coding>
            </category>
            <code>
               <coding>
                  <system value="http://loinc.org"/>
                  <code value="$39156-5"/>
                  <display value="Body mass index (BMI) [Ratio]"/>
               </coding>
            </code>
            <subject>
               <reference value="urn:uuid:e371bc4a-2970-465c-8eab-e5cf8cd255f9"/>
               <display value="Charlene Sharpe"/>
            </subject>
            <effectiveDateTime value="2024-08-07"/>
            <valueQuantity>
               <value value="30"/>
               <unit value="kg/m2"/>
               <code value="kg/m2"/>
            </valueQuantity>
         </Observation>
      </resource>
   </entry>
   <entry>
      <fullUrl value="urn:uuid:cb58207a-7f0e-43c7-8e0e-f2d4d520829d"/>
      <resource>
         <Observation>
            <id value="cb58207a-7f0e-43c7-8e0e-f2d4d520829d"/>
            <meta>
               <profile value="http://hl7.org/fhir/StructureDefinition/vitalsigns"/>
            </meta>
            <text>
               <status value="generated"/>
               <div xmlns="http://www.w3.org/1999/xhtml">
                  <table class="hl7__ips">
                     <tr>
                        <th>Vital Sign</th>
                        <th>Date</th>
                        <th>Measurement</th>
                     </tr>
                     <tr>
                        <td>Diastolic Blood Pressure</td>
                        <td>07-Aug-2024</td>
                        <td>83 mm[Hg]</td>
                     </tr>
                  </table>
               </div>
            </text>
            <status value="final"/>
            <category>
               <coding>
                  <system value="http://terminology.hl7.org/CodeSystem/observation-category"/>
                  <code value="vital-signs"/>
                  <display value="Vital Signs"/>
               </coding>
            </category>
            <code>
               <coding>
                  <system value="http://loinc.org"/>
                  <code value="$8462-4"/>
                  <display value="Diastolic Blood Pressure"/>
               </coding>
            </code>
            <subject>
               <reference value="urn:uuid:e371bc4a-2970-465c-8eab-e5cf8cd255f9"/>
               <display value="Charlene Sharpe"/>
            </subject>
            <effectiveDateTime value="2024-08-07"/>
            <valueQuantity>
               <value value="83"/>
               <unit value="mm[Hg]"/>
               <code value="mm[Hg]"/>
            </valueQuantity>
         </Observation>
      </resource>
   </entry>
   <entry>
      <fullUrl value="urn:uuid:9daf8773-e758-4e04-a4c7-04db62ee1a62"/>
      <resource>
         <Observation>
            <id value="9daf8773-e758-4e04-a4c7-04db62ee1a62"/>
            <meta>
               <profile value="http://hl7.org/fhir/StructureDefinition/vitalsigns"/>
            </meta>
            <text>
               <status value="generated"/>
               <div xmlns="http://www.w3.org/1999/xhtml">
                  <table class="hl7__ips">
                     <tr>
                        <th>Vital Sign</th>
                        <th>Date</th>
                        <th>Measurement</th>
                     </tr>
                     <tr>
                        <td>Systolic Blood Pressure</td>
                        <td>07-Aug-2024</td>
                        <td>125 mm[Hg]</td>
                     </tr>
                  </table>
               </div>
            </text>
            <status value="final"/>
            <category>
               <coding>
                  <system value="http://terminology.hl7.org/CodeSystem/observation-category"/>
                  <code value="vital-signs"/>
                  <display value="Vital Signs"/>
               </coding>
            </category>
            <code>
               <coding>
                  <system value="http://loinc.org"/>
                  <code value="$8480-6"/>
                  <display value="Systolic Blood Pressure"/>
               </coding>
            </code>
            <subject>
               <reference value="urn:uuid:e371bc4a-2970-465c-8eab-e5cf8cd255f9"/>
               <display value="Charlene Sharpe"/>
            </subject>
            <effectiveDateTime value="2024-08-07"/>
            <valueQuantity>
               <value value="125"/>
               <unit value="mm[Hg]"/>
               <code value="mm[Hg]"/>
            </valueQuantity>
         </Observation>
      </resource>
   </entry>
   <entry>
      <fullUrl value="urn:uuid:c032a45b-58ab-49fb-815d-9a68a56eca3e"/>
      <resource>
         <Observation>
            <id value="c032a45b-58ab-49fb-815d-9a68a56eca3e"/>
            <meta>
               <profile value="http://hl7.org/fhir/StructureDefinition/vitalsigns"/>
            </meta>
            <text>
               <status value="generated"/>
               <div xmlns="http://www.w3.org/1999/xhtml">
                  <table class="hl7__ips">
                     <tr>
                        <th>Vital Sign</th>
                        <th>Date</th>
                        <th>Measurement</th>
                     </tr>
                     <tr>
                        <td>Heart rate</td>
                        <td>07-Aug-2024</td>
                        <td>86 /min</td>
                     </tr>
                  </table>
               </div>
            </text>
            <status value="final"/>
            <category>
               <coding>
                  <system value="http://terminology.hl7.org/CodeSystem/observation-category"/>
                  <code value="vital-signs"/>
                  <display value="Vital Signs"/>
               </coding>
            </category>
            <code>
               <coding>
                  <system value="http://loinc.org"/>
                  <code value="$8867-4"/>
                  <display value="Heart rate"/>
               </coding>
            </code>
            <subject>
               <reference value="urn:uuid:e371bc4a-2970-465c-8eab-e5cf8cd255f9"/>
               <display value="Charlene Sharpe"/>
            </subject>
            <effectiveDateTime value="2024-08-07"/>
            <valueQuantity>
               <value value="86"/>
               <unit value="/min"/>
               <code value="/min"/>
            </valueQuantity>
         </Observation>
      </resource>
   </entry>
   <entry>
      <fullUrl value="urn:uuid:dc4e3500-653b-4ff9-a0a9-94b01e07ff75"/>
      <resource>
         <Observation>
            <id value="dc4e3500-653b-4ff9-a0a9-94b01e07ff75"/>
            <meta>
               <profile value="http://hl7.org/fhir/StructureDefinition/vitalsigns"/>
            </meta>
            <text>
               <status value="generated"/>
               <div xmlns="http://www.w3.org/1999/xhtml">
                  <table class="hl7__ips">
                     <tr>
                        <th>Vital Sign</th>
                        <th>Date</th>
                        <th>Measurement</th>
                     </tr>
                     <tr>
                        <td>Respiratory rate</td>
                        <td>07-Aug-2024</td>
                        <td>14 /min</td>
                     </tr>
                  </table>
               </div>
            </text>
            <status value="final"/>
            <category>
               <coding>
                  <system value="http://terminology.hl7.org/CodeSystem/observation-category"/>
                  <code value="vital-signs"/>
                  <display value="Vital Signs"/>
               </coding>
            </category>
            <code>
               <coding>
                  <system value="http://loinc.org"/>
                  <code value="$9279-1"/>
                  <display value="Respiratory rate"/>
               </coding>
            </code>
            <subject>
               <reference value="urn:uuid:e371bc4a-2970-465c-8eab-e5cf8cd255f9"/>
               <display value="Charlene Sharpe"/>
            </subject>
            <effectiveDateTime value="2024-08-07"/>
            <valueQuantity>
               <value value="14"/>
               <unit value="/min"/>
               <code value="/min"/>
            </valueQuantity>
         </Observation>
      </resource>
   </entry>
   <entry>
      <fullUrl value="urn:uuid:fb3acc96-c58d-4074-b879-42e339fb3ef7"/>
      <resource>
         <Observation>
            <id value="fb3acc96-c58d-4074-b879-42e339fb3ef7"/>
            <meta>
               <profile value="http://hl7.org/fhir/StructureDefinition/vitalsigns"/>
            </meta>
            <text>
               <status value="generated"/>
               <div xmlns="http://www.w3.org/1999/xhtml">
                  <table class="hl7__ips">
                     <tr>
                        <th>Vital Sign</th>
                        <th>Date</th>
                        <th>Measurement</th>
                     </tr>
                     <tr>
                        <td>Body Height</td>
                        <td>04-Aug-2021</td>
                        <td>157.1 cm</td>
                     </tr>
                  </table>
               </div>
            </text>
            <status value="final"/>
            <category>
               <coding>
                  <system value="http://terminology.hl7.org/CodeSystem/observation-category"/>
                  <code value="vital-signs"/>
                  <display value="Vital Signs"/>
               </coding>
            </category>
            <code>
               <coding>
                  <system value="http://loinc.org"/>
                  <code value="$8302-2"/>
                  <display value="Body Height"/>
               </coding>
            </code>
            <subject>
               <reference value="urn:uuid:e371bc4a-2970-465c-8eab-e5cf8cd255f9"/>
               <display value="Charlene Sharpe"/>
            </subject>
            <effectiveDateTime value="2021-08-04"/>
            <valueQuantity>
               <value value="157.1"/>
               <unit value="cm"/>
               <code value="cm"/>
            </valueQuantity>
         </Observation>
      </resource>
   </entry>
   <entry>
      <fullUrl value="urn:uuid:f46193a6-f055-4829-b3b9-1f8ce3fa7409"/>
      <resource>
         <Observation>
            <id value="f46193a6-f055-4829-b3b9-1f8ce3fa7409"/>
            <meta>
               <profile value="http://hl7.org/fhir/StructureDefinition/vitalsigns"/>
            </meta>
            <text>
               <status value="generated"/>
               <div xmlns="http://www.w3.org/1999/xhtml">
                  <table class="hl7__ips">
                     <tr>
                        <th>Vital Sign</th>
                        <th>Date</th>
                        <th>Measurement</th>
                     </tr>
                     <tr>
                        <td>Pain severity - 0-10 verbal numeric rating [Score] - Reported</td>
                        <td>04-Aug-2021</td>
                        <td>1 {score}</td>
                     </tr>
                  </table>
               </div>
            </text>
            <status value="final"/>
            <category>
               <coding>
                  <system value="http://terminology.hl7.org/CodeSystem/observation-category"/>
                  <code value="vital-signs"/>
                  <display value="Vital Signs"/>
               </coding>
            </category>
            <code>
               <coding>
                  <system value="http://loinc.org"/>
                  <code value="$72514-3"/>
                  <display value="Pain severity - 0-10 verbal numeric rating [Score] - Reported"/>
               </coding>
            </code>
            <subject>
               <reference value="urn:uuid:e371bc4a-2970-465c-8eab-e5cf8cd255f9"/>
               <display value="Charlene Sharpe"/>
            </subject>
            <effectiveDateTime value="2021-08-04"/>
            <valueQuantity>
               <value value="1"/>
               <unit value="{score}"/>
               <code value="{score}"/>
            </valueQuantity>
         </Observation>
      </resource>
   </entry>
   <entry>
      <fullUrl value="urn:uuid:bc2377d0-4518-4c3b-88cf-f752dcd28560"/>
      <resource>
         <Observation>
            <id value="bc2377d0-4518-4c3b-88cf-f752dcd28560"/>
            <meta>
               <profile value="http://hl7.org/fhir/StructureDefinition/vitalsigns"/>
            </meta>
            <text>
               <status value="generated"/>
               <div xmlns="http://www.w3.org/1999/xhtml">
                  <table class="hl7__ips">
                     <tr>
                        <th>Vital Sign</th>
                        <th>Date</th>
                        <th>Measurement</th>
                     </tr>
                     <tr>
                        <td>Body Weight</td>
                        <td>04-Aug-2021</td>
                        <td>74.1 kg</td>
                     </tr>
                  </table>
               </div>
            </text>
            <status value="final"/>
            <category>
               <coding>
                  <system value="http://terminology.hl7.org/CodeSystem/observation-category"/>
                  <code value="vital-signs"/>
                  <display value="Vital Signs"/>
               </coding>
            </category>
            <code>
               <coding>
                  <system value="http://loinc.org"/>
                  <code value="$29463-7"/>
                  <display value="Body Weight"/>
               </coding>
            </code>
            <subject>
               <reference value="urn:uuid:e371bc4a-2970-465c-8eab-e5cf8cd255f9"/>
               <display value="Charlene Sharpe"/>
            </subject>
            <effectiveDateTime value="2021-08-04"/>
            <valueQuantity>
               <value value="74.1"/>
               <unit value="kg"/>
               <code value="kg"/>
            </valueQuantity>
         </Observation>
      </resource>
   </entry>
   <entry>
      <fullUrl value="urn:uuid:53059bf8-3c56-481d-958b-33bdffcabba9"/>
      <resource>
         <Observation>
            <id value="53059bf8-3c56-481d-958b-33bdffcabba9"/>
            <meta>
               <profile value="http://hl7.org/fhir/StructureDefinition/vitalsigns"/>
            </meta>
            <text>
               <status value="generated"/>
               <div xmlns="http://www.w3.org/1999/xhtml">
                  <table class="hl7__ips">
                     <tr>
                        <th>Vital Sign</th>
                        <th>Date</th>
                        <th>Measurement</th>
                     </tr>
                     <tr>
                        <td>Body mass index (BMI) [Ratio]</td>
                        <td>04-Aug-2021</td>
                        <td>30 kg/m2</td>
                     </tr>
                  </table>
               </div>
            </text>
            <status value="final"/>
            <category>
               <coding>
                  <system value="http://terminology.hl7.org/CodeSystem/observation-category"/>
                  <code value="vital-signs"/>
                  <display value="Vital Signs"/>
               </coding>
            </category>
            <code>
               <coding>
                  <system value="http://loinc.org"/>
                  <code value="$39156-5"/>
                  <display value="Body mass index (BMI) [Ratio]"/>
               </coding>
            </code>
            <subject>
               <reference value="urn:uuid:e371bc4a-2970-465c-8eab-e5cf8cd255f9"/>
               <display value="Charlene Sharpe"/>
            </subject>
            <effectiveDateTime value="2021-08-04"/>
            <valueQuantity>
               <value value="30"/>
               <unit value="kg/m2"/>
               <code value="kg/m2"/>
            </valueQuantity>
         </Observation>
      </resource>
   </entry>
   <entry>
      <fullUrl value="urn:uuid:141a3db3-c286-43f9-9b26-1ad5f8a5a4a3"/>
      <resource>
         <Observation>
            <id value="141a3db3-c286-43f9-9b26-1ad5f8a5a4a3"/>
            <meta>
               <profile value="http://hl7.org/fhir/StructureDefinition/vitalsigns"/>
            </meta>
            <text>
               <status value="generated"/>
               <div xmlns="http://www.w3.org/1999/xhtml">
                  <table class="hl7__ips">
                     <tr>
                        <th>Vital Sign</th>
                        <th>Date</th>
                        <th>Measurement</th>
                     </tr>
                     <tr>
                        <td>Diastolic Blood Pressure</td>
                        <td>04-Aug-2021</td>
                        <td>79 mm[Hg]</td>
                     </tr>
                  </table>
               </div>
            </text>
            <status value="final"/>
            <category>
               <coding>
                  <system value="http://terminology.hl7.org/CodeSystem/observation-category"/>
                  <code value="vital-signs"/>
                  <display value="Vital Signs"/>
               </coding>
            </category>
            <code>
               <coding>
                  <system value="http://loinc.org"/>
                  <code value="$8462-4"/>
                  <display value="Diastolic Blood Pressure"/>
               </coding>
            </code>
            <subject>
               <reference value="urn:uuid:e371bc4a-2970-465c-8eab-e5cf8cd255f9"/>
               <display value="Charlene Sharpe"/>
            </subject>
            <effectiveDateTime value="2021-08-04"/>
            <valueQuantity>
               <value value="79"/>
               <unit value="mm[Hg]"/>
               <code value="mm[Hg]"/>
            </valueQuantity>
         </Observation>
      </resource>
   </entry>
   <entry>
      <fullUrl value="urn:uuid:95e3f4c7-c420-448b-9674-9ab783d78eff"/>
      <resource>
         <Observation>
            <id value="95e3f4c7-c420-448b-9674-9ab783d78eff"/>
            <meta>
               <profile value="http://hl7.org/fhir/StructureDefinition/vitalsigns"/>
            </meta>
            <text>
               <status value="generated"/>
               <div xmlns="http://www.w3.org/1999/xhtml">
                  <table class="hl7__ips">
                     <tr>
                        <th>Vital Sign</th>
                        <th>Date</th>
                        <th>Measurement</th>
                     </tr>
                     <tr>
                        <td>Systolic Blood Pressure</td>
                        <td>04-Aug-2021</td>
                        <td>128 mm[Hg]</td>
                     </tr>
                  </table>
               </div>
            </text>
            <status value="final"/>
            <category>
               <coding>
                  <system value="http://terminology.hl7.org/CodeSystem/observation-category"/>
                  <code value="vital-signs"/>
                  <display value="Vital Signs"/>
               </coding>
            </category>
            <code>
               <coding>
                  <system value="http://loinc.org"/>
                  <code value="$8480-6"/>
                  <display value="Systolic Blood Pressure"/>
               </coding>
            </code>
            <subject>
               <reference value="urn:uuid:e371bc4a-2970-465c-8eab-e5cf8cd255f9"/>
               <display value="Charlene Sharpe"/>
            </subject>
            <effectiveDateTime value="2021-08-04"/>
            <valueQuantity>
               <value value="128"/>
               <unit value="mm[Hg]"/>
               <code value="mm[Hg]"/>
            </valueQuantity>
         </Observation>
      </resource>
   </entry>
   <entry>
      <fullUrl value="urn:uuid:1a04a717-3661-4c64-b57e-d8e46dbe93ee"/>
      <resource>
         <Observation>
            <id value="1a04a717-3661-4c64-b57e-d8e46dbe93ee"/>
            <meta>
               <profile value="http://hl7.org/fhir/StructureDefinition/vitalsigns"/>
            </meta>
            <text>
               <status value="generated"/>
               <div xmlns="http://www.w3.org/1999/xhtml">
                  <table class="hl7__ips">
                     <tr>
                        <th>Vital Sign</th>
                        <th>Date</th>
                        <th>Measurement</th>
                     </tr>
                     <tr>
                        <td>Heart rate</td>
                        <td>04-Aug-2021</td>
                        <td>73 /min</td>
                     </tr>
                  </table>
               </div>
            </text>
            <status value="final"/>
            <category>
               <coding>
                  <system value="http://terminology.hl7.org/CodeSystem/observation-category"/>
                  <code value="vital-signs"/>
                  <display value="Vital Signs"/>
               </coding>
            </category>
            <code>
               <coding>
                  <system value="http://loinc.org"/>
                  <code value="$8867-4"/>
                  <display value="Heart rate"/>
               </coding>
            </code>
            <subject>
               <reference value="urn:uuid:e371bc4a-2970-465c-8eab-e5cf8cd255f9"/>
               <display value="Charlene Sharpe"/>
            </subject>
            <effectiveDateTime value="2021-08-04"/>
            <valueQuantity>
               <value value="73"/>
               <unit value="/min"/>
               <code value="/min"/>
            </valueQuantity>
         </Observation>
      </resource>
   </entry>
   <entry>
      <fullUrl value="urn:uuid:3ca14c5f-5b38-4666-871f-83b78b4a1e77"/>
      <resource>
         <Observation>
            <id value="3ca14c5f-5b38-4666-871f-83b78b4a1e77"/>
            <meta>
               <profile value="http://hl7.org/fhir/StructureDefinition/vitalsigns"/>
            </meta>
            <text>
               <status value="generated"/>
               <div xmlns="http://www.w3.org/1999/xhtml">
                  <table class="hl7__ips">
                     <tr>
                        <th>Vital Sign</th>
                        <th>Date</th>
                        <th>Measurement</th>
                     </tr>
                     <tr>
                        <td>Respiratory rate</td>
                        <td>04-Aug-2021</td>
                        <td>14 /min</td>
                     </tr>
                  </table>
               </div>
            </text>
            <status value="final"/>
            <category>
               <coding>
                  <system value="http://terminology.hl7.org/CodeSystem/observation-category"/>
                  <code value="vital-signs"/>
                  <display value="Vital Signs"/>
               </coding>
            </category>
            <code>
               <coding>
                  <system value="http://loinc.org"/>
                  <code value="$9279-1"/>
                  <display value="Respiratory rate"/>
               </coding>
            </code>
            <subject>
               <reference value="urn:uuid:e371bc4a-2970-465c-8eab-e5cf8cd255f9"/>
               <display value="Charlene Sharpe"/>
            </subject>
            <effectiveDateTime value="2021-08-04"/>
            <valueQuantity>
               <value value="14"/>
               <unit value="/min"/>
               <code value="/min"/>
            </valueQuantity>
         </Observation>
      </resource>
   </entry>
   <entry>
      <fullUrl value="urn:uuid:8fbf7aab-fc6f-43f7-8958-20e55dbf8ea9"/>
      <resource>
         <Observation>
            <id value="8fbf7aab-fc6f-43f7-8958-20e55dbf8ea9"/>
            <meta>
               <profile value="http://hl7.eu/fhir/laboratory/StructureDefinition/Observation-resultslab-eu-lab"/>
            </meta>
            <text>
               <status value="generated"/>
               <div xmlns="http://www.w3.org/1999/xhtml">
                  <table class="hl7__eu__lab__report">
                     <tr>
                        <th>Test</th>
                        <th>07-Aug-2024</th>
                        <th>Reference Range</th>
                        <th>Unit</th>
                     </tr>
                     <tr>
                        <td>Cholesterol [Mass/volume] in Serum or Plasma</td>
                        <td>147.2</td>
                        <td>125 - 200</td>
                        <td/>
                        <td>mg/dL</td>
                     </tr>
                  </table>
               </div>
            </text>
            <status value="final"/>
            <category>
               <coding>
                  <system value="http://terminology.hl7.org/CodeSystem/observation-category"/>
                  <code value="laboratory"/>
               </coding>
            </category>
            <code>
               <coding>
                  <system value="http://loinc.org"/>
                  <code value="2093-3"/>
                  <display value="Cholesterol [Mass/volume] in Serum or Plasma"/>
               </coding>
               <text value="Cholesterol [Mass/volume] in Serum or Plasma"/>
            </code>
            <subject>
               <reference value="urn:uuid:e371bc4a-2970-465c-8eab-e5cf8cd255f9"/>
               <display value="Charlene Sharpe"/>
            </subject>
            <effectiveDateTime value="2024-08-07T00:49:39Z"/>
            <performer>
               <display value="The Central European Lab"/>
            </performer>
            <valueQuantity>
               <value value="147.2"/>
               <unit value="mg/dL"/>
               <system value="http://unitsofmeasure.org"/>
               <code value="mg/dL"/>
            </valueQuantity>
            <referenceRange>
               <low>
                  <value value="125"/>
                  <system value="http://unitsofmeasure.org"/>
                  <code value="mg/dL"/>
               </low>
            </referenceRange>
            <referenceRange>
               <high>
                  <value value="200"/>
                  <system value="http://unitsofmeasure.org"/>
                  <code value="mg/dL"/>
               </high>
            </referenceRange>
         </Observation>
      </resource>
   </entry>
   <entry>
      <fullUrl value="urn:uuid:38dccc55-5a5b-4cf8-a76c-6eda5228d0e6"/>
      <resource>
         <Observation>
            <id value="38dccc55-5a5b-4cf8-a76c-6eda5228d0e6"/>
            <meta>
               <profile value="http://hl7.eu/fhir/laboratory/StructureDefinition/Observation-resultslab-eu-lab"/>
            </meta>
            <text>
               <status value="generated"/>
               <div xmlns="http://www.w3.org/1999/xhtml">
                  <table class="hl7__eu__lab__report">
                     <tr>
                        <th>Test</th>
                        <th>07-Aug-2024</th>
                        <th>Reference Range</th>
                        <th>Unit</th>
                     </tr>
                     <tr>
                        <td>Triglyceride [Mass/volume] in Serum or Plasma</td>
                        <td>123.7</td>
                        <td>35 - 150</td>
                        <td/>
                        <td>mg/dL</td>
                     </tr>
                  </table>
               </div>
            </text>
            <status value="final"/>
            <category>
               <coding>
                  <system value="http://terminology.hl7.org/CodeSystem/observation-category"/>
                  <code value="laboratory"/>
               </coding>
            </category>
            <code>
               <coding>
                  <system value="http://loinc.org"/>
                  <code value="2571-8"/>
                  <display value="Triglyceride [Mass/volume] in Serum or Plasma"/>
               </coding>
               <text value="Triglyceride [Mass/volume] in Serum or Plasma"/>
            </code>
            <subject>
               <reference value="urn:uuid:e371bc4a-2970-465c-8eab-e5cf8cd255f9"/>
               <display value="Charlene Sharpe"/>
            </subject>
            <effectiveDateTime value="2024-08-07T00:49:39Z"/>
            <performer>
               <display value="The Central European Lab"/>
            </performer>
            <valueQuantity>
               <value value="123.7"/>
               <unit value="mg/dL"/>
               <system value="http://unitsofmeasure.org"/>
               <code value="mg/dL"/>
            </valueQuantity>
            <referenceRange>
               <low>
                  <value value="35"/>
                  <system value="http://unitsofmeasure.org"/>
                  <code value="mg/dL"/>
               </low>
            </referenceRange>
            <referenceRange>
               <high>
                  <value value="150"/>
                  <system value="http://unitsofmeasure.org"/>
                  <code value="mg/dL"/>
               </high>
            </referenceRange>
         </Observation>
      </resource>
   </entry>
   <entry>
      <fullUrl value="urn:uuid:e4e309fc-463d-43e5-acea-9080ddb3a02f"/>
      <resource>
         <Observation>
            <id value="e4e309fc-463d-43e5-acea-9080ddb3a02f"/>
            <meta>
               <profile value="http://hl7.eu/fhir/laboratory/StructureDefinition/Observation-resultslab-eu-lab"/>
            </meta>
            <text>
               <status value="generated"/>
               <div xmlns="http://www.w3.org/1999/xhtml">
                  <table class="hl7__eu__lab__report">
                     <tr>
                        <th>Test</th>
                        <th>07-Aug-2024</th>
                        <th>Reference Range</th>
                        <th>Unit</th>
                     </tr>
                     <tr>
                        <td>Cholesterol in LDL [Mass/volume] in Serum or Plasma by Direct assay</td>
                        <td>63.8</td>
                        <td>0 - 130</td>
                        <td/>
                        <td>mg/dL</td>
                     </tr>
                  </table>
               </div>
            </text>
            <status value="final"/>
            <category>
               <coding>
                  <system value="http://terminology.hl7.org/CodeSystem/observation-category"/>
                  <code value="laboratory"/>
               </coding>
            </category>
            <code>
               <coding>
                  <system value="http://loinc.org"/>
                  <code value="18262-6"/>
                  <display value="Cholesterol in LDL [Mass/volume] in Serum or Plasma by Direct assay"/>
               </coding>
               <text value="Cholesterol in LDL [Mass/volume] in Serum or Plasma by Direct assay"/>
            </code>
            <subject>
               <reference value="urn:uuid:e371bc4a-2970-465c-8eab-e5cf8cd255f9"/>
               <display value="Charlene Sharpe"/>
            </subject>
            <effectiveDateTime value="2024-08-07T00:49:39Z"/>
            <performer>
               <display value="The Central European Lab"/>
            </performer>
            <valueQuantity>
               <value value="63.8"/>
               <unit value="mg/dL"/>
               <system value="http://unitsofmeasure.org"/>
               <code value="mg/dL"/>
            </valueQuantity>
            <referenceRange>
               <low>
                  <value value="0"/>
                  <system value="http://unitsofmeasure.org"/>
                  <code value="mg/dL"/>
               </low>
            </referenceRange>
            <referenceRange>
               <high>
                  <value value="130"/>
                  <system value="http://unitsofmeasure.org"/>
                  <code value="mg/dL"/>
               </high>
            </referenceRange>
         </Observation>
      </resource>
   </entry>
   <entry>
      <fullUrl value="urn:uuid:8d4cfa6a-729e-4c37-8498-919904b9018c"/>
      <resource>
         <Observation>
            <id value="8d4cfa6a-729e-4c37-8498-919904b9018c"/>
            <meta>
               <profile value="http://hl7.eu/fhir/laboratory/StructureDefinition/Observation-resultslab-eu-lab"/>
            </meta>
            <text>
               <status value="generated"/>
               <div xmlns="http://www.w3.org/1999/xhtml">
                  <table class="hl7__eu__lab__report">
                     <tr>
                        <th>Test</th>
                        <th>07-Aug-2024</th>
                        <th>Reference Range</th>
                        <th>Unit</th>
                     </tr>
                     <tr>
                        <td>Cholesterol in HDL [Mass/volume] in Serum or Plasma</td>
                        <td>58.7</td>
                        <td>40 - 60</td>
                        <td/>
                        <td>mg/dL</td>
                     </tr>
                  </table>
               </div>
            </text>
            <status value="final"/>
            <category>
               <coding>
                  <system value="http://terminology.hl7.org/CodeSystem/observation-category"/>
                  <code value="laboratory"/>
               </coding>
            </category>
            <code>
               <coding>
                  <system value="http://loinc.org"/>
                  <code value="2085-9"/>
                  <display value="Cholesterol in HDL [Mass/volume] in Serum or Plasma"/>
               </coding>
               <text value="Cholesterol in HDL [Mass/volume] in Serum or Plasma"/>
            </code>
            <subject>
               <reference value="urn:uuid:e371bc4a-2970-465c-8eab-e5cf8cd255f9"/>
               <display value="Charlene Sharpe"/>
            </subject>
            <effectiveDateTime value="2024-08-07T00:49:39Z"/>
            <performer>
               <display value="The Central European Lab"/>
            </performer>
            <valueQuantity>
               <value value="58.7"/>
               <unit value="mg/dL"/>
               <system value="http://unitsofmeasure.org"/>
               <code value="mg/dL"/>
            </valueQuantity>
            <referenceRange>
               <low>
                  <value value="40"/>
                  <system value="http://unitsofmeasure.org"/>
                  <code value="mg/dL"/>
               </low>
            </referenceRange>
            <referenceRange>
               <high>
                  <value value="60"/>
                  <system value="http://unitsofmeasure.org"/>
                  <code value="mg/dL"/>
               </high>
            </referenceRange>
         </Observation>
      </resource>
   </entry>
   <entry>
      <fullUrl value="urn:uuid:d9197edf-2fcd-4535-999b-568265869314"/>
      <resource>
         <Observation>
            <id value="d9197edf-2fcd-4535-999b-568265869314"/>
            <meta>
               <profile value="http://hl7.eu/fhir/laboratory/StructureDefinition/Observation-resultslab-eu-lab"/>
            </meta>
            <text>
               <status value="generated"/>
               <div xmlns="http://www.w3.org/1999/xhtml">
                  <table class="hl7__eu__lab__report">
                     <tr>
                        <th>Test</th>
                        <th>07-Aug-2024</th>
                        <th>Reference Range</th>
                        <th>Unit</th>
                     </tr>
                     <tr>
                        <td>Leukocytes [#/volume] in Blood by Automated count</td>
                        <td>7.5</td>
                        <td>3.5 - 10.5</td>
                        <td/>
                        <td>10*3/uL</td>
                     </tr>
                  </table>
               </div>
            </text>
            <status value="final"/>
            <category>
               <coding>
                  <system value="http://terminology.hl7.org/CodeSystem/observation-category"/>
                  <code value="laboratory"/>
               </coding>
            </category>
            <code>
               <coding>
                  <system value="http://loinc.org"/>
                  <code value="6690-2"/>
                  <display value="Leukocytes [#/volume] in Blood by Automated count"/>
               </coding>
               <text value="Leukocytes [#/volume] in Blood by Automated count"/>
            </code>
            <subject>
               <reference value="urn:uuid:e371bc4a-2970-465c-8eab-e5cf8cd255f9"/>
               <display value="Charlene Sharpe"/>
            </subject>
            <effectiveDateTime value="2024-08-07T00:49:39Z"/>
            <performer>
               <display value="The Central European Lab"/>
            </performer>
            <valueQuantity>
               <value value="7.5"/>
               <unit value="10*3/uL"/>
               <system value="http://unitsofmeasure.org"/>
               <code value="10*3/uL"/>
            </valueQuantity>
            <referenceRange>
               <low>
                  <value value="3.5"/>
                  <system value="http://unitsofmeasure.org"/>
                  <code value="10*3/uL"/>
               </low>
            </referenceRange>
            <referenceRange>
               <high>
                  <value value="10.5"/>
                  <system value="http://unitsofmeasure.org"/>
                  <code value="10*3/uL"/>
               </high>
            </referenceRange>
         </Observation>
      </resource>
   </entry>
   <entry>
      <fullUrl value="urn:uuid:0e84fb29-6130-46dc-9a78-dd65c3622e5f"/>
      <resource>
         <Observation>
            <id value="0e84fb29-6130-46dc-9a78-dd65c3622e5f"/>
            <meta>
               <profile value="http://hl7.eu/fhir/laboratory/StructureDefinition/Observation-resultslab-eu-lab"/>
            </meta>
            <text>
               <status value="generated"/>
               <div xmlns="http://www.w3.org/1999/xhtml">
                  <table class="hl7__eu__lab__report">
                     <tr>
                        <th>Test</th>
                        <th>07-Aug-2024</th>
                        <th>Reference Range</th>
                        <th>Unit</th>
                     </tr>
                     <tr>
                        <td>Erythrocytes [#/volume] in Blood by Automated count</td>
                        <td>5.0</td>
                        <td>4.5 - 5.5</td>
                        <td/>
                        <td>10*6/uL</td>
                     </tr>
                  </table>
               </div>
            </text>
            <status value="final"/>
            <category>
               <coding>
                  <system value="http://terminology.hl7.org/CodeSystem/observation-category"/>
                  <code value="laboratory"/>
               </coding>
            </category>
            <code>
               <coding>
                  <system value="http://loinc.org"/>
                  <code value="789-8"/>
                  <display value="Erythrocytes [#/volume] in Blood by Automated count"/>
               </coding>
               <text value="Erythrocytes [#/volume] in Blood by Automated count"/>
            </code>
            <subject>
               <reference value="urn:uuid:e371bc4a-2970-465c-8eab-e5cf8cd255f9"/>
               <display value="Charlene Sharpe"/>
            </subject>
            <effectiveDateTime value="2024-08-07T00:49:39Z"/>
            <performer>
               <display value="The Central European Lab"/>
            </performer>
            <valueQuantity>
               <value value="5"/>
               <unit value="10*6/uL"/>
               <system value="http://unitsofmeasure.org"/>
               <code value="10*6/uL"/>
            </valueQuantity>
            <referenceRange>
               <low>
                  <value value="4.5"/>
                  <system value="http://unitsofmeasure.org"/>
                  <code value="10*6/uL"/>
               </low>
            </referenceRange>
            <referenceRange>
               <high>
                  <value value="5.5"/>
                  <system value="http://unitsofmeasure.org"/>
                  <code value="10*6/uL"/>
               </high>
            </referenceRange>
         </Observation>
      </resource>
   </entry>
   <entry>
      <fullUrl value="urn:uuid:4a305f29-f089-448e-bfe3-d029f69fce5a"/>
      <resource>
         <Observation>
            <id value="4a305f29-f089-448e-bfe3-d029f69fce5a"/>
            <meta>
               <profile value="http://hl7.eu/fhir/laboratory/StructureDefinition/Observation-resultslab-eu-lab"/>
            </meta>
            <text>
               <status value="generated"/>
               <div xmlns="http://www.w3.org/1999/xhtml">
                  <table class="hl7__eu__lab__report">
                     <tr>
                        <th>Test</th>
                        <th>07-Aug-2024</th>
                        <th>Reference Range</th>
                        <th>Unit</th>
                     </tr>
                     <tr>
                        <td>Hemoglobin [Mass/volume] in Blood</td>
                        <td>14.2</td>
                        <td>12 - 16</td>
                        <td/>
                        <td>g/dL</td>
                     </tr>
                  </table>
               </div>
            </text>
            <status value="final"/>
            <category>
               <coding>
                  <system value="http://terminology.hl7.org/CodeSystem/observation-category"/>
                  <code value="laboratory"/>
               </coding>
            </category>
            <code>
               <coding>
                  <system value="http://loinc.org"/>
                  <code value="718-7"/>
                  <display value="Hemoglobin [Mass/volume] in Blood"/>
               </coding>
               <text value="Hemoglobin [Mass/volume] in Blood"/>
            </code>
            <subject>
               <reference value="urn:uuid:e371bc4a-2970-465c-8eab-e5cf8cd255f9"/>
               <display value="Charlene Sharpe"/>
            </subject>
            <effectiveDateTime value="2024-08-07T00:49:39Z"/>
            <performer>
               <display value="The Central European Lab"/>
            </performer>
            <valueQuantity>
               <value value="14.2"/>
               <unit value="g/dL"/>
               <system value="http://unitsofmeasure.org"/>
               <code value="g/dL"/>
            </valueQuantity>
            <referenceRange>
               <low>
                  <value value="12"/>
                  <system value="http://unitsofmeasure.org"/>
                  <code value="g/dL"/>
               </low>
            </referenceRange>
            <referenceRange>
               <high>
                  <value value="16"/>
                  <system value="http://unitsofmeasure.org"/>
                  <code value="g/dL"/>
               </high>
            </referenceRange>
         </Observation>
      </resource>
   </entry>
   <entry>
      <fullUrl value="urn:uuid:c6083fa5-c0bd-4f48-be0a-d055812d8e18"/>
      <resource>
         <Observation>
            <id value="c6083fa5-c0bd-4f48-be0a-d055812d8e18"/>
            <meta>
               <profile value="http://hl7.eu/fhir/laboratory/StructureDefinition/Observation-resultslab-eu-lab"/>
            </meta>
            <text>
               <status value="generated"/>
               <div xmlns="http://www.w3.org/1999/xhtml">
                  <table class="hl7__eu__lab__report">
                     <tr>
                        <th>Test</th>
                        <th>07-Aug-2024</th>
                        <th>Reference Range</th>
                        <th>Unit</th>
                     </tr>
                     <tr>
                        <td>Hematocrit [Volume Fraction] of Blood by Automated count</td>
                        <td>39.4</td>
                        <td>36 - 48</td>
                        <td/>
                        <td>%</td>
                     </tr>
                  </table>
               </div>
            </text>
            <status value="final"/>
            <category>
               <coding>
                  <system value="http://terminology.hl7.org/CodeSystem/observation-category"/>
                  <code value="laboratory"/>
               </coding>
            </category>
            <code>
               <coding>
                  <system value="http://loinc.org"/>
                  <code value="4544-3"/>
                  <display value="Hematocrit [Volume Fraction] of Blood by Automated count"/>
               </coding>
               <text value="Hematocrit [Volume Fraction] of Blood by Automated count"/>
            </code>
            <subject>
               <reference value="urn:uuid:e371bc4a-2970-465c-8eab-e5cf8cd255f9"/>
               <display value="Charlene Sharpe"/>
            </subject>
            <effectiveDateTime value="2024-08-07T00:49:39Z"/>
            <performer>
               <display value="The Central European Lab"/>
            </performer>
            <valueQuantity>
               <value value="39.4"/>
               <unit value="%"/>
               <system value="http://unitsofmeasure.org"/>
               <code value="%"/>
            </valueQuantity>
            <referenceRange>
               <low>
                  <value value="36"/>
                  <system value="http://unitsofmeasure.org"/>
                  <code value="%"/>
               </low>
            </referenceRange>
            <referenceRange>
               <high>
                  <value value="48"/>
                  <system value="http://unitsofmeasure.org"/>
                  <code value="%"/>
               </high>
            </referenceRange>
         </Observation>
      </resource>
   </entry>
   <entry>
      <fullUrl value="urn:uuid:0a370b69-cd37-43a2-bb8f-fd0e68b05aa3"/>
      <resource>
         <Observation>
            <id value="0a370b69-cd37-43a2-bb8f-fd0e68b05aa3"/>
            <meta>
               <profile value="http://hl7.eu/fhir/laboratory/StructureDefinition/Observation-resultslab-eu-lab"/>
            </meta>
            <text>
               <status value="generated"/>
               <div xmlns="http://www.w3.org/1999/xhtml">
                  <table class="hl7__eu__lab__report">
                     <tr>
                        <th>Test</th>
                        <th>07-Aug-2024</th>
                        <th>Reference Range</th>
                        <th>Unit</th>
                     </tr>
                     <tr>
                        <td>MCV [Entitic volume] by Automated count</td>
                        <td>90.1</td>
                        <td>82 - 98</td>
                        <td/>
                        <td>fL</td>
                     </tr>
                  </table>
               </div>
            </text>
            <status value="final"/>
            <category>
               <coding>
                  <system value="http://terminology.hl7.org/CodeSystem/observation-category"/>
                  <code value="laboratory"/>
               </coding>
            </category>
            <code>
               <coding>
                  <system value="http://loinc.org"/>
                  <code value="787-2"/>
                  <display value="MCV [Entitic volume] by Automated count"/>
               </coding>
               <text value="MCV [Entitic volume] by Automated count"/>
            </code>
            <subject>
               <reference value="urn:uuid:e371bc4a-2970-465c-8eab-e5cf8cd255f9"/>
               <display value="Charlene Sharpe"/>
            </subject>
            <effectiveDateTime value="2024-08-07T00:49:39Z"/>
            <performer>
               <display value="The Central European Lab"/>
            </performer>
            <valueQuantity>
               <value value="90.1"/>
               <unit value="fL"/>
               <system value="http://unitsofmeasure.org"/>
               <code value="fL"/>
            </valueQuantity>
            <referenceRange>
               <low>
                  <value value="82"/>
                  <system value="http://unitsofmeasure.org"/>
                  <code value="fL"/>
               </low>
            </referenceRange>
            <referenceRange>
               <high>
                  <value value="98"/>
                  <system value="http://unitsofmeasure.org"/>
                  <code value="fL"/>
               </high>
            </referenceRange>
         </Observation>
      </resource>
   </entry>
   <entry>
      <fullUrl value="urn:uuid:1c3eaed3-09f3-447c-853b-f1be934f9d89"/>
      <resource>
         <Observation>
            <id value="1c3eaed3-09f3-447c-853b-f1be934f9d89"/>
            <meta>
               <profile value="http://hl7.eu/fhir/laboratory/StructureDefinition/Observation-resultslab-eu-lab"/>
            </meta>
            <text>
               <status value="generated"/>
               <div xmlns="http://www.w3.org/1999/xhtml">
                  <table class="hl7__eu__lab__report">
                     <tr>
                        <th>Test</th>
                        <th>07-Aug-2024</th>
                        <th>Reference Range</th>
                        <th>Unit</th>
                     </tr>
                     <tr>
                        <td>MCH [Entitic mass] by Automated count</td>
                        <td>31.5</td>
                        <td>27.5 - 34.5</td>
                        <td/>
                        <td>pg</td>
                     </tr>
                  </table>
               </div>
            </text>
            <status value="final"/>
            <category>
               <coding>
                  <system value="http://terminology.hl7.org/CodeSystem/observation-category"/>
                  <code value="laboratory"/>
               </coding>
            </category>
            <code>
               <coding>
                  <system value="http://loinc.org"/>
                  <code value="785-6"/>
                  <display value="MCH [Entitic mass] by Automated count"/>
               </coding>
               <text value="MCH [Entitic mass] by Automated count"/>
            </code>
            <subject>
               <reference value="urn:uuid:e371bc4a-2970-465c-8eab-e5cf8cd255f9"/>
               <display value="Charlene Sharpe"/>
            </subject>
            <effectiveDateTime value="2024-08-07T00:49:39Z"/>
            <performer>
               <display value="The Central European Lab"/>
            </performer>
            <valueQuantity>
               <value value="31.5"/>
               <unit value="pg"/>
               <system value="http://unitsofmeasure.org"/>
               <code value="pg"/>
            </valueQuantity>
            <referenceRange>
               <low>
                  <value value="27.5"/>
                  <system value="http://unitsofmeasure.org"/>
                  <code value="pg"/>
               </low>
            </referenceRange>
            <referenceRange>
               <high>
                  <value value="34.5"/>
                  <system value="http://unitsofmeasure.org"/>
                  <code value="pg"/>
               </high>
            </referenceRange>
         </Observation>
      </resource>
   </entry>
   <entry>
      <fullUrl value="urn:uuid:ec781f4c-8589-49e0-b2fd-c6780889cd8a"/>
      <resource>
         <Observation>
            <id value="ec781f4c-8589-49e0-b2fd-c6780889cd8a"/>
            <meta>
               <profile value="http://hl7.eu/fhir/laboratory/StructureDefinition/Observation-resultslab-eu-lab"/>
            </meta>
            <text>
               <status value="generated"/>
               <div xmlns="http://www.w3.org/1999/xhtml">
                  <table class="hl7__eu__lab__report">
                     <tr>
                        <th>Test</th>
                        <th>07-Aug-2024</th>
                        <th>Reference Range</th>
                        <th>Unit</th>
                     </tr>
                     <tr>
                        <td>MCHC [Mass/volume] by Automated count</td>
                        <td>35.7</td>
                        <td>32 - 37</td>
                        <td/>
                        <td>g/dL</td>
                     </tr>
                  </table>
               </div>
            </text>
            <status value="final"/>
            <category>
               <coding>
                  <system value="http://terminology.hl7.org/CodeSystem/observation-category"/>
                  <code value="laboratory"/>
               </coding>
            </category>
            <code>
               <coding>
                  <system value="http://loinc.org"/>
                  <code value="786-4"/>
                  <display value="MCHC [Mass/volume] by Automated count"/>
               </coding>
               <text value="MCHC [Mass/volume] by Automated count"/>
            </code>
            <subject>
               <reference value="urn:uuid:e371bc4a-2970-465c-8eab-e5cf8cd255f9"/>
               <display value="Charlene Sharpe"/>
            </subject>
            <effectiveDateTime value="2024-08-07T00:49:39Z"/>
            <performer>
               <display value="The Central European Lab"/>
            </performer>
            <valueQuantity>
               <value value="35.7"/>
               <unit value="g/dL"/>
               <system value="http://unitsofmeasure.org"/>
               <code value="g/dL"/>
            </valueQuantity>
            <referenceRange>
               <low>
                  <value value="32"/>
                  <system value="http://unitsofmeasure.org"/>
                  <code value="g/dL"/>
               </low>
            </referenceRange>
            <referenceRange>
               <high>
                  <value value="37"/>
                  <system value="http://unitsofmeasure.org"/>
                  <code value="g/dL"/>
               </high>
            </referenceRange>
         </Observation>
      </resource>
   </entry>
   <entry>
      <fullUrl value="urn:uuid:6f9568e1-863c-49e2-9111-4907a78f537a"/>
      <resource>
         <Observation>
            <id value="6f9568e1-863c-49e2-9111-4907a78f537a"/>
            <meta>
               <profile value="http://hl7.eu/fhir/laboratory/StructureDefinition/Observation-resultslab-eu-lab"/>
            </meta>
            <text>
               <status value="generated"/>
               <div xmlns="http://www.w3.org/1999/xhtml">
                  <table class="hl7__eu__lab__report">
                     <tr>
                        <th>Test</th>
                        <th>07-Aug-2024</th>
                        <th>Reference Range</th>
                        <th>Unit</th>
                     </tr>
                     <tr>
                        <td>Erythrocyte distribution width [Entitic volume] by Automated count</td>
                        <td>46.0</td>
                        <td>36 - 55</td>
                        <td/>
                        <td>fL</td>
                     </tr>
                  </table>
               </div>
            </text>
            <status value="final"/>
            <category>
               <coding>
                  <system value="http://terminology.hl7.org/CodeSystem/observation-category"/>
                  <code value="laboratory"/>
               </coding>
            </category>
            <code>
               <coding>
                  <system value="http://loinc.org"/>
                  <code value="21000-5"/>
                  <display value="Erythrocyte distribution width [Entitic volume] by Automated count"/>
               </coding>
               <text value="Erythrocyte distribution width [Entitic volume] by Automated count"/>
            </code>
            <subject>
               <reference value="urn:uuid:e371bc4a-2970-465c-8eab-e5cf8cd255f9"/>
               <display value="Charlene Sharpe"/>
            </subject>
            <effectiveDateTime value="2024-08-07T00:49:39Z"/>
            <performer>
               <display value="The Central European Lab"/>
            </performer>
            <valueQuantity>
               <value value="46"/>
               <unit value="fL"/>
               <system value="http://unitsofmeasure.org"/>
               <code value="fL"/>
            </valueQuantity>
            <referenceRange>
               <low>
                  <value value="36"/>
                  <system value="http://unitsofmeasure.org"/>
                  <code value="fL"/>
               </low>
            </referenceRange>
            <referenceRange>
               <high>
                  <value value="55"/>
                  <system value="http://unitsofmeasure.org"/>
                  <code value="fL"/>
               </high>
            </referenceRange>
         </Observation>
      </resource>
   </entry>
   <entry>
      <fullUrl value="urn:uuid:f199c378-705c-4957-93f3-39a372f8037e"/>
      <resource>
         <Observation>
            <id value="f199c378-705c-4957-93f3-39a372f8037e"/>
            <meta>
               <profile value="http://hl7.eu/fhir/laboratory/StructureDefinition/Observation-resultslab-eu-lab"/>
            </meta>
            <text>
               <status value="generated"/>
               <div xmlns="http://www.w3.org/1999/xhtml">
                  <table class="hl7__eu__lab__report">
                     <tr>
                        <th>Test</th>
                        <th>07-Aug-2024</th>
                        <th>Reference Range</th>
                        <th>Unit</th>
                     </tr>
                     <tr>
                        <td>Platelets [#/volume] in Blood by Automated count</td>
                        <td>343.1</td>
                        <td>150 - 450</td>
                        <td/>
                        <td>10*3/uL</td>
                     </tr>
                  </table>
               </div>
            </text>
            <status value="final"/>
            <category>
               <coding>
                  <system value="http://terminology.hl7.org/CodeSystem/observation-category"/>
                  <code value="laboratory"/>
               </coding>
            </category>
            <code>
               <coding>
                  <system value="http://loinc.org"/>
                  <code value="777-3"/>
                  <display value="Platelets [#/volume] in Blood by Automated count"/>
               </coding>
               <text value="Platelets [#/volume] in Blood by Automated count"/>
            </code>
            <subject>
               <reference value="urn:uuid:e371bc4a-2970-465c-8eab-e5cf8cd255f9"/>
               <display value="Charlene Sharpe"/>
            </subject>
            <effectiveDateTime value="2024-08-07T00:49:39Z"/>
            <performer>
               <display value="The Central European Lab"/>
            </performer>
            <valueQuantity>
               <value value="343.1"/>
               <unit value="10*3/uL"/>
               <system value="http://unitsofmeasure.org"/>
               <code value="10*3/uL"/>
            </valueQuantity>
            <referenceRange>
               <low>
                  <value value="150"/>
                  <system value="http://unitsofmeasure.org"/>
                  <code value="10*3/uL"/>
               </low>
            </referenceRange>
            <referenceRange>
               <high>
                  <value value="450"/>
                  <system value="http://unitsofmeasure.org"/>
                  <code value="10*3/uL"/>
               </high>
            </referenceRange>
         </Observation>
      </resource>
   </entry>
   <entry>
      <fullUrl value="urn:uuid:f874e104-a10e-43bf-94a3-80e55b37e9c3"/>
      <resource>
         <Observation>
            <id value="f874e104-a10e-43bf-94a3-80e55b37e9c3"/>
            <meta>
               <profile value="http://hl7.eu/fhir/laboratory/StructureDefinition/Observation-resultslab-eu-lab"/>
            </meta>
            <text>
               <status value="generated"/>
               <div xmlns="http://www.w3.org/1999/xhtml">
                  <table class="hl7__eu__lab__report">
                     <tr>
                        <th>Test</th>
                        <th>07-Aug-2024</th>
                        <th>Reference Range</th>
                        <th>Unit</th>
                     </tr>
                     <tr>
                        <td>Platelet distribution width [Entitic volume] in Blood by Automated count</td>
                        <td>305.1</td>
                        <td>11 - 15</td>
                        <td>H</td>
                        <td>fL</td>
                     </tr>
                  </table>
               </div>
            </text>
            <status value="final"/>
            <category>
               <coding>
                  <system value="http://terminology.hl7.org/CodeSystem/observation-category"/>
                  <code value="laboratory"/>
               </coding>
            </category>
            <code>
               <coding>
                  <system value="http://loinc.org"/>
                  <code value="32207-3"/>
                  <display value="Platelet distribution width [Entitic volume] in Blood by Automated count"/>
               </coding>
               <text value="Platelet distribution width [Entitic volume] in Blood by Automated count"/>
            </code>
            <subject>
               <reference value="urn:uuid:e371bc4a-2970-465c-8eab-e5cf8cd255f9"/>
               <display value="Charlene Sharpe"/>
            </subject>
            <effectiveDateTime value="2024-08-07T00:49:39Z"/>
            <performer>
               <display value="The Central European Lab"/>
            </performer>
            <valueQuantity>
               <value value="305.1"/>
               <unit value="fL"/>
               <system value="http://unitsofmeasure.org"/>
               <code value="fL"/>
            </valueQuantity>
            <interpretation>
               <coding>
                  <system value="http://terminology.hl7.org/CodeSystem/v3-ObservationInterpretation"/>
                  <code value="H"/>
                  <display value="High"/>
               </coding>
            </interpretation>
            <referenceRange>
               <low>
                  <value value="11"/>
                  <system value="http://unitsofmeasure.org"/>
                  <code value="fL"/>
               </low>
            </referenceRange>
            <referenceRange>
               <high>
                  <value value="15"/>
                  <system value="http://unitsofmeasure.org"/>
                  <code value="fL"/>
               </high>
            </referenceRange>
         </Observation>
      </resource>
   </entry>
   <entry>
      <fullUrl value="urn:uuid:ff7e5acb-fccf-40f5-99cc-c2f71c6029f2"/>
      <resource>
         <Observation>
            <id value="ff7e5acb-fccf-40f5-99cc-c2f71c6029f2"/>
            <meta>
               <profile value="http://hl7.eu/fhir/laboratory/StructureDefinition/Observation-resultslab-eu-lab"/>
            </meta>
            <text>
               <status value="generated"/>
               <div xmlns="http://www.w3.org/1999/xhtml">
                  <table class="hl7__eu__lab__report">
                     <tr>
                        <th>Test</th>
                        <th>07-Aug-2024</th>
                        <th>Reference Range</th>
                        <th>Unit</th>
                     </tr>
                     <tr>
                        <td>Platelet mean volume [Entitic volume] in Blood by Automated count</td>
                        <td>9.8</td>
                        <td>7.2 - 13.8</td>
                        <td/>
                        <td>fL</td>
                     </tr>
                  </table>
               </div>
            </text>
            <status value="final"/>
            <category>
               <coding>
                  <system value="http://terminology.hl7.org/CodeSystem/observation-category"/>
                  <code value="laboratory"/>
               </coding>
            </category>
            <code>
               <coding>
                  <system value="http://loinc.org"/>
                  <code value="32623-1"/>
                  <display value="Platelet mean volume [Entitic volume] in Blood by Automated count"/>
               </coding>
               <text value="Platelet mean volume [Entitic volume] in Blood by Automated count"/>
            </code>
            <subject>
               <reference value="urn:uuid:e371bc4a-2970-465c-8eab-e5cf8cd255f9"/>
               <display value="Charlene Sharpe"/>
            </subject>
            <effectiveDateTime value="2024-08-07T00:49:39Z"/>
            <performer>
               <display value="The Central European Lab"/>
            </performer>
            <valueQuantity>
               <value value="9.8"/>
               <unit value="fL"/>
               <system value="http://unitsofmeasure.org"/>
               <code value="fL"/>
            </valueQuantity>
            <referenceRange>
               <low>
                  <value value="7.2"/>
                  <system value="http://unitsofmeasure.org"/>
                  <code value="fL"/>
               </low>
            </referenceRange>
            <referenceRange>
               <high>
                  <value value="13.8"/>
                  <system value="http://unitsofmeasure.org"/>
                  <code value="fL"/>
               </high>
            </referenceRange>
         </Observation>
      </resource>
   </entry>
   <entry>
      <fullUrl value="urn:uuid:0f9fe6b1-66e5-4c2a-804f-b7e7a114eb6f"/>
      <resource>
         <Device>
            <id value="0f9fe6b1-66e5-4c2a-804f-b7e7a114eb6f"/>
            <text>
               <status value="generated"/>
               <div xmlns="http://www.w3.org/1999/xhtml">SYNDERAI Synthetic Generator v5.0</div>
            </text>
            <status value="active&#34;"/>
            <distinctIdentifier value="synderai-generator-50"/>
            <manufacturer value="SYNDERAI Project"/>
            <deviceName>
               <name value="SYNDERAI Synthetic Generator"/>
               <type value="manufacturer-name"/>
            </deviceName>
            <version>
               <value value="5.0"/>
            </version>
         </Device>
      </resource>
   </entry>
   <entry>
      <fullUrl value="urn:uuid:915c642d-c099-4bdc-8ab8-482a9eedafa0"/>
      <resource>
         <Provenance>
            <id value="915c642d-c099-4bdc-8ab8-482a9eedafa0"/>
            <text>
               <status value="generated"/>
               <div xmlns="http://www.w3.org/1999/xhtml">Provenance for SYNDERAI Synthetic Example Data Resource</div>
            </text>
            <target>
               <reference value="Patient/e371bc4a-2970-465c-8eab-e5cf8cd255f9"/>
            </target>
            <target>
               <reference value="Bundle/63ec5f59-c135-4826-83c7-609e64e62363"/>
            </target>
            <target>
               <reference value="Composition/4db4af21-cab5-454a-99f1-05fd2f756697"/>
            </target>
            <target>
               <reference value="PractitionerRole/1143a6d3-55d5-448a-93a9-8ca251cc8237"/>
            </target>
            <target>
               <reference value="Organization/6c7a8322-e7f9-41be-930e-19e775238e7b"/>
            </target>
            <target>
               <reference value="Practitioner/154aa02c-d991-4a13-aa0d-4cd1f5d82ebd"/>
            </target>
            <recorded value="2024-08-07T00:49:39Z"/>
            <policy value="https://synderai.net/synderai-synthetic-data-policy"/>
            <reason>
               <text value="Interoperability Testing and Training (non-clinical use)"/>
            </reason>
            <activity>
               <text value="Synthetic Example Data Generation"/>
            </activity>
            <agent>
               <type>
                  <text value="author"/>
               </type>
               <who>
                  <reference value="Device/0f9fe6b1-66e5-4c2a-804f-b7e7a114eb6f"/>
               </who>
            </agent>
         </Provenance>
      </resource>
   </entry>
</Bundle>