<Bundle xmlns="http://hl7.org/fhir">
   <id value="c00c1705-1121-4e54-93e5-496e31502e8e"/>
   <meta>
      <profile value="http://hl7.eu/fhir/eps/StructureDefinition/bundle-eu-eps"/>
   </meta>
   <identifier>
      <system value="urn:oid:2.16.840.1.113883.2.51.999"/>
      <value value="edfacc22-c03a-46b6-bc92-b0b7d423a7d0"/>
      <assigner>
         <display value="HL7 Europe"/>
      </assigner>
   </identifier>
   <type value="document"/>
   <timestamp value="2025-06-18T06:16:00Z"/>
   <entry>
      <fullUrl value="urn:uuid:437678c0-121b-4b5b-9fc9-ccb84ae02a4f"/>
      <resource>
         <Composition>
            <id value="437678c0-121b-4b5b-9fc9-ccb84ae02a4f"/>
            <meta>
               <profile value="http://hl7.eu/fhir/eps/StructureDefinition/composition-eu-eps"/>
               <security>
                  <system value="http://terminology.hl7.org/CodeSystem/v3-ActReason"/>
                  <code value="HTEST"/>
               </security>
               <security>
                  <system value="http://terminology.hl7.org/CodeSystem/v3-ActReason"/>
                  <code value="TRAIN"/>
               </security>
               <tag>
                  <system value="https://synderai.net/fhir/CodeSystem/tags"/>
                  <code value="synthetic"/>
                  <display value="SYNDERAI Synthetic data"/>
               </tag>
            </meta>
            <identifier>
               <system value="urn:oid:2.16.840.1.113883.2.51.999"/>
               <value value="55cc768b-6064-4ada-bdee-682ca20b5510"/>
               <assigner>
                  <display value="HL7 Europe"/>
               </assigner>
            </identifier>
            <status value="final"/>
            <type>
               <coding>
                  <system value="http://loinc.org"/>
                  <code value="60591-5"/>
                  <display value="Patient summary Document"/>
               </coding>
               <text value="Patient summary Document"/>
            </type>
            <subject>
               <reference value="urn:uuid:430d9c55-ab93-4845-8adc-dc58c90b9d13"/>
               <display value="Θεμιστοκλής Λιναρδάκη"/>
            </subject>
            <date value="2025-06-18"/>
            <author>
               <reference value="urn:uuid:0b9ed570-50cc-43b0-96b0-1ec431e849ab"/>
            </author>
            <title value="European Patient Summary"/>
            <confidentiality value="N"/>
            <custodian>
               <reference value="urn:uuid:42315baa-2836-46f3-94cf-7c7949930a0c"/>
            </custodian>
            <section>
               <title value="Problem list"/>
               <code>
                  <coding>
                     <system value="http://loinc.org"/>
                     <code value="11450-4"/>
                     <display value="Problem list - Reported"/>
                  </coding>
               </code>
               <text>
                  <status value="generated"/>
                  <div xmlns="http://www.w3.org/1999/xhtml">
                     <table class="hl7__ips">
                        <tr>
                           <th>Condition</th>
                           <th>Onset Date</th>
                           <th>Status</th>
                        </tr>
                        <tr>
                           <td>Metabolic syndrome X</td>
                           <td>
                              <span class="nb">18-Oct-2017</span>
                           </td>
                           <td>active</td>
                        </tr>
                        <tr>
                           <td>Chronic kidney disease stage 3</td>
                           <td>
                              <span class="nb">04-Jan-2017</span>
                           </td>
                           <td>active</td>
                        </tr>
                        <tr>
                           <td>Proteinuria due to type 2 diabetes mellitus</td>
                           <td>
                              <span class="nb">04-Jan-2017</span>
                           </td>
                           <td>active</td>
                        </tr>
                        <tr>
                           <td>Chronic kidney disease stage 2</td>
                           <td>
                              <span class="nb">13-May-2015</span>
                           </td>
                           <td>active</td>
                        </tr>
                        <tr>
                           <td>Microalbuminuria due to type 2 diabetes mellitus</td>
                           <td>
                              <span class="nb">13-May-2015</span>
                           </td>
                           <td>active</td>
                        </tr>
                        <tr>
                           <td>Disorder of kidney due to diabetes mellitus</td>
                           <td>
                              <span class="nb">01-Oct-2014</span>
                           </td>
                           <td>active</td>
                        </tr>
                        <tr>
                           <td>Chronic kidney disease stage 1</td>
                           <td>
                              <span class="nb">01-Oct-2014</span>
                           </td>
                           <td>active</td>
                        </tr>
                        <tr>
                           <td>Essential hypertension</td>
                           <td>
                              <span class="nb">01-Jul-1998</span>
                           </td>
                           <td>active</td>
                        </tr>
                        <tr>
                           <td>Prediabetes</td>
                           <td>
                              <span class="nb">26-Jan-1994</span>
                           </td>
                           <td>active</td>
                        </tr>
                        <tr>
                           <td>Anemia</td>
                           <td>
                              <span class="nb">26-Jan-1994</span>
                           </td>
                           <td>active</td>
                        </tr>
                     </table>
                  </div>
               </text>
               <entry>
                  <reference value="urn:uuid:a9b41fbd-0360-445b-b21c-db4a3355ff29"/>
               </entry>
               <entry>
                  <reference value="urn:uuid:b52804f2-bebd-4d76-863e-23f483795323"/>
               </entry>
               <entry>
                  <reference value="urn:uuid:988b29f6-8ee1-4ee5-ae7d-8597bb63e9c3"/>
               </entry>
               <entry>
                  <reference value="urn:uuid:f8587b50-d139-4812-82fa-375ff5513c3b"/>
               </entry>
               <entry>
                  <reference value="urn:uuid:8c444747-7319-4cfe-8e11-cf42a02c6e0b"/>
               </entry>
               <entry>
                  <reference value="urn:uuid:abcb31a0-d159-465b-8e82-c96796d8282b"/>
               </entry>
               <entry>
                  <reference value="urn:uuid:c68b086e-fb15-40b8-abd5-40ec6cad518b"/>
               </entry>
               <entry>
                  <reference value="urn:uuid:898987b6-d7b8-4c03-90d8-755f7b25d671"/>
               </entry>
               <entry>
                  <reference value="urn:uuid:713fabb2-14aa-4968-871f-90943ae759b2"/>
               </entry>
               <entry>
                  <reference value="urn:uuid:9a3b094a-33ef-4e4f-a154-e98108a388d2"/>
               </entry>
            </section>
            <section>
               <title value="Medication list"/>
               <code>
                  <coding>
                     <system value="http://loinc.org"/>
                     <code value="10160-0"/>
                     <display value="History of Medication use Narrative"/>
                  </coding>
               </code>
               <text>
                  <status value="generated"/>
                  <div xmlns="http://www.w3.org/1999/xhtml">
                     <table class="hl7__ips">
                        <tr>
                           <th>Medication</th>
                           <th>Since</th>
                           <th>Form</th>
                           <th>Dosage</th>
                           <th>Reason</th>
                        </tr>
                        <tr>
                           <td>insulin isophane human 70 UNT/ML / insulin regular human 30 UNT/ML Injectable Suspension [Humulin]</td>
                           <td>
                              <span class="nb">2025-06-18</span>
                           </td>
                           <td>-</td>
                           <td>Inject 10 units subcutaneously before breakfast and 10 units before dinner</td>
                           <td>Prediabetes</td>
                        </tr>
                        <tr>
                           <td>Amlodipine (as amlodipine besylate) 2.5 mg oral tablet</td>
                           <td>
                              <span class="nb">2025-06-18</span>
                           </td>
                           <td>-</td>
                           <td>1 tablet (2.5 mg) by mouth once daily</td>
                           <td>Essential hypertension (disorder)</td>
                        </tr>
                        <tr>
                           <td>Hydrochlorothiazide 25 mg oral tablet</td>
                           <td>
                              <span class="nb">2025-06-18</span>
                           </td>
                           <td>-</td>
                           <td>1 tablet (25 mg) by mouth once daily</td>
                           <td>Essential hypertension (disorder)</td>
                        </tr>
                        <tr>
                           <td>Lisinopril 10 mg oral tablet</td>
                           <td>
                              <span class="nb">2025-06-18</span>
                           </td>
                           <td>-</td>
                           <td>1 tablet (10 mg) by mouth once daily</td>
                           <td>Essential hypertension (disorder)</td>
                        </tr>
                     </table>
                  </div>
               </text>
               <entry>
                  <reference value="urn:uuid:0dfff676-8d82-4bdb-a42c-614d6883a0f5"/>
               </entry>
               <entry>
                  <reference value="urn:uuid:0730414e-66d6-4327-a203-40aa04c3b1c4"/>
               </entry>
               <entry>
                  <reference value="urn:uuid:0c84d388-5824-4935-9f8b-be1ad2d502b3"/>
               </entry>
               <entry>
                  <reference value="urn:uuid:e2ada2ff-5f0b-4a55-8470-c841bfc5880f"/>
               </entry>
            </section>
            <section>
               <title value="Immunizations list"/>
               <code>
                  <coding>
                     <system value="http://loinc.org"/>
                     <code value="11369-6"/>
                     <display value="History of Immunization note"/>
                  </coding>
               </code>
               <text>
                  <status value="generated"/>
                  <div xmlns="http://www.w3.org/1999/xhtml">
                     <table class="hl7__ips">
                        <tr>
                           <th>Vaccine</th>
                           <th>Date</th>
                        </tr>
                        <tr>
                           <td>Influenza virus antigen only vaccine product</td>
                           <td>
                              <span class="nb">27-Nov-2024</span>
                           </td>
                        </tr>
                        <tr>
                           <td>Clostridium tetani toxoid antigen adsorbed only vaccine product</td>
                           <td>
                              <span class="nb">22-May-2024</span>
                           </td>
                        </tr>
                        <tr>
                           <td>Live attenuated Human alphaherpesvirus 3 only vaccine product</td>
                           <td>
                              <span class="nb">22-Nov-2023</span>
                           </td>
                        </tr>
                        <tr>
                           <td>SARS-CoV-2 mRNA vaccine</td>
                           <td>
                              <span class="nb">28-Apr-2021</span>
                           </td>
                        </tr>
                     </table>
                  </div>
               </text>
               <entry>
                  <reference value="urn:uuid:b30e8d49-d33b-4e32-b518-65a9a892f64e"/>
               </entry>
               <entry>
                  <reference value="urn:uuid:f2202659-4b9d-4c79-a302-4b27387d9974"/>
               </entry>
               <entry>
                  <reference value="urn:uuid:322294ce-8dc2-430a-81e5-cfd3aed636e8"/>
               </entry>
               <entry>
                  <reference value="urn:uuid:579bd9fb-e923-4c31-8ca4-2fa664315bbc"/>
               </entry>
            </section>
            <section>
               <title value="Procedure History list"/>
               <code>
                  <coding>
                     <system value="http://loinc.org"/>
                     <code value="47519-4"/>
                     <display value="History of Procedures Document"/>
                  </coding>
               </code>
               <text>
                  <status value="generated"/>
                  <div xmlns="http://www.w3.org/1999/xhtml">
                     <table class="hl7__ips">
                        <tr>
                           <th>Procedure</th>
                           <th>Date</th>
                           <th>Reason</th>
                        </tr>
                        <tr>
                           <td>Medication reconciliation</td>
                           <td>
                              <span class="nb">20-Dec-2023</span>
                           </td>
                           <td>-</td>
                        </tr>
                        <tr>
                           <td>Depression screening</td>
                           <td>
                              <span class="nb">13-Dec-2023</span>
                           </td>
                           <td>-</td>
                        </tr>
                        <tr>
                           <td>Assessment of health and social care needs</td>
                           <td>
                              <span class="nb">13-Dec-2023</span>
                           </td>
                           <td>-</td>
                        </tr>
                        <tr>
                           <td>Depression screening using Patient Health Questionnaire Two-Item score (procedure)</td>
                           <td>
                              <span class="nb">13-Dec-2023</span>
                           </td>
                           <td>-</td>
                        </tr>
                        <tr>
                           <td>Assessment of anxiety</td>
                           <td>
                              <span class="nb">03-Aug-2022</span>
                           </td>
                           <td>-</td>
                        </tr>
                        <tr>
                           <td>Screening for drug abuse</td>
                           <td>
                              <span class="nb">20-Mar-2019</span>
                           </td>
                           <td>-</td>
                        </tr>
                        <tr>
                           <td>Screening for domestic abuse</td>
                           <td>
                              <span class="nb">20-Mar-2019</span>
                           </td>
                           <td>-</td>
                        </tr>
                        <tr>
                           <td>Assessment of substance use</td>
                           <td>
                              <span class="nb">20-Mar-2019</span>
                           </td>
                           <td>-</td>
                        </tr>
                        <tr>
                           <td>Depression screening using PHQ-9 (Patient Health Questionnaire 9) score</td>
                           <td>
                              <span class="nb">13-Feb-2019</span>
                           </td>
                           <td>-</td>
                        </tr>
                     </table>
                  </div>
               </text>
               <entry>
                  <reference value="urn:uuid:969a56f7-2311-436d-bcdf-66e3122166ec"/>
               </entry>
               <entry>
                  <reference value="urn:uuid:53f3b05d-c966-4f8d-b06d-a76b0f2857d6"/>
               </entry>
               <entry>
                  <reference value="urn:uuid:d75c0e61-869d-4146-84c8-b57107bcaae0"/>
               </entry>
               <entry>
                  <reference value="urn:uuid:d9b34d0b-b580-4abf-915c-536aa9aba045"/>
               </entry>
               <entry>
                  <reference value="urn:uuid:2e1165d5-7b1d-4dfa-90f4-62360ef9a2c5"/>
               </entry>
               <entry>
                  <reference value="urn:uuid:1a8a6dba-669a-45f1-a70e-cfd03f40f986"/>
               </entry>
               <entry>
                  <reference value="urn:uuid:cf242298-9701-4a49-9d69-7611a8585ad6"/>
               </entry>
               <entry>
                  <reference value="urn:uuid:9adb57ee-3278-4afc-957f-1a3a9ce8493d"/>
               </entry>
               <entry>
                  <reference value="urn:uuid:0b1d5d8b-a87c-4308-bc85-810dae7a622b"/>
               </entry>
            </section>
            <section>
               <title value="Allergies and Intolerances"/>
               <code>
                  <coding>
                     <system value="http://loinc.org"/>
                     <code value="48765-2"/>
                     <display value="Allergies and adverse reactions Document"/>
                  </coding>
               </code>
               <text>
                  <status value="generated"/>
                  <div xmlns="http://www.w3.org/1999/xhtml">
                     <table class="hl7__ips">
                        <tr>
                           <th>Allergy/Intolerance</th>
                           <th>Onset Date</th>
                           <th>Status</th>
                           <th>Type</th>
                           <th>Reaction</th>
                        </tr>
                        <tr>
                           <td/>
                           <td>?</td>
                           <td>active</td>
                           <td>?</td>
                           <td/>
                        </tr>
                     </table>
                  </div>
               </text>
               <entry>
                  <reference value="urn:uuid:268dd0f3-1725-49b5-bd48-f507af2dd026"/>
               </entry>
            </section>
            <section>
               <title value="Care Plan"/>
               <code>
                  <coding>
                     <system value="http://loinc.org"/>
                     <code value="18776-5"/>
                     <display value="Plan of care note"/>
                  </coding>
               </code>
               <text>
                  <status value="generated"/>
                  <div xmlns="http://www.w3.org/1999/xhtml">
                     <table class="hl7__ips">
                        <tr>
                           <th>Active Planned Care / Goals</th>
                           <th>Start Date</th>
                           <th>Reason</th>
                        </tr>
                        <tr>
                           <td>Lifestyle education regarding hypertension</td>
                           <td>
                              <span class="nb">01-Jul-1998</span>
                           </td>
                           <td>Essential hypertension (disorder)</td>
                        </tr>
                        <tr>
                           <td>
                              <ul>
                                 <li>Maintain blood pressure below 130/80 mmHg to reduce risk of cardiovascular and renal complications.</li>
                                 <li>Achieve at least 5% reduction in body weight to improve blood pressure control.</li>
                                 <li>Limit sodium intake to less than 2.3 grams per day to support blood pressure management.</li>
                                 <li>Engage in at least 150 minutes per week of moderate-intensity aerobic physical activity.</li>
                              </ul>
                           </td>
                           <td/>
                           <td/>
                        </tr>
                        <tr>
                           <td>Diabetes self management plan</td>
                           <td>
                              <span class="nb">26-Jan-1994</span>
                           </td>
                           <td>Prediabetes</td>
                        </tr>
                        <tr>
                           <td>
                              <ul>
                                 <li>Patient will participate in a diabetes self-management program to improve knowledge and skills for prediabetes management.</li>
                                 <li>Patient will achieve a 5% reduction in baseline body weight to reduce risk of progression to diabetes.</li>
                                 <li>Patient will maintain hemoglobin A1c below 6.5% to prevent progression to diabetes.</li>
                                 <li>Patient will engage in at least 150 minutes per week of moderate-intensity physical activity.</li>
                                 <li>Patient will follow a diet low in refined carbohydrates and saturated fats to support glycemic control.</li>
                              </ul>
                           </td>
                           <td/>
                           <td/>
                        </tr>
                     </table>
                  </div>
               </text>
               <entry>
                  <reference value="urn:uuid:0b557dc2-7f0d-4c78-90eb-c9143126e25a"/>
               </entry>
               <entry>
                  <reference value="urn:uuid:6dab3610-82be-4568-9b05-3fe152ae2a44"/>
               </entry>
            </section>
            <section>
               <title value="Vital Signs"/>
               <code>
                  <coding>
                     <system value="http://loinc.org"/>
                     <code value="8716-3"/>
                     <display value="Vital signs note"/>
                  </coding>
               </code>
               <text>
                  <status value="generated"/>
                  <div xmlns="http://www.w3.org/1999/xhtml">
                     <table class="hl7__ips">
                        <tr>
                           <th>Vital Signs</th>
                           <th>2025-06-18</th>
                           <th>2025-04-23</th>
                        </tr>
                        <tr>
                           <td>Body Height</td>
                           <td>187.3 cm</td>
                           <td>187.3 cm</td>
                        </tr>
                        <tr>
                           <td>Pain severity - 0-10 verbal numeric rating [Score] - Reported</td>
                           <td>0 {score}</td>
                           <td>3 {score}</td>
                        </tr>
                        <tr>
                           <td>Body Weight</td>
                           <td>101.8 kg</td>
                           <td>101.5 kg</td>
                        </tr>
                        <tr>
                           <td>Body mass index (BMI) [Ratio]</td>
                           <td>29 kg/m2</td>
                           <td>28.9 kg/m2</td>
                        </tr>
                        <tr>
                           <td>Diastolic Blood Pressure</td>
                           <td>78 mm[Hg]</td>
                           <td>82 mm[Hg]</td>
                        </tr>
                        <tr>
                           <td>Systolic Blood Pressure</td>
                           <td>102 mm[Hg]</td>
                           <td>95 mm[Hg]</td>
                        </tr>
                        <tr>
                           <td>Heart rate</td>
                           <td>95 /min</td>
                           <td>94 /min</td>
                        </tr>
                        <tr>
                           <td>Respiratory rate</td>
                           <td>12 /min</td>
                           <td>15 /min</td>
                        </tr>
                     </table>
                  </div>
               </text>
               <entry>
                  <reference value="urn:uuid:87a7df0f-7344-4c83-8429-61e8cf5c369f"/>
               </entry>
               <entry>
                  <reference value="urn:uuid:46a56b0a-f143-4cfb-ab66-1a42fb4a0593"/>
               </entry>
               <entry>
                  <reference value="urn:uuid:58de3d17-cd09-45ac-9ddb-df6329fc9dfd"/>
               </entry>
               <entry>
                  <reference value="urn:uuid:a61945b7-4710-4d86-bddd-64f60e423c87"/>
               </entry>
               <entry>
                  <reference value="urn:uuid:eaac3a46-ac73-45ce-bcf0-abce0a8da6c6"/>
               </entry>
               <entry>
                  <reference value="urn:uuid:bba5c8b7-21a4-4032-895a-e8c891877a3f"/>
               </entry>
               <entry>
                  <reference value="urn:uuid:0621cd74-78ad-4df9-9a50-fa431d3e0bf3"/>
               </entry>
               <entry>
                  <reference value="urn:uuid:56c21a7c-9465-4803-8c64-b5107b31a743"/>
               </entry>
               <entry>
                  <reference value="urn:uuid:4454e867-40a3-4071-b46f-9ad0cc4eae1f"/>
               </entry>
               <entry>
                  <reference value="urn:uuid:446db8e9-af5f-498e-af92-48e5d8b4bba7"/>
               </entry>
               <entry>
                  <reference value="urn:uuid:59d03ce8-ce75-434e-9f31-fe32dd701f3a"/>
               </entry>
               <entry>
                  <reference value="urn:uuid:e2cee620-fd68-46aa-8122-29c0d56a757b"/>
               </entry>
               <entry>
                  <reference value="urn:uuid:176abccf-a12c-4ef0-be99-4fa94a7d84ac"/>
               </entry>
               <entry>
                  <reference value="urn:uuid:0f692ff3-893b-4d79-8b7d-e7c6e4c50d8c"/>
               </entry>
               <entry>
                  <reference value="urn:uuid:12f4ba3b-88c9-4f10-826e-c710142e2e70"/>
               </entry>
               <entry>
                  <reference value="urn:uuid:a34fca39-aeb6-41ce-adee-1b24000bb77a"/>
               </entry>
            </section>
            <section>
               <title value="Relevant diagnostic tests/laboratory data"/>
               <code>
                  <coding>
                     <system value="http://loinc.org"/>
                     <code value="30954-2"/>
                     <display value="Relevant diagnostic tests/laboratory data note"/>
                  </coding>
               </code>
               <text>
                  <status value="generated"/>
                  <div xmlns="http://www.w3.org/1999/xhtml">
                     <table class="hl7__ips">
                        <table class="hl7__ips">
                           <thead>
                              <tr>
                                 <th>Recent Lab Observations</th>
                                 <th>18-JUN-2025</th>
                                 <th>Reference Range</th>
                                 <th>Unit</th>
                              </tr>
                           </thead>
                           <tbody>
                              <tr>
                                 <td>Glucose [Mass/volume] in Serum or Plasma</td>
                                 <td>
                                    <strong>68.6 L</strong>
                                 </td>
                                 <td>70 - 140</td>
                                 <td>mg/dL</td>
                              </tr>
                              <tr>
                                 <td>Urea nitrogen [Mass/volume] in Serum or Plasma</td>
                                 <td>19.4</td>
                                 <td>7 - 20</td>
                                 <td>mg/dL</td>
                              </tr>
                              <tr>
                                 <td>Creatinine [Mass/volume] in Serum or Plasma</td>
                                 <td>
                                    <strong>2.0 H</strong>
                                 </td>
                                 <td>0.9 - 1.3</td>
                                 <td>mg/dL</td>
                              </tr>
                              <tr>
                                 <td>Calcium [Mass/volume] in Serum or Plasma</td>
                                 <td>10.2</td>
                                 <td>8.5 - 10.5</td>
                                 <td>mg/dL</td>
                              </tr>
                              <tr>
                                 <td>Sodium [Moles/volume] in Serum or Plasma</td>
                                 <td>137.6</td>
                                 <td>135 - 145</td>
                                 <td>mmol/L</td>
                              </tr>
                              <tr>
                                 <td>Potassium [Moles/volume] in Serum or Plasma</td>
                                 <td>4.1</td>
                                 <td>3.5 - 5</td>
                                 <td>mmol/L</td>
                              </tr>
                              <tr>
                                 <td>Chloride [Moles/volume] in Serum or Plasma</td>
                                 <td>
                                    <strong>109.1 H</strong>
                                 </td>
                                 <td>98 - 108</td>
                                 <td>mmol/L</td>
                              </tr>
                              <tr>
                                 <td>Carbon dioxide, total [Moles/volume] in Serum or Plasma</td>
                                 <td>
                                    <strong>21.8 L</strong>
                                 </td>
                                 <td>22 - 29</td>
                                 <td>mmol/L</td>
                              </tr>
                              <tr>
                                 <td>Appearance of Urine</td>
                                 <td>Cloudy urine</td>
                                 <td/>
                                 <td/>
                              </tr>
                              <tr>
                                 <td>Odor of Urine</td>
                                 <td>Urine smell ammoniacal</td>
                                 <td/>
                                 <td/>
                              </tr>
                              <tr>
                                 <td>Clarity of Urine</td>
                                 <td>Translucent</td>
                                 <td/>
                                 <td/>
                              </tr>
                              <tr>
                                 <td>Color of Urine</td>
                                 <td>Brown color</td>
                                 <td/>
                                 <td/>
                              </tr>
                              <tr>
                                 <td>Glucose [Mass/volume] in Urine by Test strip</td>
                                 <td>
                                    <strong>2.3 H</strong>
                                 </td>
                                 <td>0 - 0.8</td>
                                 <td>mg/dL</td>
                              </tr>
                              <tr>
                                 <td>Glucose [Presence] in Urine by Test strip</td>
                                 <td>++</td>
                                 <td/>
                                 <td/>
                              </tr>
                              <tr>
                                 <td>Bilirubin.total [Mass/volume] in Urine by Test strip</td>
                                 <td>0.3</td>
                                 <td>0.2 - 1</td>
                                 <td>mg/dL</td>
                              </tr>
                              <tr>
                                 <td>Bilirubin.total [Presence] in Urine by Test strip</td>
                                 <td>Finding of bilirubin in urine</td>
                                 <td/>
                                 <td/>
                              </tr>
                              <tr>
                                 <td>Ketones [Mass/volume] in Urine by Test strip</td>
                                 <td>
                                    <strong>16.5 H</strong>
                                 </td>
                                 <td>0 - 5</td>
                                 <td>mg/dL</td>
                              </tr>
                              <tr>
                                 <td>Ketones [Presence] in Urine by Test strip</td>
                                 <td>Urine ketone test = ++</td>
                                 <td/>
                                 <td/>
                              </tr>
                              <tr>
                                 <td>Specific gravity of Urine by Test strip</td>
                                 <td>
                                    <strong>1.0 L</strong>
                                 </td>
                                 <td>1.005 - 1.03</td>
                                 <td>{nominal}</td>
                              </tr>
                              <tr>
                                 <td>pH of Urine by Test strip</td>
                                 <td>6.6</td>
                                 <td>4.6 - 7</td>
                                 <td>pH</td>
                              </tr>
                              <tr>
                                 <td>Protein [Mass/volume] in Urine by Test strip</td>
                                 <td>
                                    <strong>243.1 H</strong>
                                 </td>
                                 <td>0 - 150</td>
                                 <td>mg/dL</td>
                              </tr>
                              <tr>
                                 <td>Protein [Presence] in Urine by Test strip</td>
                                 <td>Urine protein test = ++</td>
                                 <td/>
                                 <td/>
                              </tr>
                              <tr>
                                 <td>Nitrite [Presence] in Urine by Test strip</td>
                                 <td>Urine nitrite negative</td>
                                 <td/>
                                 <td/>
                              </tr>
                              <tr>
                                 <td>Hemoglobin [Presence] in Urine by Test strip</td>
                                 <td>Urine blood test = negative</td>
                                 <td/>
                                 <td/>
                              </tr>
                              <tr>
                                 <td>Leukocyte esterase [Presence] in Urine by Test strip</td>
                                 <td>Urine leukocyte test negative</td>
                                 <td/>
                                 <td/>
                              </tr>
                              <tr>
                                 <td>Hemoglobin A1c/Hemoglobin.total in Blood</td>
                                 <td>
                                    <strong>3.0 L</strong>
                                 </td>
                                 <td>4.3 - 6.4</td>
                                 <td>%</td>
                              </tr>
                              <tr>
                                 <td>Glucose [Mass/volume] in Blood</td>
                                 <td>
                                    <strong>68.6 L</strong>
                                 </td>
                                 <td>70 - 140</td>
                                 <td>mg/dL</td>
                              </tr>
                              <tr>
                                 <td>Urea nitrogen [Mass/volume] in Blood</td>
                                 <td>19.4</td>
                                 <td>7 - 20</td>
                                 <td>mg/dL</td>
                              </tr>
                              <tr>
                                 <td>Creatinine [Mass/volume] in Blood</td>
                                 <td>
                                    <strong>5.3 H</strong>
                                 </td>
                                 <td>0.6 - 1.3</td>
                                 <td>mg/dL</td>
                              </tr>
                              <tr>
                                 <td>Calcium [Mass/volume] in Blood</td>
                                 <td>10.2</td>
                                 <td>8.5 - 10.5</td>
                                 <td>mg/dL</td>
                              </tr>
                              <tr>
                                 <td>Sodium [Moles/volume] in Blood</td>
                                 <td>137.6</td>
                                 <td>135 - 145</td>
                                 <td>mmol/L</td>
                              </tr>
                              <tr>
                                 <td>Potassium [Moles/volume] in Blood</td>
                                 <td>4.1</td>
                                 <td>3.5 - 5.3</td>
                                 <td>mmol/L</td>
                              </tr>
                              <tr>
                                 <td>Chloride [Moles/volume] in Blood</td>
                                 <td>109.1</td>
                                 <td>98 - 110</td>
                                 <td>mmol/L</td>
                              </tr>
                              <tr>
                                 <td>Carbon dioxide, total [Moles/volume] in Blood</td>
                                 <td>
                                    <strong>21.8 L</strong>
                                 </td>
                                 <td>22 - 29</td>
                                 <td>mmol/L</td>
                              </tr>
                           </tbody>
                        </table>
                     </table>
                  </div>
               </text>
               <entry>
                  <reference value="urn:uuid:a1126f69-7369-4191-a77f-ca11decad579"/>
               </entry>
               <entry>
                  <reference value="urn:uuid:121f134a-550d-4e81-a2d8-19b3d3019d9d"/>
               </entry>
               <entry>
                  <reference value="urn:uuid:3a6aabef-292c-4f9b-bb45-b25cbd2e56f9"/>
               </entry>
               <entry>
                  <reference value="urn:uuid:8f2d05f9-c9e5-4574-9c2d-ef0b1f939532"/>
               </entry>
               <entry>
                  <reference value="urn:uuid:2a0db867-dcff-49c3-b274-8777faa8c7c2"/>
               </entry>
               <entry>
                  <reference value="urn:uuid:5b9a8b78-6a24-4e9b-8e5a-f486ca122344"/>
               </entry>
               <entry>
                  <reference value="urn:uuid:aea654c1-ca0c-473f-a0bd-aa77d3ff3289"/>
               </entry>
               <entry>
                  <reference value="urn:uuid:87e54a5b-367a-416e-a7be-20c117ffa758"/>
               </entry>
               <entry>
                  <reference value="urn:uuid:c7957e29-90aa-4210-9294-38677a4c7867"/>
               </entry>
               <entry>
                  <reference value="urn:uuid:87a796bc-6483-4194-b9da-4166ab9375c1"/>
               </entry>
               <entry>
                  <reference value="urn:uuid:febf72a3-0afb-484f-a07a-8b8b8f40d063"/>
               </entry>
               <entry>
                  <reference value="urn:uuid:a0a4ae84-91b4-42a1-a2c2-d9bff49644b3"/>
               </entry>
               <entry>
                  <reference value="urn:uuid:373d3596-002d-491e-95a9-21138ee01463"/>
               </entry>
               <entry>
                  <reference value="urn:uuid:e067647c-e132-4ee2-b03b-f6c1facab525"/>
               </entry>
               <entry>
                  <reference value="urn:uuid:fc128aa4-6417-4674-9189-7a15c96503aa"/>
               </entry>
               <entry>
                  <reference value="urn:uuid:b5f87fe4-2438-417f-b057-c98a2f22e3bc"/>
               </entry>
               <entry>
                  <reference value="urn:uuid:5c6d374f-a704-4496-abc0-22d9497f43af"/>
               </entry>
               <entry>
                  <reference value="urn:uuid:0e4050f2-aa39-4b9c-a60c-df42811e011d"/>
               </entry>
               <entry>
                  <reference value="urn:uuid:5ec3b65d-bd0e-4cfe-984d-f668a4a24883"/>
               </entry>
               <entry>
                  <reference value="urn:uuid:45740288-8e85-4aab-a0fc-95c1d37b450a"/>
               </entry>
               <entry>
                  <reference value="urn:uuid:94267860-e3c3-40a5-b06d-e804be8c57f0"/>
               </entry>
               <entry>
                  <reference value="urn:uuid:a6e477fa-6e32-4dbc-b421-64d901f244ee"/>
               </entry>
               <entry>
                  <reference value="urn:uuid:63d7f9f4-5ba1-4eda-a583-20a5f0803325"/>
               </entry>
               <entry>
                  <reference value="urn:uuid:9f37e604-4bf6-4daa-82b9-7127779e4128"/>
               </entry>
               <entry>
                  <reference value="urn:uuid:1dad6d97-abfb-4b0d-8bbc-f15e3abdf94d"/>
               </entry>
               <entry>
                  <reference value="urn:uuid:d1e15f06-e22e-4cca-9b20-17fadf96b710"/>
               </entry>
               <entry>
                  <reference value="urn:uuid:3a773426-ff03-4951-b09e-634d751a34b6"/>
               </entry>
               <entry>
                  <reference value="urn:uuid:9f14b133-d2fb-4f63-b6d6-ae3161c8dc0f"/>
               </entry>
               <entry>
                  <reference value="urn:uuid:ba3a8cce-a68f-4a3d-843d-18b1ea8f5fb1"/>
               </entry>
               <entry>
                  <reference value="urn:uuid:b25702da-ca3e-4455-91e7-fc9e85815acb"/>
               </entry>
               <entry>
                  <reference value="urn:uuid:c0492a43-f8b8-46ee-8d6f-46ef4c0fa0a0"/>
               </entry>
               <entry>
                  <reference value="urn:uuid:2eabd5a8-d6c2-45e4-ade7-561601b38be9"/>
               </entry>
               <entry>
                  <reference value="urn:uuid:a0317675-4749-4fe7-a0df-7cf67f94a9b0"/>
               </entry>
               <entry>
                  <reference value="urn:uuid:21667788-f6ee-41b0-8ec5-a2916b26bbd2"/>
               </entry>
            </section>
            <section>
               <title value="Device Use"/>
               <code>
                  <coding>
                     <system value="http://loinc.org"/>
                     <code value="46264-8"/>
                     <display value="History of medical device use"/>
                  </coding>
               </code>
               <text>
                  <status value="generated"/>
                  <div xmlns="http://www.w3.org/1999/xhtml">
                     <table class="hl7__ips">
                        <tr>
                           <th>Device</th>
                           <th>Date (since)</th>
                        </tr>
                        <tr>
                           <td>Blood glucose meter (physical object)</td>
                           <td>
                              <span class="nb">26-Jan-1994</span>
                           </td>
                        </tr>
                     </table>
                  </div>
               </text>
               <entry>
                  <reference value="urn:uuid:31e91f2a-a8cd-4fac-af3f-e0520418ea8a"/>
               </entry>
            </section>
         </Composition>
      </resource>
   </entry>
   <entry>
      <fullUrl value="urn:uuid:430d9c55-ab93-4845-8adc-dc58c90b9d13"/>
      <resource>
         <Patient>
            <id value="430d9c55-ab93-4845-8adc-dc58c90b9d13"/>
            <meta>
               <profile value="http://hl7.eu/fhir/eps/StructureDefinition/patient-eu-eps"/>
               <security>
                  <system value="http://terminology.hl7.org/CodeSystem/v3-ActReason"/>
                  <code value="HTEST"/>
               </security>
               <security>
                  <system value="http://terminology.hl7.org/CodeSystem/v3-ActReason"/>
                  <code value="TRAIN"/>
               </security>
               <tag>
                  <system value="https://synderai.net/fhir/CodeSystem/tags"/>
                  <code value="synthetic"/>
                  <display value="SYNDERAI Synthetic data"/>
               </tag>
            </meta>
            <text>
               <status value="generated"/>
               <div xmlns="http://www.w3.org/1999/xhtml">
                  <table class="hl7__ips">
                     <tr>
                        <td>Θεμιστοκλής Λιναρδάκη</td>
                        <td>male</td>
                        <td>21-Jan-1974</td>
                     </tr>
                  </table>
               </div>
            </text>
            <extension url="http://hl7.org/fhir/StructureDefinition/patient-nationality">
               <valueCodeableConcept>
                  <coding>
                     <system value="http://hl7.org/fhir/ValueSet/country"/>
                     <code value="GR"/>
                  </coding>
               </valueCodeableConcept>
            </extension>
            <identifier>
               <type>
                  <coding>
                     <system value="http://terminology.hl7.org/CodeSystem/v2-0203"/>
                     <code value="PT"/>
                  </coding>
               </type>
               <system value="http://ec.europa.eu/identifier/eci"/>
               <value value="5962-476889-7"/>
            </identifier>
            <identifier>
               <type>
                  <coding>
                     <system value="http://terminology.hl7.org/CodeSystem/v2-0203"/>
                     <code value="MR"/>
                  </coding>
               </type>
               <system value="http://local.setting.eu/identifier"/>
               <value value="925e2603-2ef9-6bdf-1330-2ebf526636c4"/>
            </identifier>
            <name>
               <family value="Λιναρδάκη"/>
            </name>
            <name>
               <given value="Θεμιστοκλής"/>
            </name>
            <name>
               <text value="Θεμιστοκλής Λιναρδάκη"/>
            </name>
            <telecom>
               <system value="phone"/>
               <value value="+302226364480"/>
            </telecom>
            <gender value="male"/>
            <birthDate value="1974-01-21"/>
            <address>
               <use value="home"/>
               <type value="physical"/>
               <line value="Αμαρύνθου 54-58"/>
               <city value="Πάτρα"/>
               <postalCode value="262 21"/>
               <country value="Greece"/>
            </address>
         </Patient>
      </resource>
   </entry>
   <entry>
      <fullUrl value="urn:uuid:0b9ed570-50cc-43b0-96b0-1ec431e849ab"/>
      <resource>
         <PractitionerRole>
            <id value="0b9ed570-50cc-43b0-96b0-1ec431e849ab"/>
            <meta>
               <profile value="http://hl7.eu/fhir/base/StructureDefinition/practitionerRole-eu"/>
            </meta>
            <text>
               <status value="generated"/>
               <div xmlns="http://www.w3.org/1999/xhtml">
                  <table class="hl7__ips">Provider Role Id 0b9ed570-50cc-43b0-96b0-1ec431e849ab</table>
               </div>
            </text>
            <practitioner>
               <reference value="urn:uuid:b06a6008-6c77-4fc9-87bc-698d8d195b2d"/>
            </practitioner>
            <organization>
               <reference value="urn:uuid:42315baa-2836-46f3-94cf-7c7949930a0c"/>
            </organization>
         </PractitionerRole>
      </resource>
   </entry>
   <entry>
      <fullUrl value="urn:uuid:b06a6008-6c77-4fc9-87bc-698d8d195b2d"/>
      <resource>
         <Practitioner>
            <id value="b06a6008-6c77-4fc9-87bc-698d8d195b2d"/>
            <meta>
               <profile value="http://hl7.eu/fhir/base/StructureDefinition/practitioner-eu"/>
            </meta>
            <text>
               <status value="generated"/>
               <div xmlns="http://www.w3.org/1999/xhtml">
                  <table class="hl7__ips">Dr. Hel Ping</table>
               </div>
            </text>
            <name>
               <family value="Ping"/>
               <given value="Hel"/>
               <prefix value="Dr."/>
            </name>
         </Practitioner>
      </resource>
   </entry>
   <entry>
      <fullUrl value="urn:uuid:42315baa-2836-46f3-94cf-7c7949930a0c"/>
      <resource>
         <Organization>
            <id value="42315baa-2836-46f3-94cf-7c7949930a0c"/>
            <meta>
               <profile value="http://hl7.eu/fhir/base/StructureDefinition/organization-eu"/>
            </meta>
            <text>
               <status value="generated"/>
               <div xmlns="http://www.w3.org/1999/xhtml">
                  <table class="hl7__ips">Dr. Dimitris Economou</table>
               </div>
            </text>
            <identifier>
               <system value="urn:oid:2.16.840.1.113883.2.51.999"/>
               <value value="ca8afd88-d98f-4d28-ad1d-0ac42efaaae3"/>
               <assigner>
                  <display value="HL7 Europe"/>
               </assigner>
            </identifier>
            <name value="Dr. Dimitris Economou"/>
            <address>
               <line value="211 Odós Filellinon"/>
               <city value="Patras"/>
               <postalCode value="262 21"/>
               <country value="Greece"/>
            </address>
         </Organization>
      </resource>
   </entry>
   <entry>
      <fullUrl value="urn:uuid:a9b41fbd-0360-445b-b21c-db4a3355ff29"/>
      <resource>
         <Condition>
            <id value="a9b41fbd-0360-445b-b21c-db4a3355ff29"/>
            <meta>
               <profile value="http://hl7.org/fhir/uv/ips/StructureDefinition/Condition-uv-ips"/>
            </meta>
            <text>
               <status value="generated"/>
               <div xmlns="http://www.w3.org/1999/xhtml">
                  <table class="hl7__ips">
                     <tr>
                        <td>Metabolic syndrome X</td>
                        <td>
                           <span class="nb">18-Oct-2017</span>
                        </td>
                        <td>active</td>
                     </tr>
                  </table>
               </div>
            </text>
            <category>
               <coding>
                  <system value="http://terminology.hl7.org/CodeSystem/condition-category"/>
                  <code value="problem-list-item"/>
                  <display value="Problem List Item"/>
               </coding>
            </category>
            <code>
               <coding>
                  <system value="http://snomed.info/sct"/>
                  <code value="237602007"/>
                  <display value="Metabolic syndrome X (disorder)"/>
               </coding>
               <text value="Metabolic syndrome X"/>
            </code>
            <subject>
               <reference value="urn:uuid:"/>
               <display value="Θεμιστοκλής Λιναρδάκη"/>
            </subject>
            <onsetDateTime value="2017-10-18"/>
            <asserter>
               <reference value="urn:uuid:"/>
               <display value="Dr. Dimitris Economou"/>
            </asserter>
         </Condition>
      </resource>
   </entry>
   <entry>
      <fullUrl value="urn:uuid:b52804f2-bebd-4d76-863e-23f483795323"/>
      <resource>
         <Condition>
            <id value="b52804f2-bebd-4d76-863e-23f483795323"/>
            <meta>
               <profile value="http://hl7.org/fhir/uv/ips/StructureDefinition/Condition-uv-ips"/>
            </meta>
            <text>
               <status value="generated"/>
               <div xmlns="http://www.w3.org/1999/xhtml">
                  <table class="hl7__ips">
                     <tr>
                        <td>Chronic kidney disease stage 3</td>
                        <td>
                           <span class="nb">04-Jan-2017</span>
                        </td>
                        <td>active</td>
                     </tr>
                  </table>
               </div>
            </text>
            <category>
               <coding>
                  <system value="http://terminology.hl7.org/CodeSystem/condition-category"/>
                  <code value="problem-list-item"/>
                  <display value="Problem List Item"/>
               </coding>
            </category>
            <code>
               <coding>
                  <system value="http://snomed.info/sct"/>
                  <code value="433144002"/>
                  <display value="Chronic kidney disease stage 3 (disorder)"/>
               </coding>
               <text value="Chronic kidney disease stage 3"/>
            </code>
            <subject>
               <reference value="urn:uuid:"/>
               <display value="Θεμιστοκλής Λιναρδάκη"/>
            </subject>
            <onsetDateTime value="2017-01-04"/>
            <asserter>
               <reference value="urn:uuid:"/>
               <display value="Dr. Dimitris Economou"/>
            </asserter>
         </Condition>
      </resource>
   </entry>
   <entry>
      <fullUrl value="urn:uuid:988b29f6-8ee1-4ee5-ae7d-8597bb63e9c3"/>
      <resource>
         <Condition>
            <id value="988b29f6-8ee1-4ee5-ae7d-8597bb63e9c3"/>
            <meta>
               <profile value="http://hl7.org/fhir/uv/ips/StructureDefinition/Condition-uv-ips"/>
            </meta>
            <text>
               <status value="generated"/>
               <div xmlns="http://www.w3.org/1999/xhtml">
                  <table class="hl7__ips">
                     <tr>
                        <td>Proteinuria due to type 2 diabetes mellitus</td>
                        <td>
                           <span class="nb">04-Jan-2017</span>
                        </td>
                        <td>active</td>
                     </tr>
                  </table>
               </div>
            </text>
            <category>
               <coding>
                  <system value="http://terminology.hl7.org/CodeSystem/condition-category"/>
                  <code value="problem-list-item"/>
                  <display value="Problem List Item"/>
               </coding>
            </category>
            <code>
               <coding>
                  <system value="http://snomed.info/sct"/>
                  <code value="157141000119108"/>
                  <display value="Proteinuria due to type 2 diabetes mellitus (disorder)"/>
               </coding>
               <text value="Proteinuria due to type 2 diabetes mellitus"/>
            </code>
            <subject>
               <reference value="urn:uuid:"/>
               <display value="Θεμιστοκλής Λιναρδάκη"/>
            </subject>
            <onsetDateTime value="2017-01-04"/>
            <asserter>
               <reference value="urn:uuid:"/>
               <display value="Dr. Dimitris Economou"/>
            </asserter>
         </Condition>
      </resource>
   </entry>
   <entry>
      <fullUrl value="urn:uuid:f8587b50-d139-4812-82fa-375ff5513c3b"/>
      <resource>
         <Condition>
            <id value="f8587b50-d139-4812-82fa-375ff5513c3b"/>
            <meta>
               <profile value="http://hl7.org/fhir/uv/ips/StructureDefinition/Condition-uv-ips"/>
            </meta>
            <text>
               <status value="generated"/>
               <div xmlns="http://www.w3.org/1999/xhtml">
                  <table class="hl7__ips">
                     <tr>
                        <td>Chronic kidney disease stage 2</td>
                        <td>
                           <span class="nb">13-May-2015</span>
                        </td>
                        <td>active</td>
                     </tr>
                  </table>
               </div>
            </text>
            <category>
               <coding>
                  <system value="http://terminology.hl7.org/CodeSystem/condition-category"/>
                  <code value="problem-list-item"/>
                  <display value="Problem List Item"/>
               </coding>
            </category>
            <code>
               <coding>
                  <system value="http://snomed.info/sct"/>
                  <code value="431856006"/>
                  <display value="Chronic kidney disease stage 2 (disorder)"/>
               </coding>
               <text value="Chronic kidney disease stage 2"/>
            </code>
            <subject>
               <reference value="urn:uuid:"/>
               <display value="Θεμιστοκλής Λιναρδάκη"/>
            </subject>
            <onsetDateTime value="2015-05-13"/>
            <asserter>
               <reference value="urn:uuid:"/>
               <display value="Dr. Dimitris Economou"/>
            </asserter>
         </Condition>
      </resource>
   </entry>
   <entry>
      <fullUrl value="urn:uuid:8c444747-7319-4cfe-8e11-cf42a02c6e0b"/>
      <resource>
         <Condition>
            <id value="8c444747-7319-4cfe-8e11-cf42a02c6e0b"/>
            <meta>
               <profile value="http://hl7.org/fhir/uv/ips/StructureDefinition/Condition-uv-ips"/>
            </meta>
            <text>
               <status value="generated"/>
               <div xmlns="http://www.w3.org/1999/xhtml">
                  <table class="hl7__ips">
                     <tr>
                        <td>Microalbuminuria due to type 2 diabetes mellitus</td>
                        <td>
                           <span class="nb">13-May-2015</span>
                        </td>
                        <td>active</td>
                     </tr>
                  </table>
               </div>
            </text>
            <category>
               <coding>
                  <system value="http://terminology.hl7.org/CodeSystem/condition-category"/>
                  <code value="problem-list-item"/>
                  <display value="Problem List Item"/>
               </coding>
            </category>
            <code>
               <coding>
                  <system value="http://snomed.info/sct"/>
                  <code value="90781000119102"/>
                  <display value="Microalbuminuria due to type 2 diabetes mellitus (disorder)"/>
               </coding>
               <text value="Microalbuminuria due to type 2 diabetes mellitus"/>
            </code>
            <subject>
               <reference value="urn:uuid:"/>
               <display value="Θεμιστοκλής Λιναρδάκη"/>
            </subject>
            <onsetDateTime value="2015-05-13"/>
            <asserter>
               <reference value="urn:uuid:"/>
               <display value="Dr. Dimitris Economou"/>
            </asserter>
         </Condition>
      </resource>
   </entry>
   <entry>
      <fullUrl value="urn:uuid:abcb31a0-d159-465b-8e82-c96796d8282b"/>
      <resource>
         <Condition>
            <id value="abcb31a0-d159-465b-8e82-c96796d8282b"/>
            <meta>
               <profile value="http://hl7.org/fhir/uv/ips/StructureDefinition/Condition-uv-ips"/>
            </meta>
            <text>
               <status value="generated"/>
               <div xmlns="http://www.w3.org/1999/xhtml">
                  <table class="hl7__ips">
                     <tr>
                        <td>Disorder of kidney due to diabetes mellitus</td>
                        <td>
                           <span class="nb">01-Oct-2014</span>
                        </td>
                        <td>active</td>
                     </tr>
                  </table>
               </div>
            </text>
            <category>
               <coding>
                  <system value="http://terminology.hl7.org/CodeSystem/condition-category"/>
                  <code value="problem-list-item"/>
                  <display value="Problem List Item"/>
               </coding>
            </category>
            <code>
               <coding>
                  <system value="http://snomed.info/sct"/>
                  <code value="127013003"/>
                  <display value="Disorder of kidney due to diabetes mellitus (disorder)"/>
               </coding>
               <text value="Disorder of kidney due to diabetes mellitus"/>
            </code>
            <subject>
               <reference value="urn:uuid:"/>
               <display value="Θεμιστοκλής Λιναρδάκη"/>
            </subject>
            <onsetDateTime value="2014-10-01"/>
            <asserter>
               <reference value="urn:uuid:"/>
               <display value="Dr. Dimitris Economou"/>
            </asserter>
         </Condition>
      </resource>
   </entry>
   <entry>
      <fullUrl value="urn:uuid:c68b086e-fb15-40b8-abd5-40ec6cad518b"/>
      <resource>
         <Condition>
            <id value="c68b086e-fb15-40b8-abd5-40ec6cad518b"/>
            <meta>
               <profile value="http://hl7.org/fhir/uv/ips/StructureDefinition/Condition-uv-ips"/>
            </meta>
            <text>
               <status value="generated"/>
               <div xmlns="http://www.w3.org/1999/xhtml">
                  <table class="hl7__ips">
                     <tr>
                        <td>Chronic kidney disease stage 1</td>
                        <td>
                           <span class="nb">01-Oct-2014</span>
                        </td>
                        <td>active</td>
                     </tr>
                  </table>
               </div>
            </text>
            <category>
               <coding>
                  <system value="http://terminology.hl7.org/CodeSystem/condition-category"/>
                  <code value="problem-list-item"/>
                  <display value="Problem List Item"/>
               </coding>
            </category>
            <code>
               <coding>
                  <system value="http://snomed.info/sct"/>
                  <code value="431855005"/>
                  <display value="Chronic kidney disease stage 1 (disorder)"/>
               </coding>
               <text value="Chronic kidney disease stage 1"/>
            </code>
            <subject>
               <reference value="urn:uuid:"/>
               <display value="Θεμιστοκλής Λιναρδάκη"/>
            </subject>
            <onsetDateTime value="2014-10-01"/>
            <asserter>
               <reference value="urn:uuid:"/>
               <display value="Dr. Dimitris Economou"/>
            </asserter>
         </Condition>
      </resource>
   </entry>
   <entry>
      <fullUrl value="urn:uuid:898987b6-d7b8-4c03-90d8-755f7b25d671"/>
      <resource>
         <Condition>
            <id value="898987b6-d7b8-4c03-90d8-755f7b25d671"/>
            <meta>
               <profile value="http://hl7.org/fhir/uv/ips/StructureDefinition/Condition-uv-ips"/>
            </meta>
            <text>
               <status value="generated"/>
               <div xmlns="http://www.w3.org/1999/xhtml">
                  <table class="hl7__ips">
                     <tr>
                        <td>Essential hypertension</td>
                        <td>
                           <span class="nb">01-Jul-1998</span>
                        </td>
                        <td>active</td>
                     </tr>
                  </table>
               </div>
            </text>
            <category>
               <coding>
                  <system value="http://terminology.hl7.org/CodeSystem/condition-category"/>
                  <code value="problem-list-item"/>
                  <display value="Problem List Item"/>
               </coding>
            </category>
            <code>
               <coding>
                  <system value="http://snomed.info/sct"/>
                  <code value="59621000"/>
                  <display value="Essential hypertension (disorder)"/>
               </coding>
               <text value="Essential hypertension"/>
            </code>
            <subject>
               <reference value="urn:uuid:"/>
               <display value="Θεμιστοκλής Λιναρδάκη"/>
            </subject>
            <onsetDateTime value="1998-07-01"/>
            <asserter>
               <reference value="urn:uuid:"/>
               <display value="Dr. Dimitris Economou"/>
            </asserter>
         </Condition>
      </resource>
   </entry>
   <entry>
      <fullUrl value="urn:uuid:713fabb2-14aa-4968-871f-90943ae759b2"/>
      <resource>
         <Condition>
            <id value="713fabb2-14aa-4968-871f-90943ae759b2"/>
            <meta>
               <profile value="http://hl7.org/fhir/uv/ips/StructureDefinition/Condition-uv-ips"/>
            </meta>
            <text>
               <status value="generated"/>
               <div xmlns="http://www.w3.org/1999/xhtml">
                  <table class="hl7__ips">
                     <tr>
                        <td>Prediabetes</td>
                        <td>
                           <span class="nb">26-Jan-1994</span>
                        </td>
                        <td>active</td>
                     </tr>
                  </table>
               </div>
            </text>
            <category>
               <coding>
                  <system value="http://terminology.hl7.org/CodeSystem/condition-category"/>
                  <code value="problem-list-item"/>
                  <display value="Problem List Item"/>
               </coding>
            </category>
            <code>
               <coding>
                  <system value="http://snomed.info/sct"/>
                  <code value="15777000"/>
                  <display value="Prediabetes (disorder)"/>
               </coding>
               <text value="Prediabetes"/>
            </code>
            <subject>
               <reference value="urn:uuid:"/>
               <display value="Θεμιστοκλής Λιναρδάκη"/>
            </subject>
            <onsetDateTime value="1994-01-26"/>
            <asserter>
               <reference value="urn:uuid:"/>
               <display value="Dr. Dimitris Economou"/>
            </asserter>
         </Condition>
      </resource>
   </entry>
   <entry>
      <fullUrl value="urn:uuid:9a3b094a-33ef-4e4f-a154-e98108a388d2"/>
      <resource>
         <Condition>
            <id value="9a3b094a-33ef-4e4f-a154-e98108a388d2"/>
            <meta>
               <profile value="http://hl7.org/fhir/uv/ips/StructureDefinition/Condition-uv-ips"/>
            </meta>
            <text>
               <status value="generated"/>
               <div xmlns="http://www.w3.org/1999/xhtml">
                  <table class="hl7__ips">
                     <tr>
                        <td>Anemia</td>
                        <td>
                           <span class="nb">26-Jan-1994</span>
                        </td>
                        <td>active</td>
                     </tr>
                  </table>
               </div>
            </text>
            <category>
               <coding>
                  <system value="http://terminology.hl7.org/CodeSystem/condition-category"/>
                  <code value="problem-list-item"/>
                  <display value="Problem List Item"/>
               </coding>
            </category>
            <code>
               <coding>
                  <system value="http://snomed.info/sct"/>
                  <code value="271737000"/>
                  <display value="Anemia (disorder)"/>
               </coding>
               <text value="Anemia"/>
            </code>
            <subject>
               <reference value="urn:uuid:"/>
               <display value="Θεμιστοκλής Λιναρδάκη"/>
            </subject>
            <onsetDateTime value="1994-01-26"/>
            <asserter>
               <reference value="urn:uuid:"/>
               <display value="Dr. Dimitris Economou"/>
            </asserter>
         </Condition>
      </resource>
   </entry>
   <entry>
      <fullUrl value="urn:uuid:83ff5b57-1786-4887-959a-5212f884d47c"/>
      <resource>
         <Condition>
            <id value="83ff5b57-1786-4887-959a-5212f884d47c"/>
            <meta>
               <profile value="http://hl7.org/fhir/uv/ips/StructureDefinition/Condition-uv-ips"/>
            </meta>
            <text>
               <status value="generated"/>
               <div xmlns="http://www.w3.org/1999/xhtml">
                  <table class="hl7__ips">
                     <tr>
                        <td>
                           <span class="grayedout">Acute viral pharyngitis</span>
                        </td>
                        <td>
                           <span class="nb">04-Dec-2023 - 16-Dec-2023</span>
                        </td>
                        <td>
                           <span class="grayedout">inactive</span>
                        </td>
                     </tr>
                  </table>
               </div>
            </text>
            <category>
               <coding>
                  <system value="http://terminology.hl7.org/CodeSystem/condition-category"/>
                  <code value="problem-list-item"/>
                  <display value="Problem List Item"/>
               </coding>
            </category>
            <code>
               <coding>
                  <system value="http://snomed.info/sct"/>
                  <code value="195662009"/>
                  <display value="Acute viral pharyngitis (disorder)"/>
               </coding>
               <text value="Acute viral pharyngitis"/>
            </code>
            <subject>
               <reference value="urn:uuid:"/>
               <display value="Θεμιστοκλής Λιναρδάκη"/>
            </subject>
            <onsetDateTime value="2023-12-04"/>
            <abatementDateTime value="2023-12-16"/>
            <asserter>
               <reference value="urn:uuid:"/>
               <display value="Dr. Dimitris Economou"/>
            </asserter>
         </Condition>
      </resource>
   </entry>
   <entry>
      <fullUrl value="urn:uuid:152812c6-7f92-49b5-961e-34b7d426537c"/>
      <resource>
         <Condition>
            <id value="152812c6-7f92-49b5-961e-34b7d426537c"/>
            <meta>
               <profile value="http://hl7.org/fhir/uv/ips/StructureDefinition/Condition-uv-ips"/>
            </meta>
            <text>
               <status value="generated"/>
               <div xmlns="http://www.w3.org/1999/xhtml">
                  <table class="hl7__ips">
                     <tr>
                        <td>
                           <span class="grayedout">Viral sinusitis</span>
                        </td>
                        <td>
                           <span class="nb">13-Mar-2019 - 09-Apr-2019</span>
                        </td>
                        <td>
                           <span class="grayedout">inactive</span>
                        </td>
                     </tr>
                  </table>
               </div>
            </text>
            <category>
               <coding>
                  <system value="http://terminology.hl7.org/CodeSystem/condition-category"/>
                  <code value="problem-list-item"/>
                  <display value="Problem List Item"/>
               </coding>
            </category>
            <code>
               <coding>
                  <system value="http://snomed.info/sct"/>
                  <code value="444814009"/>
                  <display value="Viral sinusitis (disorder)"/>
               </coding>
               <text value="Viral sinusitis"/>
            </code>
            <subject>
               <reference value="urn:uuid:"/>
               <display value="Θεμιστοκλής Λιναρδάκη"/>
            </subject>
            <onsetDateTime value="2019-03-13"/>
            <abatementDateTime value="2019-04-09"/>
            <asserter>
               <reference value="urn:uuid:"/>
               <display value="Dr. Dimitris Economou"/>
            </asserter>
         </Condition>
      </resource>
   </entry>
   <entry>
      <fullUrl value="urn:uuid:bc0bac5d-7e54-483a-853e-d25849b968c5"/>
      <resource>
         <Medication>
            <id value="bc0bac5d-7e54-483a-853e-d25849b968c5"/>
            <meta>
               <profile value="http://hl7.eu/fhir/eps/StructureDefinition/Medication-eu-eps"/>
            </meta>
            <text>
               <status value="generated"/>
               <div xmlns="http://www.w3.org/1999/xhtml">insulin isophane human 70 UNT/ML / insulin regular human 30 UNT/ML Injectable Suspension [Humulin]</div>
            </text>
            <code>
               <coding>
                  <system value="http://www.nlm.nih.gov/research/umls/rxnorm"/>
                  <code value="106892"/>
                  <display value="insulin isophane  human 70 UNT/ML / insulin  regular  human 30 UNT/ML Injectable Suspension [Humulin]"/>
               </coding>
               <text value="insulin isophane  human 70 UNT/ML / insulin  regular  human 30 UNT/ML Injectable Suspension [Humulin]"/>
            </code>
         </Medication>
      </resource>
   </entry>
   <entry>
      <fullUrl value="urn:uuid:0dfff676-8d82-4bdb-a42c-614d6883a0f5"/>
      <resource>
         <MedicationStatement>
            <id value="0dfff676-8d82-4bdb-a42c-614d6883a0f5"/>
            <meta>
               <profile value="http://hl7.eu/fhir/eps/StructureDefinition/MedicationStatement-eu-eps"/>
            </meta>
            <text>
               <status value="generated"/>
               <div xmlns="http://www.w3.org/1999/xhtml">
                  <table class="hl7__ips first25">
                     <tr>
                        <th>Medication</th>
                        <th>Since</th>
                        <th>Form</th>
                        <th>Dosage</th>
                        <th>Reason</th>
                     </tr>
                     <tr>
                        <td>insulin isophane human 70 UNT/ML / insulin regular human 30 UNT/ML Injectable Suspension [Humulin]</td>
                        <td>
                           <span class="nb">2025-06-18</span>
                        </td>
                        <td>-</td>
                        <td>Inject 10 units subcutaneously before breakfast and 10 units before dinner</td>
                        <td>Prediabetes</td>
                     </tr>
                  </table>
               </div>
            </text>
            <status value="active"/>
            <medicationReference>
               <reference value="urn:uuid:bc0bac5d-7e54-483a-853e-d25849b968c5"/>
               <display value="insulin isophane  human 70 UNT/ML / insulin  regular  human 30 UNT/ML Injectable Suspension [Humulin]"/>
            </medicationReference>
            <subject>
               <reference value="urn:uuid:430d9c55-ab93-4845-8adc-dc58c90b9d13"/>
               <display value="Θεμιστοκλής Λιναρδάκη"/>
            </subject>
            <effectivePeriod>
               <start value="2025-06-18"/>
            </effectivePeriod>
            <reasonCode>
               <coding>
                  <system value="http://snomed.info/sct"/>
                  <code value="15777000"/>
                  <display value="Prediabetes"/>
               </coding>
            </reasonCode>
            <dosage>
               <text value="Inject 10 units subcutaneously before breakfast and 10 units before dinner"/>
               <timing>
                  <repeat>
                     <frequency value="2"/>
                     <period value="1"/>
                     <periodUnit value="d"/>
                  </repeat>
               </timing>
               <asNeededBoolean value="false"/>
               <doseAndRate>
                  <doseQuantity>
                     <value value="10"/>
                     <unit value="unit"/>
                     <code value="{U}"/>
                  </doseQuantity>
               </doseAndRate>
            </dosage>
         </MedicationStatement>
      </resource>
   </entry>
   <entry>
      <fullUrl value="urn:uuid:12a45a89-fa2b-431f-b13c-7a621302a789"/>
      <resource>
         <Medication>
            <id value="12a45a89-fa2b-431f-b13c-7a621302a789"/>
            <meta>
               <profile value="http://hl7.eu/fhir/eps/StructureDefinition/Medication-eu-eps"/>
            </meta>
            <text>
               <status value="generated"/>
               <div xmlns="http://www.w3.org/1999/xhtml">Amlodipine (as amlodipine besylate) 2.5 mg oral tablet</div>
            </text>
            <code>
               <coding>
                  <system value="http://snomed.info/sct"/>
                  <code value="1153431000"/>
                  <display value="Amlodipine (as amlodipine besylate) 2.5 mg oral tablet"/>
               </coding>
               <text value="Amlodipine (as amlodipine besylate) 2.5 mg oral tablet"/>
            </code>
         </Medication>
      </resource>
   </entry>
   <entry>
      <fullUrl value="urn:uuid:0730414e-66d6-4327-a203-40aa04c3b1c4"/>
      <resource>
         <MedicationStatement>
            <id value="0730414e-66d6-4327-a203-40aa04c3b1c4"/>
            <meta>
               <profile value="http://hl7.eu/fhir/eps/StructureDefinition/MedicationStatement-eu-eps"/>
            </meta>
            <text>
               <status value="generated"/>
               <div xmlns="http://www.w3.org/1999/xhtml">
                  <table class="hl7__ips first25">
                     <tr>
                        <th>Medication</th>
                        <th>Since</th>
                        <th>Form</th>
                        <th>Dosage</th>
                        <th>Reason</th>
                     </tr>
                     <tr>
                        <td>Amlodipine (as amlodipine besylate) 2.5 mg oral tablet</td>
                        <td>
                           <span class="nb">2025-06-18</span>
                        </td>
                        <td>-</td>
                        <td>1 tablet (2.5 mg) by mouth once daily</td>
                        <td>Essential hypertension (disorder)</td>
                     </tr>
                  </table>
               </div>
            </text>
            <status value="active"/>
            <medicationReference>
               <reference value="urn:uuid:12a45a89-fa2b-431f-b13c-7a621302a789"/>
               <display value="Amlodipine (as amlodipine besylate) 2.5 mg oral tablet"/>
            </medicationReference>
            <subject>
               <reference value="urn:uuid:430d9c55-ab93-4845-8adc-dc58c90b9d13"/>
               <display value="Θεμιστοκλής Λιναρδάκη"/>
            </subject>
            <effectivePeriod>
               <start value="2025-06-18"/>
            </effectivePeriod>
            <reasonCode>
               <coding>
                  <system value="http://snomed.info/sct"/>
                  <code value="59621000"/>
                  <display value="Essential hypertension (disorder)"/>
               </coding>
            </reasonCode>
            <dosage>
               <text value="1 tablet (2.5 mg) by mouth once daily"/>
               <timing>
                  <repeat>
                     <frequency value="1"/>
                     <period value="1"/>
                     <periodUnit value="d"/>
                  </repeat>
               </timing>
               <asNeededBoolean value="false"/>
               <doseAndRate>
                  <doseQuantity>
                     <value value="1"/>
                     <unit value="{tbl} (2.5 mg)"/>
                     <system value="$ucum"/>
                     <code value="{tbl}"/>
                  </doseQuantity>
               </doseAndRate>
            </dosage>
         </MedicationStatement>
      </resource>
   </entry>
   <entry>
      <fullUrl value="urn:uuid:83453935-e87b-4c47-b9b1-fef5e5866575"/>
      <resource>
         <Medication>
            <id value="83453935-e87b-4c47-b9b1-fef5e5866575"/>
            <meta>
               <profile value="http://hl7.eu/fhir/eps/StructureDefinition/Medication-eu-eps"/>
            </meta>
            <text>
               <status value="generated"/>
               <div xmlns="http://www.w3.org/1999/xhtml">Hydrochlorothiazide 25 mg oral tablet</div>
            </text>
            <code>
               <coding>
                  <system value="http://snomed.info/sct"/>
                  <code value="376209006"/>
                  <display value="Hydrochlorothiazide 25 mg oral tablet"/>
               </coding>
               <text value="Hydrochlorothiazide 25 mg oral tablet"/>
            </code>
         </Medication>
      </resource>
   </entry>
   <entry>
      <fullUrl value="urn:uuid:0c84d388-5824-4935-9f8b-be1ad2d502b3"/>
      <resource>
         <MedicationStatement>
            <id value="0c84d388-5824-4935-9f8b-be1ad2d502b3"/>
            <meta>
               <profile value="http://hl7.eu/fhir/eps/StructureDefinition/MedicationStatement-eu-eps"/>
            </meta>
            <text>
               <status value="generated"/>
               <div xmlns="http://www.w3.org/1999/xhtml">
                  <table class="hl7__ips first25">
                     <tr>
                        <th>Medication</th>
                        <th>Since</th>
                        <th>Form</th>
                        <th>Dosage</th>
                        <th>Reason</th>
                     </tr>
                     <tr>
                        <td>Hydrochlorothiazide 25 mg oral tablet</td>
                        <td>
                           <span class="nb">2025-06-18</span>
                        </td>
                        <td>-</td>
                        <td>1 tablet (25 mg) by mouth once daily</td>
                        <td>Essential hypertension (disorder)</td>
                     </tr>
                  </table>
               </div>
            </text>
            <status value="active"/>
            <medicationReference>
               <reference value="urn:uuid:83453935-e87b-4c47-b9b1-fef5e5866575"/>
               <display value="Hydrochlorothiazide 25 mg oral tablet"/>
            </medicationReference>
            <subject>
               <reference value="urn:uuid:430d9c55-ab93-4845-8adc-dc58c90b9d13"/>
               <display value="Θεμιστοκλής Λιναρδάκη"/>
            </subject>
            <effectivePeriod>
               <start value="2025-06-18"/>
            </effectivePeriod>
            <reasonCode>
               <coding>
                  <system value="http://snomed.info/sct"/>
                  <code value="59621000"/>
                  <display value="Essential hypertension (disorder)"/>
               </coding>
            </reasonCode>
            <dosage>
               <text value="1 tablet (25 mg) by mouth once daily"/>
               <timing>
                  <repeat>
                     <frequency value="1"/>
                     <period value="1"/>
                     <periodUnit value="d"/>
                  </repeat>
               </timing>
               <asNeededBoolean value="false"/>
               <doseAndRate>
                  <doseQuantity>
                     <value value="1"/>
                     <unit value="{tbl}"/>
                     <code value="{tbl}"/>
                  </doseQuantity>
               </doseAndRate>
            </dosage>
         </MedicationStatement>
      </resource>
   </entry>
   <entry>
      <fullUrl value="urn:uuid:3cff4b9b-030e-4e0d-97da-88df560ef1ff"/>
      <resource>
         <Medication>
            <id value="3cff4b9b-030e-4e0d-97da-88df560ef1ff"/>
            <meta>
               <profile value="http://hl7.eu/fhir/eps/StructureDefinition/Medication-eu-eps"/>
            </meta>
            <text>
               <status value="generated"/>
               <div xmlns="http://www.w3.org/1999/xhtml">Lisinopril 10 mg oral tablet</div>
            </text>
            <code>
               <coding>
                  <system value="http://snomed.info/sct"/>
                  <code value="318859000"/>
                  <display value="Lisinopril 10 mg oral tablet"/>
               </coding>
               <text value="Lisinopril 10 mg oral tablet"/>
            </code>
         </Medication>
      </resource>
   </entry>
   <entry>
      <fullUrl value="urn:uuid:e2ada2ff-5f0b-4a55-8470-c841bfc5880f"/>
      <resource>
         <MedicationStatement>
            <id value="e2ada2ff-5f0b-4a55-8470-c841bfc5880f"/>
            <meta>
               <profile value="http://hl7.eu/fhir/eps/StructureDefinition/MedicationStatement-eu-eps"/>
            </meta>
            <text>
               <status value="generated"/>
               <div xmlns="http://www.w3.org/1999/xhtml">
                  <table class="hl7__ips first25">
                     <tr>
                        <th>Medication</th>
                        <th>Since</th>
                        <th>Form</th>
                        <th>Dosage</th>
                        <th>Reason</th>
                     </tr>
                     <tr>
                        <td>Lisinopril 10 mg oral tablet</td>
                        <td>
                           <span class="nb">2025-06-18</span>
                        </td>
                        <td>-</td>
                        <td>1 tablet (10 mg) by mouth once daily</td>
                        <td>Essential hypertension (disorder)</td>
                     </tr>
                  </table>
               </div>
            </text>
            <status value="active"/>
            <medicationReference>
               <reference value="urn:uuid:3cff4b9b-030e-4e0d-97da-88df560ef1ff"/>
               <display value="Lisinopril 10 mg oral tablet"/>
            </medicationReference>
            <subject>
               <reference value="urn:uuid:430d9c55-ab93-4845-8adc-dc58c90b9d13"/>
               <display value="Θεμιστοκλής Λιναρδάκη"/>
            </subject>
            <effectivePeriod>
               <start value="2025-06-18"/>
            </effectivePeriod>
            <reasonCode>
               <coding>
                  <system value="http://snomed.info/sct"/>
                  <code value="59621000"/>
                  <display value="Essential hypertension (disorder)"/>
               </coding>
            </reasonCode>
            <dosage>
               <text value="1 tablet (10 mg) by mouth once daily"/>
               <timing>
                  <repeat>
                     <frequency value="1"/>
                     <period value="1"/>
                     <periodUnit value="d"/>
                  </repeat>
               </timing>
               <asNeededBoolean value="false"/>
               <doseAndRate>
                  <doseQuantity>
                     <value value="1"/>
                     <unit value="{tbl}"/>
                     <code value="{tbl}"/>
                  </doseQuantity>
               </doseAndRate>
            </dosage>
         </MedicationStatement>
      </resource>
   </entry>
   <entry>
      <fullUrl value="urn:uuid:b30e8d49-d33b-4e32-b518-65a9a892f64e"/>
      <resource>
         <Immunization>
            <id value="b30e8d49-d33b-4e32-b518-65a9a892f64e"/>
            <meta>
               <profile value="http://hl7.org/fhir/uv/ips/StructureDefinition/Immunization-uv-ips"/>
            </meta>
            <text>
               <status value="generated"/>
               <div xmlns="http://www.w3.org/1999/xhtml">
                  <table class="hl7__ips">
                     <tr>
                        <td>Influenza virus antigen only vaccine product</td>
                        <td>
                           <span class="nb">27-Nov-2024</span>
                        </td>
                     </tr>
                  </table>
               </div>
            </text>
            <status value="completed"/>
            <vaccineCode>
               <coding>
                  <system value="http://snomed.info/sct"/>
                  <code value="1181000221105"/>
                  <display value="Vaccine product containing Influenza virus antigen"/>
               </coding>
               <coding>
                  <system value="http://www.whocc.no/atc"/>
                  <code value="J07BB02"/>
                  <display value="Influenza, inactivated, split virus"/>
               </coding>
               <text value="Influenza virus antigen only vaccine product"/>
            </vaccineCode>
            <patient>
               <reference value="urn:uuid:430d9c55-ab93-4845-8adc-dc58c90b9d13"/>
               <display value="Θεμιστοκλής Λιναρδάκη"/>
            </patient>
            <occurrenceDateTime value="2024-11-27"/>
            <lotNumber value="BD-7drrv3"/>
            <expirationDate value="2025-09-29"/>
            <site>
               <coding>
                  <system value="http://snomed.info/sct"/>
                  <code value="244979005"/>
                  <display value="Entire muscle of upper arm"/>
               </coding>
               <text value="Entire muscle of upper arm"/>
            </site>
            <route>
               <coding>
                  <system value="http://snomed.info/sct"/>
                  <code value="78421000"/>
                  <display value="Intramuscular route"/>
               </coding>
               <text value="Intramuscular route"/>
            </route>
         </Immunization>
      </resource>
   </entry>
   <entry>
      <fullUrl value="urn:uuid:f2202659-4b9d-4c79-a302-4b27387d9974"/>
      <resource>
         <Immunization>
            <id value="f2202659-4b9d-4c79-a302-4b27387d9974"/>
            <meta>
               <profile value="http://hl7.org/fhir/uv/ips/StructureDefinition/Immunization-uv-ips"/>
            </meta>
            <text>
               <status value="generated"/>
               <div xmlns="http://www.w3.org/1999/xhtml">
                  <table class="hl7__ips">
                     <tr>
                        <td>Clostridium tetani toxoid antigen adsorbed only vaccine product</td>
                        <td>
                           <span class="nb">22-May-2024</span>
                        </td>
                     </tr>
                  </table>
               </div>
            </text>
            <status value="completed"/>
            <vaccineCode>
               <coding>
                  <system value="http://snomed.info/sct"/>
                  <code value="777725002"/>
                  <display value="Vaccine product containing only Clostridium tetani toxoid antigen adsorbed"/>
               </coding>
               <coding>
                  <system value="http://www.whocc.no/atc"/>
                  <code value="J07AM51"/>
                  <display value="Diphtheria-tetanus vaccines, adult type"/>
               </coding>
               <text value="Clostridium tetani toxoid antigen adsorbed only vaccine product"/>
            </vaccineCode>
            <patient>
               <reference value="urn:uuid:430d9c55-ab93-4845-8adc-dc58c90b9d13"/>
               <display value="Θεμιστοκλής Λιναρδάκη"/>
            </patient>
            <occurrenceDateTime value="2024-05-22"/>
            <lotNumber value="UR-xH4nyDH"/>
            <expirationDate value="2025-03-02"/>
            <site>
               <coding>
                  <system value="http://snomed.info/sct"/>
                  <code value="244979005"/>
                  <display value="Entire muscle of upper arm"/>
               </coding>
               <text value="Entire muscle of upper arm"/>
            </site>
            <route>
               <coding>
                  <system value="http://snomed.info/sct"/>
                  <code value="78421000"/>
                  <display value="Intramuscular route"/>
               </coding>
               <text value="Intramuscular route"/>
            </route>
         </Immunization>
      </resource>
   </entry>
   <entry>
      <fullUrl value="urn:uuid:322294ce-8dc2-430a-81e5-cfd3aed636e8"/>
      <resource>
         <Immunization>
            <id value="322294ce-8dc2-430a-81e5-cfd3aed636e8"/>
            <meta>
               <profile value="http://hl7.org/fhir/uv/ips/StructureDefinition/Immunization-uv-ips"/>
            </meta>
            <text>
               <status value="generated"/>
               <div xmlns="http://www.w3.org/1999/xhtml">
                  <table class="hl7__ips">
                     <tr>
                        <td>Live attenuated Human alphaherpesvirus 3 only vaccine product</td>
                        <td>
                           <span class="nb">22-Nov-2023</span>
                        </td>
                     </tr>
                  </table>
               </div>
            </text>
            <status value="completed"/>
            <vaccineCode>
               <coding>
                  <system value="http://snomed.info/sct"/>
                  <code value="2221000221107"/>
                  <display value="Live attenuated Varicella-zoster vaccine"/>
               </coding>
               <coding>
                  <system value="http://www.whocc.no/atc"/>
                  <code value="J07BK02"/>
                  <display value="Varicella-zoster vaccines"/>
               </coding>
               <text value="Live attenuated Human alphaherpesvirus 3 only vaccine product"/>
            </vaccineCode>
            <patient>
               <reference value="urn:uuid:430d9c55-ab93-4845-8adc-dc58c90b9d13"/>
               <display value="Θεμιστοκλής Λιναρδάκη"/>
            </patient>
            <occurrenceDateTime value="2023-11-22"/>
            <lotNumber value="HB-wvL7vP7"/>
            <expirationDate value="2024-09-21"/>
            <site>
               <coding>
                  <system value="http://snomed.info/sct"/>
                  <code value="368208006"/>
                  <display value="Left upper arm structure"/>
               </coding>
               <text value="Left upper arm structure"/>
            </site>
            <route>
               <coding>
                  <system value="http://snomed.info/sct"/>
                  <code value="34206005"/>
                  <display value="Subcutaneous route"/>
               </coding>
               <text value="Subcutaneous route"/>
            </route>
         </Immunization>
      </resource>
   </entry>
   <entry>
      <fullUrl value="urn:uuid:579bd9fb-e923-4c31-8ca4-2fa664315bbc"/>
      <resource>
         <Immunization>
            <id value="579bd9fb-e923-4c31-8ca4-2fa664315bbc"/>
            <meta>
               <profile value="http://hl7.org/fhir/uv/ips/StructureDefinition/Immunization-uv-ips"/>
            </meta>
            <text>
               <status value="generated"/>
               <div xmlns="http://www.w3.org/1999/xhtml">
                  <table class="hl7__ips">
                     <tr>
                        <td>SARS-CoV-2 mRNA vaccine</td>
                        <td>
                           <span class="nb">28-Apr-2021</span>
                        </td>
                     </tr>
                  </table>
               </div>
            </text>
            <status value="completed"/>
            <vaccineCode>
               <coding>
                  <system value="http://snomed.info/sct"/>
                  <code value="1119349007"/>
                  <display value="Vaccine product containing SARS-CoV-2 mRNA"/>
               </coding>
               <coding>
                  <system value="http://www.whocc.no/atc"/>
                  <code value="J07BX03"/>
                  <display value="COVID-19 mRNA vaccines"/>
               </coding>
               <text value="SARS-CoV-2 mRNA vaccine"/>
            </vaccineCode>
            <patient>
               <reference value="urn:uuid:430d9c55-ab93-4845-8adc-dc58c90b9d13"/>
               <display value="Θεμιστοκλής Λιναρδάκη"/>
            </patient>
            <occurrenceDateTime value="2021-04-28"/>
            <lotNumber value="SR-xaLAB3L"/>
            <expirationDate value="2022-02-07"/>
            <site>
               <coding>
                  <system value="http://snomed.info/sct"/>
                  <code value="244979005"/>
                  <display value="Entire muscle of upper arm"/>
               </coding>
               <text value="Entire muscle of upper arm"/>
            </site>
            <route>
               <coding>
                  <system value="http://snomed.info/sct"/>
                  <code value="78421000"/>
                  <display value="Intramuscular route"/>
               </coding>
               <text value="Intramuscular route"/>
            </route>
         </Immunization>
      </resource>
   </entry>
   <entry>
      <fullUrl value="urn:uuid:969a56f7-2311-436d-bcdf-66e3122166ec"/>
      <resource>
         <Procedure>
            <id value="969a56f7-2311-436d-bcdf-66e3122166ec"/>
            <meta>
               <profile value="http://hl7.org/fhir/uv/ips/StructureDefinition/Procedure-uv-ips"/>
            </meta>
            <text>
               <status value="generated"/>
               <div xmlns="http://www.w3.org/1999/xhtml">
                  <table class="hl7__ips">
                     <tr>
                        <td>Medication reconciliation</td>
                        <td>
                           <span class="nb">20-Dec-2023</span>
                        </td>
                        <td>-</td>
                     </tr>
                  </table>
               </div>
            </text>
            <status value="completed"/>
            <code>
               <coding>
                  <system value="http://snomed.info/sct"/>
                  <code value="430193006"/>
                  <display value="Medication Reconciliation (procedure)"/>
               </coding>
               <text value="Medication reconciliation"/>
            </code>
            <subject>
               <reference value="urn:uuid:"/>
               <display value="Θεμιστοκλής Λιναρδάκη"/>
            </subject>
            <performedDateTime value="2023-12-20"/>
         </Procedure>
      </resource>
   </entry>
   <entry>
      <fullUrl value="urn:uuid:53f3b05d-c966-4f8d-b06d-a76b0f2857d6"/>
      <resource>
         <Procedure>
            <id value="53f3b05d-c966-4f8d-b06d-a76b0f2857d6"/>
            <meta>
               <profile value="http://hl7.org/fhir/uv/ips/StructureDefinition/Procedure-uv-ips"/>
            </meta>
            <text>
               <status value="generated"/>
               <div xmlns="http://www.w3.org/1999/xhtml">
                  <table class="hl7__ips">
                     <tr>
                        <td>Depression screening</td>
                        <td>
                           <span class="nb">13-Dec-2023</span>
                        </td>
                        <td>-</td>
                     </tr>
                  </table>
               </div>
            </text>
            <status value="completed"/>
            <code>
               <coding>
                  <system value="http://snomed.info/sct"/>
                  <code value="171207006"/>
                  <display value="Depression screening (procedure)"/>
               </coding>
               <text value="Depression screening"/>
            </code>
            <subject>
               <reference value="urn:uuid:"/>
               <display value="Θεμιστοκλής Λιναρδάκη"/>
            </subject>
            <performedDateTime value="2023-12-13"/>
         </Procedure>
      </resource>
   </entry>
   <entry>
      <fullUrl value="urn:uuid:d75c0e61-869d-4146-84c8-b57107bcaae0"/>
      <resource>
         <Procedure>
            <id value="d75c0e61-869d-4146-84c8-b57107bcaae0"/>
            <meta>
               <profile value="http://hl7.org/fhir/uv/ips/StructureDefinition/Procedure-uv-ips"/>
            </meta>
            <text>
               <status value="generated"/>
               <div xmlns="http://www.w3.org/1999/xhtml">
                  <table class="hl7__ips">
                     <tr>
                        <td>Assessment of health and social care needs</td>
                        <td>
                           <span class="nb">13-Dec-2023</span>
                        </td>
                        <td>-</td>
                     </tr>
                  </table>
               </div>
            </text>
            <status value="completed"/>
            <code>
               <coding>
                  <system value="http://snomed.info/sct"/>
                  <code value="710824005"/>
                  <display value="Assessment of health and social care needs (procedure)"/>
               </coding>
               <text value="Assessment of health and social care needs"/>
            </code>
            <subject>
               <reference value="urn:uuid:"/>
               <display value="Θεμιστοκλής Λιναρδάκη"/>
            </subject>
            <performedDateTime value="2023-12-13"/>
         </Procedure>
      </resource>
   </entry>
   <entry>
      <fullUrl value="urn:uuid:d9b34d0b-b580-4abf-915c-536aa9aba045"/>
      <resource>
         <Procedure>
            <id value="d9b34d0b-b580-4abf-915c-536aa9aba045"/>
            <meta>
               <profile value="http://hl7.org/fhir/uv/ips/StructureDefinition/Procedure-uv-ips"/>
            </meta>
            <text>
               <status value="generated"/>
               <div xmlns="http://www.w3.org/1999/xhtml">
                  <table class="hl7__ips">
                     <tr>
                        <td>Depression screening using Patient Health Questionnaire Two-Item score (procedure)</td>
                        <td>
                           <span class="nb">13-Dec-2023</span>
                        </td>
                        <td>-</td>
                     </tr>
                  </table>
               </div>
            </text>
            <status value="completed"/>
            <code>
               <coding>
                  <system value="http://snomed.info/sct"/>
                  <code value="454711000124102"/>
                  <display value="Depression screening using Patient Health Questionnaire Two-Item score (procedure)"/>
               </coding>
            </code>
            <subject>
               <reference value="urn:uuid:"/>
               <display value="Θεμιστοκλής Λιναρδάκη"/>
            </subject>
            <performedDateTime value="2023-12-13"/>
         </Procedure>
      </resource>
   </entry>
   <entry>
      <fullUrl value="urn:uuid:2e1165d5-7b1d-4dfa-90f4-62360ef9a2c5"/>
      <resource>
         <Procedure>
            <id value="2e1165d5-7b1d-4dfa-90f4-62360ef9a2c5"/>
            <meta>
               <profile value="http://hl7.org/fhir/uv/ips/StructureDefinition/Procedure-uv-ips"/>
            </meta>
            <text>
               <status value="generated"/>
               <div xmlns="http://www.w3.org/1999/xhtml">
                  <table class="hl7__ips">
                     <tr>
                        <td>Assessment of anxiety</td>
                        <td>
                           <span class="nb">03-Aug-2022</span>
                        </td>
                        <td>-</td>
                     </tr>
                  </table>
               </div>
            </text>
            <status value="completed"/>
            <code>
               <coding>
                  <system value="http://snomed.info/sct"/>
                  <code value="710841007"/>
                  <display value="Assessment of anxiety (procedure)"/>
               </coding>
               <text value="Assessment of anxiety"/>
            </code>
            <subject>
               <reference value="urn:uuid:"/>
               <display value="Θεμιστοκλής Λιναρδάκη"/>
            </subject>
            <performedDateTime value="2022-08-03"/>
         </Procedure>
      </resource>
   </entry>
   <entry>
      <fullUrl value="urn:uuid:1a8a6dba-669a-45f1-a70e-cfd03f40f986"/>
      <resource>
         <Procedure>
            <id value="1a8a6dba-669a-45f1-a70e-cfd03f40f986"/>
            <meta>
               <profile value="http://hl7.org/fhir/uv/ips/StructureDefinition/Procedure-uv-ips"/>
            </meta>
            <text>
               <status value="generated"/>
               <div xmlns="http://www.w3.org/1999/xhtml">
                  <table class="hl7__ips">
                     <tr>
                        <td>Screening for drug abuse</td>
                        <td>
                           <span class="nb">20-Mar-2019</span>
                        </td>
                        <td>-</td>
                     </tr>
                  </table>
               </div>
            </text>
            <status value="completed"/>
            <code>
               <coding>
                  <system value="http://snomed.info/sct"/>
                  <code value="713106006"/>
                  <display value="Screening for drug abuse (procedure)"/>
               </coding>
               <text value="Screening for drug abuse"/>
            </code>
            <subject>
               <reference value="urn:uuid:"/>
               <display value="Θεμιστοκλής Λιναρδάκη"/>
            </subject>
            <performedDateTime value="2019-03-20"/>
         </Procedure>
      </resource>
   </entry>
   <entry>
      <fullUrl value="urn:uuid:cf242298-9701-4a49-9d69-7611a8585ad6"/>
      <resource>
         <Procedure>
            <id value="cf242298-9701-4a49-9d69-7611a8585ad6"/>
            <meta>
               <profile value="http://hl7.org/fhir/uv/ips/StructureDefinition/Procedure-uv-ips"/>
            </meta>
            <text>
               <status value="generated"/>
               <div xmlns="http://www.w3.org/1999/xhtml">
                  <table class="hl7__ips">
                     <tr>
                        <td>Screening for domestic abuse</td>
                        <td>
                           <span class="nb">20-Mar-2019</span>
                        </td>
                        <td>-</td>
                     </tr>
                  </table>
               </div>
            </text>
            <status value="completed"/>
            <code>
               <coding>
                  <system value="http://snomed.info/sct"/>
                  <code value="866148006"/>
                  <display value="Screening for domestic abuse (procedure)"/>
               </coding>
               <text value="Screening for domestic abuse"/>
            </code>
            <subject>
               <reference value="urn:uuid:"/>
               <display value="Θεμιστοκλής Λιναρδάκη"/>
            </subject>
            <performedDateTime value="2019-03-20"/>
         </Procedure>
      </resource>
   </entry>
   <entry>
      <fullUrl value="urn:uuid:9adb57ee-3278-4afc-957f-1a3a9ce8493d"/>
      <resource>
         <Procedure>
            <id value="9adb57ee-3278-4afc-957f-1a3a9ce8493d"/>
            <meta>
               <profile value="http://hl7.org/fhir/uv/ips/StructureDefinition/Procedure-uv-ips"/>
            </meta>
            <text>
               <status value="generated"/>
               <div xmlns="http://www.w3.org/1999/xhtml">
                  <table class="hl7__ips">
                     <tr>
                        <td>Assessment of substance use</td>
                        <td>
                           <span class="nb">20-Mar-2019</span>
                        </td>
                        <td>-</td>
                     </tr>
                  </table>
               </div>
            </text>
            <status value="completed"/>
            <code>
               <coding>
                  <system value="http://snomed.info/sct"/>
                  <code value="428211000124100"/>
                  <display value="Assessment of substance use (procedure)"/>
               </coding>
               <text value="Assessment of substance use"/>
            </code>
            <subject>
               <reference value="urn:uuid:"/>
               <display value="Θεμιστοκλής Λιναρδάκη"/>
            </subject>
            <performedDateTime value="2019-03-20"/>
         </Procedure>
      </resource>
   </entry>
   <entry>
      <fullUrl value="urn:uuid:0b1d5d8b-a87c-4308-bc85-810dae7a622b"/>
      <resource>
         <Procedure>
            <id value="0b1d5d8b-a87c-4308-bc85-810dae7a622b"/>
            <meta>
               <profile value="http://hl7.org/fhir/uv/ips/StructureDefinition/Procedure-uv-ips"/>
            </meta>
            <text>
               <status value="generated"/>
               <div xmlns="http://www.w3.org/1999/xhtml">
                  <table class="hl7__ips">
                     <tr>
                        <td>Depression screening using PHQ-9 (Patient Health Questionnaire 9) score</td>
                        <td>
                           <span class="nb">13-Feb-2019</span>
                        </td>
                        <td>-</td>
                     </tr>
                  </table>
               </div>
            </text>
            <status value="completed"/>
            <code>
               <coding>
                  <system value="http://snomed.info/sct"/>
                  <code value="715252007"/>
                  <display value="Depression screening using Patient Health Questionnaire Nine Item score (procedure)"/>
               </coding>
               <text value="Depression screening using PHQ-9 (Patient Health Questionnaire 9) score"/>
            </code>
            <subject>
               <reference value="urn:uuid:"/>
               <display value="Θεμιστοκλής Λιναρδάκη"/>
            </subject>
            <performedDateTime value="2019-02-13"/>
         </Procedure>
      </resource>
   </entry>
   <entry>
      <fullUrl value="urn:uuid:268dd0f3-1725-49b5-bd48-f507af2dd026"/>
      <resource>
         <AllergyIntolerance>
            <id value="268dd0f3-1725-49b5-bd48-f507af2dd026"/>
            <meta>
               <profile value="http://hl7.eu/fhir/eps/StructureDefinition/allergyIntolerance-eu-eps"/>
            </meta>
            <text>
               <status value="generated"/>
               <div xmlns="http://www.w3.org/1999/xhtml">
                  <table class="hl7__ips">
                     <tr>
                        <th>Allergy/Intolerance</th>
                        <th>Onset Date</th>
                        <th>Status</th>
                        <th>Type</th>
                        <th>Reaction</th>
                     </tr>
                     <tr>
                        <td/>
                        <td>?</td>
                        <td>active</td>
                        <td>?</td>
                        <td/>
                     </tr>
                  </table>
               </div>
            </text>
            <clinicalStatus>
               <coding>
                  <system value="http://terminology.hl7.org/CodeSystem/allergyintolerance-clinical"/>
                  <code value="active"/>
               </coding>
            </clinicalStatus>
            <verificationStatus>
               <coding>
                  <system value="http://terminology.hl7.org/CodeSystem/allergyintolerance-verification"/>
                  <code value="confirmed"/>
               </coding>
            </verificationStatus>
            <code>
               <text/>
            </code>
            <patient>
               <reference value="urn:uuid:430d9c55-ab93-4845-8adc-dc58c90b9d13"/>
               <display value="Θεμιστοκλής Λιναρδάκη"/>
            </patient>
            <onsetDateTime>
               <extension url="http://hl7.org/fhir/StructureDefinition/data-absent-reason">
                  <valueCode value="unknown"/>
               </extension>
            </onsetDateTime>
         </AllergyIntolerance>
      </resource>
   </entry>
   <entry>
      <fullUrl value="urn:uuid:0b557dc2-7f0d-4c78-90eb-c9143126e25a"/>
      <resource>
         <CarePlan>
            <id value="0b557dc2-7f0d-4c78-90eb-c9143126e25a"/>
            <text>
               <status value="generated"/>
               <div xmlns="http://www.w3.org/1999/xhtml">
                  <table class="hl7__ips first25">
                     <tr>
                        <th>Active Planned Care / Goals</th>
                        <th>Start Date</th>
                        <th>Reason</th>
                     </tr>
                     <tr>
                        <td>Lifestyle education regarding hypertension</td>
                        <td>
                           <span class="nb">01-Jul-1998</span>
                        </td>
                        <td>Essential hypertension (disorder)</td>
                     </tr>
                     <tr>
                        <td>
                           <ul>
                              <li>Maintain blood pressure below 130/80 mmHg to reduce risk of cardiovascular and renal complications.</li>
                              <li>Achieve at least 5% reduction in body weight to improve blood pressure control.</li>
                              <li>Limit sodium intake to less than 2.3 grams per day to support blood pressure management.</li>
                              <li>Engage in at least 150 minutes per week of moderate-intensity aerobic physical activity.</li>
                           </ul>
                        </td>
                        <td/>
                        <td/>
                     </tr>
                  </table>
               </div>
            </text>
            <status value="active"/>
            <intent value="plan"/>
            <category>
               <coding>
                  <system value="http://terminology.hl7.org/CodeSystem/care-plan-category"/>
                  <code value="assess-plan"/>
                  <display value="Assessment and Plan"/>
               </coding>
            </category>
            <subject>
               <reference value="urn:uuid:430d9c55-ab93-4845-8adc-dc58c90b9d13"/>
               <display value="Θεμιστοκλής Λιναρδάκη"/>
            </subject>
            <period>
               <start value="1998-07-01"/>
            </period>
            <goal>
               <reference value="urn:uuid:8cdd73d9-5e8b-4f82-960a-8611ea0208cb"/>
            </goal>
            <goal>
               <reference value="urn:uuid:f3f40933-6a93-4841-9358-7c3d2cde62a4"/>
            </goal>
            <goal>
               <reference value="urn:uuid:43d7a178-73ec-4c25-8f82-7f568b6f7b50"/>
            </goal>
            <goal>
               <reference value="urn:uuid:4f63b0d1-7eec-4581-b0d2-a735f91c1da4"/>
            </goal>
            <activity>
               <detail>
                  <kind value="Appointment"/>
                  <code>
                     <coding>
                        <system value="http://snomed.info/sct"/>
                        <code value="443402002"/>
                        <display value="Lifestyle education regarding hypertension (procedure)"/>
                     </coding>
                  </code>
                  <reasonCode>
                     <coding>
                        <system value="http://snomed.info/sct"/>
                        <code value="59621000"/>
                        <display value="Essential hypertension (disorder)"/>
                     </coding>
                  </reasonCode>
                  <status value="unknown"/>
                  <description value="Lifestyle education regarding hypertension"/>
               </detail>
            </activity>
         </CarePlan>
      </resource>
   </entry>
   <entry>
      <fullUrl value="urn:uuid:6dab3610-82be-4568-9b05-3fe152ae2a44"/>
      <resource>
         <CarePlan>
            <id value="6dab3610-82be-4568-9b05-3fe152ae2a44"/>
            <text>
               <status value="generated"/>
               <div xmlns="http://www.w3.org/1999/xhtml">
                  <table class="hl7__ips first25">
                     <tr>
                        <th>Active Planned Care / Goals</th>
                        <th>Start Date</th>
                        <th>Reason</th>
                     </tr>
                     <tr>
                        <td>Diabetes self management plan</td>
                        <td>
                           <span class="nb">26-Jan-1994</span>
                        </td>
                        <td>Prediabetes</td>
                     </tr>
                     <tr>
                        <td>
                           <ul>
                              <li>Patient will participate in a diabetes self-management program to improve knowledge and skills for prediabetes management.</li>
                              <li>Patient will achieve a 5% reduction in baseline body weight to reduce risk of progression to diabetes.</li>
                              <li>Patient will maintain hemoglobin A1c below 6.5% to prevent progression to diabetes.</li>
                              <li>Patient will engage in at least 150 minutes per week of moderate-intensity physical activity.</li>
                              <li>Patient will follow a diet low in refined carbohydrates and saturated fats to support glycemic control.</li>
                           </ul>
                        </td>
                        <td/>
                        <td/>
                     </tr>
                  </table>
               </div>
            </text>
            <status value="active"/>
            <intent value="plan"/>
            <category>
               <coding>
                  <system value="http://terminology.hl7.org/CodeSystem/care-plan-category"/>
                  <code value="assess-plan"/>
                  <display value="Assessment and Plan"/>
               </coding>
            </category>
            <subject>
               <reference value="urn:uuid:430d9c55-ab93-4845-8adc-dc58c90b9d13"/>
               <display value="Θεμιστοκλής Λιναρδάκη"/>
            </subject>
            <period>
               <start value="1994-01-26"/>
            </period>
            <goal>
               <reference value="urn:uuid:1383fad9-c24f-4f3a-bc25-c302772be3e2"/>
            </goal>
            <goal>
               <reference value="urn:uuid:e125adb2-83fa-4a76-b022-de3b01a3173d"/>
            </goal>
            <goal>
               <reference value="urn:uuid:b32c2799-3792-4b71-897c-1a5b4ff44dc3"/>
            </goal>
            <goal>
               <reference value="urn:uuid:1b037a6a-4d0e-4746-ac8f-c89b8b0069ea"/>
            </goal>
            <goal>
               <reference value="urn:uuid:842d11af-6dca-4760-9ed2-c703fceb02c3"/>
            </goal>
            <activity>
               <detail>
                  <kind value="Appointment"/>
                  <code>
                     <coding>
                        <system value="http://snomed.info/sct"/>
                        <code value="698360004"/>
                        <display value="Diabetes self management plan (qualifier value)"/>
                     </coding>
                  </code>
                  <reasonCode>
                     <coding>
                        <system value="http://snomed.info/sct"/>
                        <code value="15777000"/>
                        <display value="Prediabetes"/>
                     </coding>
                  </reasonCode>
                  <status value="unknown"/>
                  <description value="Diabetes self management plan"/>
               </detail>
            </activity>
         </CarePlan>
      </resource>
   </entry>
   <entry>
      <fullUrl value="urn:uuid:87a7df0f-7344-4c83-8429-61e8cf5c369f"/>
      <resource>
         <Observation>
            <id value="87a7df0f-7344-4c83-8429-61e8cf5c369f"/>
            <meta>
               <profile value="http://hl7.org/fhir/StructureDefinition/vitalsigns"/>
            </meta>
            <text>
               <status value="generated"/>
               <div xmlns="http://www.w3.org/1999/xhtml">
                  <table class="hl7__ips">
                     <tr>
                        <th>Vital Sign</th>
                        <th>Date</th>
                        <th>Measurement</th>
                     </tr>
                     <tr>
                        <td>Body Height</td>
                        <td>18-Jun-2025</td>
                        <td>187.3 cm</td>
                     </tr>
                  </table>
               </div>
            </text>
            <status value="final"/>
            <category>
               <coding>
                  <system value="http://terminology.hl7.org/CodeSystem/observation-category"/>
                  <code value="vital-signs"/>
                  <display value="Vital Signs"/>
               </coding>
            </category>
            <code>
               <coding>
                  <system value="http://loinc.org"/>
                  <code value="$8302-2"/>
                  <display value="Body Height"/>
               </coding>
            </code>
            <subject>
               <reference value="urn:uuid:430d9c55-ab93-4845-8adc-dc58c90b9d13"/>
               <display value="Θεμιστοκλής Λιναρδάκη"/>
            </subject>
            <effectiveDateTime value="2025-06-18"/>
            <valueQuantity>
               <value value="187.3"/>
               <unit value="cm"/>
               <code value="cm"/>
            </valueQuantity>
         </Observation>
      </resource>
   </entry>
   <entry>
      <fullUrl value="urn:uuid:46a56b0a-f143-4cfb-ab66-1a42fb4a0593"/>
      <resource>
         <Observation>
            <id value="46a56b0a-f143-4cfb-ab66-1a42fb4a0593"/>
            <meta>
               <profile value="http://hl7.org/fhir/StructureDefinition/vitalsigns"/>
            </meta>
            <text>
               <status value="generated"/>
               <div xmlns="http://www.w3.org/1999/xhtml">
                  <table class="hl7__ips">
                     <tr>
                        <th>Vital Sign</th>
                        <th>Date</th>
                        <th>Measurement</th>
                     </tr>
                     <tr>
                        <td>Pain severity - 0-10 verbal numeric rating [Score] - Reported</td>
                        <td>18-Jun-2025</td>
                        <td>0 {score}</td>
                     </tr>
                  </table>
               </div>
            </text>
            <status value="final"/>
            <category>
               <coding>
                  <system value="http://terminology.hl7.org/CodeSystem/observation-category"/>
                  <code value="vital-signs"/>
                  <display value="Vital Signs"/>
               </coding>
            </category>
            <code>
               <coding>
                  <system value="http://loinc.org"/>
                  <code value="$72514-3"/>
                  <display value="Pain severity - 0-10 verbal numeric rating [Score] - Reported"/>
               </coding>
            </code>
            <subject>
               <reference value="urn:uuid:430d9c55-ab93-4845-8adc-dc58c90b9d13"/>
               <display value="Θεμιστοκλής Λιναρδάκη"/>
            </subject>
            <effectiveDateTime value="2025-06-18"/>
            <valueQuantity>
               <value value="0"/>
               <unit value="{score}"/>
               <code value="{score}"/>
            </valueQuantity>
         </Observation>
      </resource>
   </entry>
   <entry>
      <fullUrl value="urn:uuid:58de3d17-cd09-45ac-9ddb-df6329fc9dfd"/>
      <resource>
         <Observation>
            <id value="58de3d17-cd09-45ac-9ddb-df6329fc9dfd"/>
            <meta>
               <profile value="http://hl7.org/fhir/StructureDefinition/vitalsigns"/>
            </meta>
            <text>
               <status value="generated"/>
               <div xmlns="http://www.w3.org/1999/xhtml">
                  <table class="hl7__ips">
                     <tr>
                        <th>Vital Sign</th>
                        <th>Date</th>
                        <th>Measurement</th>
                     </tr>
                     <tr>
                        <td>Body Weight</td>
                        <td>18-Jun-2025</td>
                        <td>101.8 kg</td>
                     </tr>
                  </table>
               </div>
            </text>
            <status value="final"/>
            <category>
               <coding>
                  <system value="http://terminology.hl7.org/CodeSystem/observation-category"/>
                  <code value="vital-signs"/>
                  <display value="Vital Signs"/>
               </coding>
            </category>
            <code>
               <coding>
                  <system value="http://loinc.org"/>
                  <code value="$29463-7"/>
                  <display value="Body Weight"/>
               </coding>
            </code>
            <subject>
               <reference value="urn:uuid:430d9c55-ab93-4845-8adc-dc58c90b9d13"/>
               <display value="Θεμιστοκλής Λιναρδάκη"/>
            </subject>
            <effectiveDateTime value="2025-06-18"/>
            <valueQuantity>
               <value value="101.8"/>
               <unit value="kg"/>
               <code value="kg"/>
            </valueQuantity>
         </Observation>
      </resource>
   </entry>
   <entry>
      <fullUrl value="urn:uuid:a61945b7-4710-4d86-bddd-64f60e423c87"/>
      <resource>
         <Observation>
            <id value="a61945b7-4710-4d86-bddd-64f60e423c87"/>
            <meta>
               <profile value="http://hl7.org/fhir/StructureDefinition/vitalsigns"/>
            </meta>
            <text>
               <status value="generated"/>
               <div xmlns="http://www.w3.org/1999/xhtml">
                  <table class="hl7__ips">
                     <tr>
                        <th>Vital Sign</th>
                        <th>Date</th>
                        <th>Measurement</th>
                     </tr>
                     <tr>
                        <td>Body mass index (BMI) [Ratio]</td>
                        <td>18-Jun-2025</td>
                        <td>29 kg/m2</td>
                     </tr>
                  </table>
               </div>
            </text>
            <status value="final"/>
            <category>
               <coding>
                  <system value="http://terminology.hl7.org/CodeSystem/observation-category"/>
                  <code value="vital-signs"/>
                  <display value="Vital Signs"/>
               </coding>
            </category>
            <code>
               <coding>
                  <system value="http://loinc.org"/>
                  <code value="$39156-5"/>
                  <display value="Body mass index (BMI) [Ratio]"/>
               </coding>
            </code>
            <subject>
               <reference value="urn:uuid:430d9c55-ab93-4845-8adc-dc58c90b9d13"/>
               <display value="Θεμιστοκλής Λιναρδάκη"/>
            </subject>
            <effectiveDateTime value="2025-06-18"/>
            <valueQuantity>
               <value value="29"/>
               <unit value="kg/m2"/>
               <code value="kg/m2"/>
            </valueQuantity>
         </Observation>
      </resource>
   </entry>
   <entry>
      <fullUrl value="urn:uuid:eaac3a46-ac73-45ce-bcf0-abce0a8da6c6"/>
      <resource>
         <Observation>
            <id value="eaac3a46-ac73-45ce-bcf0-abce0a8da6c6"/>
            <meta>
               <profile value="http://hl7.org/fhir/StructureDefinition/vitalsigns"/>
            </meta>
            <text>
               <status value="generated"/>
               <div xmlns="http://www.w3.org/1999/xhtml">
                  <table class="hl7__ips">
                     <tr>
                        <th>Vital Sign</th>
                        <th>Date</th>
                        <th>Measurement</th>
                     </tr>
                     <tr>
                        <td>Diastolic Blood Pressure</td>
                        <td>18-Jun-2025</td>
                        <td>78 mm[Hg]</td>
                     </tr>
                  </table>
               </div>
            </text>
            <status value="final"/>
            <category>
               <coding>
                  <system value="http://terminology.hl7.org/CodeSystem/observation-category"/>
                  <code value="vital-signs"/>
                  <display value="Vital Signs"/>
               </coding>
            </category>
            <code>
               <coding>
                  <system value="http://loinc.org"/>
                  <code value="$8462-4"/>
                  <display value="Diastolic Blood Pressure"/>
               </coding>
            </code>
            <subject>
               <reference value="urn:uuid:430d9c55-ab93-4845-8adc-dc58c90b9d13"/>
               <display value="Θεμιστοκλής Λιναρδάκη"/>
            </subject>
            <effectiveDateTime value="2025-06-18"/>
            <valueQuantity>
               <value value="78"/>
               <unit value="mm[Hg]"/>
               <code value="mm[Hg]"/>
            </valueQuantity>
         </Observation>
      </resource>
   </entry>
   <entry>
      <fullUrl value="urn:uuid:bba5c8b7-21a4-4032-895a-e8c891877a3f"/>
      <resource>
         <Observation>
            <id value="bba5c8b7-21a4-4032-895a-e8c891877a3f"/>
            <meta>
               <profile value="http://hl7.org/fhir/StructureDefinition/vitalsigns"/>
            </meta>
            <text>
               <status value="generated"/>
               <div xmlns="http://www.w3.org/1999/xhtml">
                  <table class="hl7__ips">
                     <tr>
                        <th>Vital Sign</th>
                        <th>Date</th>
                        <th>Measurement</th>
                     </tr>
                     <tr>
                        <td>Systolic Blood Pressure</td>
                        <td>18-Jun-2025</td>
                        <td>102 mm[Hg]</td>
                     </tr>
                  </table>
               </div>
            </text>
            <status value="final"/>
            <category>
               <coding>
                  <system value="http://terminology.hl7.org/CodeSystem/observation-category"/>
                  <code value="vital-signs"/>
                  <display value="Vital Signs"/>
               </coding>
            </category>
            <code>
               <coding>
                  <system value="http://loinc.org"/>
                  <code value="$8480-6"/>
                  <display value="Systolic Blood Pressure"/>
               </coding>
            </code>
            <subject>
               <reference value="urn:uuid:430d9c55-ab93-4845-8adc-dc58c90b9d13"/>
               <display value="Θεμιστοκλής Λιναρδάκη"/>
            </subject>
            <effectiveDateTime value="2025-06-18"/>
            <valueQuantity>
               <value value="102"/>
               <unit value="mm[Hg]"/>
               <code value="mm[Hg]"/>
            </valueQuantity>
         </Observation>
      </resource>
   </entry>
   <entry>
      <fullUrl value="urn:uuid:0621cd74-78ad-4df9-9a50-fa431d3e0bf3"/>
      <resource>
         <Observation>
            <id value="0621cd74-78ad-4df9-9a50-fa431d3e0bf3"/>
            <meta>
               <profile value="http://hl7.org/fhir/StructureDefinition/vitalsigns"/>
            </meta>
            <text>
               <status value="generated"/>
               <div xmlns="http://www.w3.org/1999/xhtml">
                  <table class="hl7__ips">
                     <tr>
                        <th>Vital Sign</th>
                        <th>Date</th>
                        <th>Measurement</th>
                     </tr>
                     <tr>
                        <td>Heart rate</td>
                        <td>18-Jun-2025</td>
                        <td>95 /min</td>
                     </tr>
                  </table>
               </div>
            </text>
            <status value="final"/>
            <category>
               <coding>
                  <system value="http://terminology.hl7.org/CodeSystem/observation-category"/>
                  <code value="vital-signs"/>
                  <display value="Vital Signs"/>
               </coding>
            </category>
            <code>
               <coding>
                  <system value="http://loinc.org"/>
                  <code value="$8867-4"/>
                  <display value="Heart rate"/>
               </coding>
            </code>
            <subject>
               <reference value="urn:uuid:430d9c55-ab93-4845-8adc-dc58c90b9d13"/>
               <display value="Θεμιστοκλής Λιναρδάκη"/>
            </subject>
            <effectiveDateTime value="2025-06-18"/>
            <valueQuantity>
               <value value="95"/>
               <unit value="/min"/>
               <code value="/min"/>
            </valueQuantity>
         </Observation>
      </resource>
   </entry>
   <entry>
      <fullUrl value="urn:uuid:56c21a7c-9465-4803-8c64-b5107b31a743"/>
      <resource>
         <Observation>
            <id value="56c21a7c-9465-4803-8c64-b5107b31a743"/>
            <meta>
               <profile value="http://hl7.org/fhir/StructureDefinition/vitalsigns"/>
            </meta>
            <text>
               <status value="generated"/>
               <div xmlns="http://www.w3.org/1999/xhtml">
                  <table class="hl7__ips">
                     <tr>
                        <th>Vital Sign</th>
                        <th>Date</th>
                        <th>Measurement</th>
                     </tr>
                     <tr>
                        <td>Respiratory rate</td>
                        <td>18-Jun-2025</td>
                        <td>12 /min</td>
                     </tr>
                  </table>
               </div>
            </text>
            <status value="final"/>
            <category>
               <coding>
                  <system value="http://terminology.hl7.org/CodeSystem/observation-category"/>
                  <code value="vital-signs"/>
                  <display value="Vital Signs"/>
               </coding>
            </category>
            <code>
               <coding>
                  <system value="http://loinc.org"/>
                  <code value="$9279-1"/>
                  <display value="Respiratory rate"/>
               </coding>
            </code>
            <subject>
               <reference value="urn:uuid:430d9c55-ab93-4845-8adc-dc58c90b9d13"/>
               <display value="Θεμιστοκλής Λιναρδάκη"/>
            </subject>
            <effectiveDateTime value="2025-06-18"/>
            <valueQuantity>
               <value value="12"/>
               <unit value="/min"/>
               <code value="/min"/>
            </valueQuantity>
         </Observation>
      </resource>
   </entry>
   <entry>
      <fullUrl value="urn:uuid:4454e867-40a3-4071-b46f-9ad0cc4eae1f"/>
      <resource>
         <Observation>
            <id value="4454e867-40a3-4071-b46f-9ad0cc4eae1f"/>
            <meta>
               <profile value="http://hl7.org/fhir/StructureDefinition/vitalsigns"/>
            </meta>
            <text>
               <status value="generated"/>
               <div xmlns="http://www.w3.org/1999/xhtml">
                  <table class="hl7__ips">
                     <tr>
                        <th>Vital Sign</th>
                        <th>Date</th>
                        <th>Measurement</th>
                     </tr>
                     <tr>
                        <td>Body Height</td>
                        <td>23-Apr-2025</td>
                        <td>187.3 cm</td>
                     </tr>
                  </table>
               </div>
            </text>
            <status value="final"/>
            <category>
               <coding>
                  <system value="http://terminology.hl7.org/CodeSystem/observation-category"/>
                  <code value="vital-signs"/>
                  <display value="Vital Signs"/>
               </coding>
            </category>
            <code>
               <coding>
                  <system value="http://loinc.org"/>
                  <code value="$8302-2"/>
                  <display value="Body Height"/>
               </coding>
            </code>
            <subject>
               <reference value="urn:uuid:430d9c55-ab93-4845-8adc-dc58c90b9d13"/>
               <display value="Θεμιστοκλής Λιναρδάκη"/>
            </subject>
            <effectiveDateTime value="2025-04-23"/>
            <valueQuantity>
               <value value="187.3"/>
               <unit value="cm"/>
               <code value="cm"/>
            </valueQuantity>
         </Observation>
      </resource>
   </entry>
   <entry>
      <fullUrl value="urn:uuid:446db8e9-af5f-498e-af92-48e5d8b4bba7"/>
      <resource>
         <Observation>
            <id value="446db8e9-af5f-498e-af92-48e5d8b4bba7"/>
            <meta>
               <profile value="http://hl7.org/fhir/StructureDefinition/vitalsigns"/>
            </meta>
            <text>
               <status value="generated"/>
               <div xmlns="http://www.w3.org/1999/xhtml">
                  <table class="hl7__ips">
                     <tr>
                        <th>Vital Sign</th>
                        <th>Date</th>
                        <th>Measurement</th>
                     </tr>
                     <tr>
                        <td>Pain severity - 0-10 verbal numeric rating [Score] - Reported</td>
                        <td>23-Apr-2025</td>
                        <td>3 {score}</td>
                     </tr>
                  </table>
               </div>
            </text>
            <status value="final"/>
            <category>
               <coding>
                  <system value="http://terminology.hl7.org/CodeSystem/observation-category"/>
                  <code value="vital-signs"/>
                  <display value="Vital Signs"/>
               </coding>
            </category>
            <code>
               <coding>
                  <system value="http://loinc.org"/>
                  <code value="$72514-3"/>
                  <display value="Pain severity - 0-10 verbal numeric rating [Score] - Reported"/>
               </coding>
            </code>
            <subject>
               <reference value="urn:uuid:430d9c55-ab93-4845-8adc-dc58c90b9d13"/>
               <display value="Θεμιστοκλής Λιναρδάκη"/>
            </subject>
            <effectiveDateTime value="2025-04-23"/>
            <valueQuantity>
               <value value="3"/>
               <unit value="{score}"/>
               <code value="{score}"/>
            </valueQuantity>
         </Observation>
      </resource>
   </entry>
   <entry>
      <fullUrl value="urn:uuid:59d03ce8-ce75-434e-9f31-fe32dd701f3a"/>
      <resource>
         <Observation>
            <id value="59d03ce8-ce75-434e-9f31-fe32dd701f3a"/>
            <meta>
               <profile value="http://hl7.org/fhir/StructureDefinition/vitalsigns"/>
            </meta>
            <text>
               <status value="generated"/>
               <div xmlns="http://www.w3.org/1999/xhtml">
                  <table class="hl7__ips">
                     <tr>
                        <th>Vital Sign</th>
                        <th>Date</th>
                        <th>Measurement</th>
                     </tr>
                     <tr>
                        <td>Body Weight</td>
                        <td>23-Apr-2025</td>
                        <td>101.5 kg</td>
                     </tr>
                  </table>
               </div>
            </text>
            <status value="final"/>
            <category>
               <coding>
                  <system value="http://terminology.hl7.org/CodeSystem/observation-category"/>
                  <code value="vital-signs"/>
                  <display value="Vital Signs"/>
               </coding>
            </category>
            <code>
               <coding>
                  <system value="http://loinc.org"/>
                  <code value="$29463-7"/>
                  <display value="Body Weight"/>
               </coding>
            </code>
            <subject>
               <reference value="urn:uuid:430d9c55-ab93-4845-8adc-dc58c90b9d13"/>
               <display value="Θεμιστοκλής Λιναρδάκη"/>
            </subject>
            <effectiveDateTime value="2025-04-23"/>
            <valueQuantity>
               <value value="101.5"/>
               <unit value="kg"/>
               <code value="kg"/>
            </valueQuantity>
         </Observation>
      </resource>
   </entry>
   <entry>
      <fullUrl value="urn:uuid:e2cee620-fd68-46aa-8122-29c0d56a757b"/>
      <resource>
         <Observation>
            <id value="e2cee620-fd68-46aa-8122-29c0d56a757b"/>
            <meta>
               <profile value="http://hl7.org/fhir/StructureDefinition/vitalsigns"/>
            </meta>
            <text>
               <status value="generated"/>
               <div xmlns="http://www.w3.org/1999/xhtml">
                  <table class="hl7__ips">
                     <tr>
                        <th>Vital Sign</th>
                        <th>Date</th>
                        <th>Measurement</th>
                     </tr>
                     <tr>
                        <td>Body mass index (BMI) [Ratio]</td>
                        <td>23-Apr-2025</td>
                        <td>28.9 kg/m2</td>
                     </tr>
                  </table>
               </div>
            </text>
            <status value="final"/>
            <category>
               <coding>
                  <system value="http://terminology.hl7.org/CodeSystem/observation-category"/>
                  <code value="vital-signs"/>
                  <display value="Vital Signs"/>
               </coding>
            </category>
            <code>
               <coding>
                  <system value="http://loinc.org"/>
                  <code value="$39156-5"/>
                  <display value="Body mass index (BMI) [Ratio]"/>
               </coding>
            </code>
            <subject>
               <reference value="urn:uuid:430d9c55-ab93-4845-8adc-dc58c90b9d13"/>
               <display value="Θεμιστοκλής Λιναρδάκη"/>
            </subject>
            <effectiveDateTime value="2025-04-23"/>
            <valueQuantity>
               <value value="28.9"/>
               <unit value="kg/m2"/>
               <code value="kg/m2"/>
            </valueQuantity>
         </Observation>
      </resource>
   </entry>
   <entry>
      <fullUrl value="urn:uuid:176abccf-a12c-4ef0-be99-4fa94a7d84ac"/>
      <resource>
         <Observation>
            <id value="176abccf-a12c-4ef0-be99-4fa94a7d84ac"/>
            <meta>
               <profile value="http://hl7.org/fhir/StructureDefinition/vitalsigns"/>
            </meta>
            <text>
               <status value="generated"/>
               <div xmlns="http://www.w3.org/1999/xhtml">
                  <table class="hl7__ips">
                     <tr>
                        <th>Vital Sign</th>
                        <th>Date</th>
                        <th>Measurement</th>
                     </tr>
                     <tr>
                        <td>Diastolic Blood Pressure</td>
                        <td>23-Apr-2025</td>
                        <td>82 mm[Hg]</td>
                     </tr>
                  </table>
               </div>
            </text>
            <status value="final"/>
            <category>
               <coding>
                  <system value="http://terminology.hl7.org/CodeSystem/observation-category"/>
                  <code value="vital-signs"/>
                  <display value="Vital Signs"/>
               </coding>
            </category>
            <code>
               <coding>
                  <system value="http://loinc.org"/>
                  <code value="$8462-4"/>
                  <display value="Diastolic Blood Pressure"/>
               </coding>
            </code>
            <subject>
               <reference value="urn:uuid:430d9c55-ab93-4845-8adc-dc58c90b9d13"/>
               <display value="Θεμιστοκλής Λιναρδάκη"/>
            </subject>
            <effectiveDateTime value="2025-04-23"/>
            <valueQuantity>
               <value value="82"/>
               <unit value="mm[Hg]"/>
               <code value="mm[Hg]"/>
            </valueQuantity>
         </Observation>
      </resource>
   </entry>
   <entry>
      <fullUrl value="urn:uuid:0f692ff3-893b-4d79-8b7d-e7c6e4c50d8c"/>
      <resource>
         <Observation>
            <id value="0f692ff3-893b-4d79-8b7d-e7c6e4c50d8c"/>
            <meta>
               <profile value="http://hl7.org/fhir/StructureDefinition/vitalsigns"/>
            </meta>
            <text>
               <status value="generated"/>
               <div xmlns="http://www.w3.org/1999/xhtml">
                  <table class="hl7__ips">
                     <tr>
                        <th>Vital Sign</th>
                        <th>Date</th>
                        <th>Measurement</th>
                     </tr>
                     <tr>
                        <td>Systolic Blood Pressure</td>
                        <td>23-Apr-2025</td>
                        <td>95 mm[Hg]</td>
                     </tr>
                  </table>
               </div>
            </text>
            <status value="final"/>
            <category>
               <coding>
                  <system value="http://terminology.hl7.org/CodeSystem/observation-category"/>
                  <code value="vital-signs"/>
                  <display value="Vital Signs"/>
               </coding>
            </category>
            <code>
               <coding>
                  <system value="http://loinc.org"/>
                  <code value="$8480-6"/>
                  <display value="Systolic Blood Pressure"/>
               </coding>
            </code>
            <subject>
               <reference value="urn:uuid:430d9c55-ab93-4845-8adc-dc58c90b9d13"/>
               <display value="Θεμιστοκλής Λιναρδάκη"/>
            </subject>
            <effectiveDateTime value="2025-04-23"/>
            <valueQuantity>
               <value value="95"/>
               <unit value="mm[Hg]"/>
               <code value="mm[Hg]"/>
            </valueQuantity>
         </Observation>
      </resource>
   </entry>
   <entry>
      <fullUrl value="urn:uuid:12f4ba3b-88c9-4f10-826e-c710142e2e70"/>
      <resource>
         <Observation>
            <id value="12f4ba3b-88c9-4f10-826e-c710142e2e70"/>
            <meta>
               <profile value="http://hl7.org/fhir/StructureDefinition/vitalsigns"/>
            </meta>
            <text>
               <status value="generated"/>
               <div xmlns="http://www.w3.org/1999/xhtml">
                  <table class="hl7__ips">
                     <tr>
                        <th>Vital Sign</th>
                        <th>Date</th>
                        <th>Measurement</th>
                     </tr>
                     <tr>
                        <td>Heart rate</td>
                        <td>23-Apr-2025</td>
                        <td>94 /min</td>
                     </tr>
                  </table>
               </div>
            </text>
            <status value="final"/>
            <category>
               <coding>
                  <system value="http://terminology.hl7.org/CodeSystem/observation-category"/>
                  <code value="vital-signs"/>
                  <display value="Vital Signs"/>
               </coding>
            </category>
            <code>
               <coding>
                  <system value="http://loinc.org"/>
                  <code value="$8867-4"/>
                  <display value="Heart rate"/>
               </coding>
            </code>
            <subject>
               <reference value="urn:uuid:430d9c55-ab93-4845-8adc-dc58c90b9d13"/>
               <display value="Θεμιστοκλής Λιναρδάκη"/>
            </subject>
            <effectiveDateTime value="2025-04-23"/>
            <valueQuantity>
               <value value="94"/>
               <unit value="/min"/>
               <code value="/min"/>
            </valueQuantity>
         </Observation>
      </resource>
   </entry>
   <entry>
      <fullUrl value="urn:uuid:a34fca39-aeb6-41ce-adee-1b24000bb77a"/>
      <resource>
         <Observation>
            <id value="a34fca39-aeb6-41ce-adee-1b24000bb77a"/>
            <meta>
               <profile value="http://hl7.org/fhir/StructureDefinition/vitalsigns"/>
            </meta>
            <text>
               <status value="generated"/>
               <div xmlns="http://www.w3.org/1999/xhtml">
                  <table class="hl7__ips">
                     <tr>
                        <th>Vital Sign</th>
                        <th>Date</th>
                        <th>Measurement</th>
                     </tr>
                     <tr>
                        <td>Respiratory rate</td>
                        <td>23-Apr-2025</td>
                        <td>15 /min</td>
                     </tr>
                  </table>
               </div>
            </text>
            <status value="final"/>
            <category>
               <coding>
                  <system value="http://terminology.hl7.org/CodeSystem/observation-category"/>
                  <code value="vital-signs"/>
                  <display value="Vital Signs"/>
               </coding>
            </category>
            <code>
               <coding>
                  <system value="http://loinc.org"/>
                  <code value="$9279-1"/>
                  <display value="Respiratory rate"/>
               </coding>
            </code>
            <subject>
               <reference value="urn:uuid:430d9c55-ab93-4845-8adc-dc58c90b9d13"/>
               <display value="Θεμιστοκλής Λιναρδάκη"/>
            </subject>
            <effectiveDateTime value="2025-04-23"/>
            <valueQuantity>
               <value value="15"/>
               <unit value="/min"/>
               <code value="/min"/>
            </valueQuantity>
         </Observation>
      </resource>
   </entry>
   <entry>
      <fullUrl value="urn:uuid:a1126f69-7369-4191-a77f-ca11decad579"/>
      <resource>
         <Observation>
            <id value="a1126f69-7369-4191-a77f-ca11decad579"/>
            <meta>
               <profile value="http://hl7.eu/fhir/laboratory/StructureDefinition/Observation-resultslab-eu-lab"/>
            </meta>
            <text>
               <status value="generated"/>
               <div xmlns="http://www.w3.org/1999/xhtml">
                  <table class="hl7__eu__lab__report">
                     <tr>
                        <th>Test</th>
                        <th>18-Jun-2025</th>
                        <th>Reference Range</th>
                        <th>Unit</th>
                     </tr>
                     <tr>
                        <td>Glucose [Mass/volume] in Serum or Plasma</td>
                        <td>68.6</td>
                        <td>70 - 140</td>
                        <td>L</td>
                        <td>mg/dL</td>
                     </tr>
                  </table>
               </div>
            </text>
            <status value="final"/>
            <category>
               <coding>
                  <system value="http://terminology.hl7.org/CodeSystem/observation-category"/>
                  <code value="laboratory"/>
               </coding>
            </category>
            <code>
               <coding>
                  <system value="http://loinc.org"/>
                  <code value="2345-7"/>
                  <display value="Glucose [Mass/volume] in Serum or Plasma"/>
               </coding>
               <text value="Glucose [Mass/volume] in Serum or Plasma"/>
            </code>
            <subject>
               <reference value="urn:uuid:430d9c55-ab93-4845-8adc-dc58c90b9d13"/>
               <display value="Θεμιστοκλής Λιναρδάκη"/>
            </subject>
            <effectiveDateTime value="2025-06-18T06:16:00Z"/>
            <performer>
               <display value="The Central European Lab"/>
            </performer>
            <valueQuantity>
               <value value="68.6"/>
               <unit value="mg/dL"/>
               <system value="http://unitsofmeasure.org"/>
               <code value="mg/dL"/>
            </valueQuantity>
            <interpretation>
               <coding>
                  <system value="http://terminology.hl7.org/CodeSystem/v3-ObservationInterpretation"/>
                  <code value="L"/>
                  <display value="Low"/>
               </coding>
            </interpretation>
            <referenceRange>
               <low>
                  <value value="70"/>
                  <system value="http://unitsofmeasure.org"/>
                  <code value="mg/dL"/>
               </low>
            </referenceRange>
            <referenceRange>
               <high>
                  <value value="140"/>
                  <system value="http://unitsofmeasure.org"/>
                  <code value="mg/dL"/>
               </high>
            </referenceRange>
         </Observation>
      </resource>
   </entry>
   <entry>
      <fullUrl value="urn:uuid:121f134a-550d-4e81-a2d8-19b3d3019d9d"/>
      <resource>
         <Observation>
            <id value="121f134a-550d-4e81-a2d8-19b3d3019d9d"/>
            <meta>
               <profile value="http://hl7.eu/fhir/laboratory/StructureDefinition/Observation-resultslab-eu-lab"/>
            </meta>
            <text>
               <status value="generated"/>
               <div xmlns="http://www.w3.org/1999/xhtml">
                  <table class="hl7__eu__lab__report">
                     <tr>
                        <th>Test</th>
                        <th>18-Jun-2025</th>
                        <th>Reference Range</th>
                        <th>Unit</th>
                     </tr>
                     <tr>
                        <td>Urea nitrogen [Mass/volume] in Serum or Plasma</td>
                        <td>19.4</td>
                        <td>7 - 20</td>
                        <td/>
                        <td>mg/dL</td>
                     </tr>
                  </table>
               </div>
            </text>
            <status value="final"/>
            <category>
               <coding>
                  <system value="http://terminology.hl7.org/CodeSystem/observation-category"/>
                  <code value="laboratory"/>
               </coding>
            </category>
            <code>
               <coding>
                  <system value="http://loinc.org"/>
                  <code value="3094-0"/>
                  <display value="Urea nitrogen [Mass/volume] in Serum or Plasma"/>
               </coding>
               <text value="Urea nitrogen [Mass/volume] in Serum or Plasma"/>
            </code>
            <subject>
               <reference value="urn:uuid:430d9c55-ab93-4845-8adc-dc58c90b9d13"/>
               <display value="Θεμιστοκλής Λιναρδάκη"/>
            </subject>
            <effectiveDateTime value="2025-06-18T06:16:00Z"/>
            <performer>
               <display value="The Central European Lab"/>
            </performer>
            <valueQuantity>
               <value value="19.4"/>
               <unit value="mg/dL"/>
               <system value="http://unitsofmeasure.org"/>
               <code value="mg/dL"/>
            </valueQuantity>
            <referenceRange>
               <low>
                  <value value="7"/>
                  <system value="http://unitsofmeasure.org"/>
                  <code value="mg/dL"/>
               </low>
            </referenceRange>
            <referenceRange>
               <high>
                  <value value="20"/>
                  <system value="http://unitsofmeasure.org"/>
                  <code value="mg/dL"/>
               </high>
            </referenceRange>
         </Observation>
      </resource>
   </entry>
   <entry>
      <fullUrl value="urn:uuid:3a6aabef-292c-4f9b-bb45-b25cbd2e56f9"/>
      <resource>
         <Observation>
            <id value="3a6aabef-292c-4f9b-bb45-b25cbd2e56f9"/>
            <meta>
               <profile value="http://hl7.eu/fhir/laboratory/StructureDefinition/Observation-resultslab-eu-lab"/>
            </meta>
            <text>
               <status value="generated"/>
               <div xmlns="http://www.w3.org/1999/xhtml">
                  <table class="hl7__eu__lab__report">
                     <tr>
                        <th>Test</th>
                        <th>18-Jun-2025</th>
                        <th>Reference Range</th>
                        <th>Unit</th>
                     </tr>
                     <tr>
                        <td>Creatinine [Mass/volume] in Serum or Plasma</td>
                        <td>2.0</td>
                        <td>0.9 - 1.3</td>
                        <td>H</td>
                        <td>mg/dL</td>
                     </tr>
                  </table>
               </div>
            </text>
            <status value="final"/>
            <category>
               <coding>
                  <system value="http://terminology.hl7.org/CodeSystem/observation-category"/>
                  <code value="laboratory"/>
               </coding>
            </category>
            <code>
               <coding>
                  <system value="http://loinc.org"/>
                  <code value="2160-0"/>
                  <display value="Creatinine [Mass/volume] in Serum or Plasma"/>
               </coding>
               <text value="Creatinine [Mass/volume] in Serum or Plasma"/>
            </code>
            <subject>
               <reference value="urn:uuid:430d9c55-ab93-4845-8adc-dc58c90b9d13"/>
               <display value="Θεμιστοκλής Λιναρδάκη"/>
            </subject>
            <effectiveDateTime value="2025-06-18T06:16:00Z"/>
            <performer>
               <display value="The Central European Lab"/>
            </performer>
            <valueQuantity>
               <value value="2"/>
               <unit value="mg/dL"/>
               <system value="http://unitsofmeasure.org"/>
               <code value="mg/dL"/>
            </valueQuantity>
            <interpretation>
               <coding>
                  <system value="http://terminology.hl7.org/CodeSystem/v3-ObservationInterpretation"/>
                  <code value="H"/>
                  <display value="High"/>
               </coding>
            </interpretation>
            <referenceRange>
               <low>
                  <value value="0.9"/>
                  <system value="http://unitsofmeasure.org"/>
                  <code value="mg/dL"/>
               </low>
            </referenceRange>
            <referenceRange>
               <high>
                  <value value="1.3"/>
                  <system value="http://unitsofmeasure.org"/>
                  <code value="mg/dL"/>
               </high>
            </referenceRange>
         </Observation>
      </resource>
   </entry>
   <entry>
      <fullUrl value="urn:uuid:8f2d05f9-c9e5-4574-9c2d-ef0b1f939532"/>
      <resource>
         <Observation>
            <id value="8f2d05f9-c9e5-4574-9c2d-ef0b1f939532"/>
            <meta>
               <profile value="http://hl7.eu/fhir/laboratory/StructureDefinition/Observation-resultslab-eu-lab"/>
            </meta>
            <text>
               <status value="generated"/>
               <div xmlns="http://www.w3.org/1999/xhtml">
                  <table class="hl7__eu__lab__report">
                     <tr>
                        <th>Test</th>
                        <th>18-Jun-2025</th>
                        <th>Reference Range</th>
                        <th>Unit</th>
                     </tr>
                     <tr>
                        <td>Calcium [Mass/volume] in Serum or Plasma</td>
                        <td>10.2</td>
                        <td>8.5 - 10.5</td>
                        <td/>
                        <td>mg/dL</td>
                     </tr>
                  </table>
               </div>
            </text>
            <status value="final"/>
            <category>
               <coding>
                  <system value="http://terminology.hl7.org/CodeSystem/observation-category"/>
                  <code value="laboratory"/>
               </coding>
            </category>
            <code>
               <coding>
                  <system value="http://loinc.org"/>
                  <code value="17861-6"/>
                  <display value="Calcium [Mass/volume] in Serum or Plasma"/>
               </coding>
               <text value="Calcium [Mass/volume] in Serum or Plasma"/>
            </code>
            <subject>
               <reference value="urn:uuid:430d9c55-ab93-4845-8adc-dc58c90b9d13"/>
               <display value="Θεμιστοκλής Λιναρδάκη"/>
            </subject>
            <effectiveDateTime value="2025-06-18T06:16:00Z"/>
            <performer>
               <display value="The Central European Lab"/>
            </performer>
            <valueQuantity>
               <value value="10.2"/>
               <unit value="mg/dL"/>
               <system value="http://unitsofmeasure.org"/>
               <code value="mg/dL"/>
            </valueQuantity>
            <referenceRange>
               <low>
                  <value value="8.5"/>
                  <system value="http://unitsofmeasure.org"/>
                  <code value="mg/dL"/>
               </low>
            </referenceRange>
            <referenceRange>
               <high>
                  <value value="10.5"/>
                  <system value="http://unitsofmeasure.org"/>
                  <code value="mg/dL"/>
               </high>
            </referenceRange>
         </Observation>
      </resource>
   </entry>
   <entry>
      <fullUrl value="urn:uuid:2a0db867-dcff-49c3-b274-8777faa8c7c2"/>
      <resource>
         <Observation>
            <id value="2a0db867-dcff-49c3-b274-8777faa8c7c2"/>
            <meta>
               <profile value="http://hl7.eu/fhir/laboratory/StructureDefinition/Observation-resultslab-eu-lab"/>
            </meta>
            <text>
               <status value="generated"/>
               <div xmlns="http://www.w3.org/1999/xhtml">
                  <table class="hl7__eu__lab__report">
                     <tr>
                        <th>Test</th>
                        <th>18-Jun-2025</th>
                        <th>Reference Range</th>
                        <th>Unit</th>
                     </tr>
                     <tr>
                        <td>Sodium [Moles/volume] in Serum or Plasma</td>
                        <td>137.6</td>
                        <td>135 - 145</td>
                        <td/>
                        <td>mmol/L</td>
                     </tr>
                  </table>
               </div>
            </text>
            <status value="final"/>
            <category>
               <coding>
                  <system value="http://terminology.hl7.org/CodeSystem/observation-category"/>
                  <code value="laboratory"/>
               </coding>
            </category>
            <code>
               <coding>
                  <system value="http://loinc.org"/>
                  <code value="2951-2"/>
                  <display value="Sodium [Moles/volume] in Serum or Plasma"/>
               </coding>
               <text value="Sodium [Moles/volume] in Serum or Plasma"/>
            </code>
            <subject>
               <reference value="urn:uuid:430d9c55-ab93-4845-8adc-dc58c90b9d13"/>
               <display value="Θεμιστοκλής Λιναρδάκη"/>
            </subject>
            <effectiveDateTime value="2025-06-18T06:16:00Z"/>
            <performer>
               <display value="The Central European Lab"/>
            </performer>
            <valueQuantity>
               <value value="137.6"/>
               <unit value="mmol/L"/>
               <system value="http://unitsofmeasure.org"/>
               <code value="mmol/L"/>
            </valueQuantity>
            <referenceRange>
               <low>
                  <value value="135"/>
                  <system value="http://unitsofmeasure.org"/>
                  <code value="mmol/L"/>
               </low>
            </referenceRange>
            <referenceRange>
               <high>
                  <value value="145"/>
                  <system value="http://unitsofmeasure.org"/>
                  <code value="mmol/L"/>
               </high>
            </referenceRange>
         </Observation>
      </resource>
   </entry>
   <entry>
      <fullUrl value="urn:uuid:5b9a8b78-6a24-4e9b-8e5a-f486ca122344"/>
      <resource>
         <Observation>
            <id value="5b9a8b78-6a24-4e9b-8e5a-f486ca122344"/>
            <meta>
               <profile value="http://hl7.eu/fhir/laboratory/StructureDefinition/Observation-resultslab-eu-lab"/>
            </meta>
            <text>
               <status value="generated"/>
               <div xmlns="http://www.w3.org/1999/xhtml">
                  <table class="hl7__eu__lab__report">
                     <tr>
                        <th>Test</th>
                        <th>18-Jun-2025</th>
                        <th>Reference Range</th>
                        <th>Unit</th>
                     </tr>
                     <tr>
                        <td>Potassium [Moles/volume] in Serum or Plasma</td>
                        <td>4.1</td>
                        <td>3.5 - 5</td>
                        <td/>
                        <td>mmol/L</td>
                     </tr>
                  </table>
               </div>
            </text>
            <status value="final"/>
            <category>
               <coding>
                  <system value="http://terminology.hl7.org/CodeSystem/observation-category"/>
                  <code value="laboratory"/>
               </coding>
            </category>
            <code>
               <coding>
                  <system value="http://loinc.org"/>
                  <code value="2823-3"/>
                  <display value="Potassium [Moles/volume] in Serum or Plasma"/>
               </coding>
               <text value="Potassium [Moles/volume] in Serum or Plasma"/>
            </code>
            <subject>
               <reference value="urn:uuid:430d9c55-ab93-4845-8adc-dc58c90b9d13"/>
               <display value="Θεμιστοκλής Λιναρδάκη"/>
            </subject>
            <effectiveDateTime value="2025-06-18T06:16:00Z"/>
            <performer>
               <display value="The Central European Lab"/>
            </performer>
            <valueQuantity>
               <value value="4.1"/>
               <unit value="mmol/L"/>
               <system value="http://unitsofmeasure.org"/>
               <code value="mmol/L"/>
            </valueQuantity>
            <referenceRange>
               <low>
                  <value value="3.5"/>
                  <system value="http://unitsofmeasure.org"/>
                  <code value="mmol/L"/>
               </low>
            </referenceRange>
            <referenceRange>
               <high>
                  <value value="5"/>
                  <system value="http://unitsofmeasure.org"/>
                  <code value="mmol/L"/>
               </high>
            </referenceRange>
         </Observation>
      </resource>
   </entry>
   <entry>
      <fullUrl value="urn:uuid:aea654c1-ca0c-473f-a0bd-aa77d3ff3289"/>
      <resource>
         <Observation>
            <id value="aea654c1-ca0c-473f-a0bd-aa77d3ff3289"/>
            <meta>
               <profile value="http://hl7.eu/fhir/laboratory/StructureDefinition/Observation-resultslab-eu-lab"/>
            </meta>
            <text>
               <status value="generated"/>
               <div xmlns="http://www.w3.org/1999/xhtml">
                  <table class="hl7__eu__lab__report">
                     <tr>
                        <th>Test</th>
                        <th>18-Jun-2025</th>
                        <th>Reference Range</th>
                        <th>Unit</th>
                     </tr>
                     <tr>
                        <td>Chloride [Moles/volume] in Serum or Plasma</td>
                        <td>109.1</td>
                        <td>98 - 108</td>
                        <td>H</td>
                        <td>mmol/L</td>
                     </tr>
                  </table>
               </div>
            </text>
            <status value="final"/>
            <category>
               <coding>
                  <system value="http://terminology.hl7.org/CodeSystem/observation-category"/>
                  <code value="laboratory"/>
               </coding>
            </category>
            <code>
               <coding>
                  <system value="http://loinc.org"/>
                  <code value="2075-0"/>
                  <display value="Chloride [Moles/volume] in Serum or Plasma"/>
               </coding>
               <text value="Chloride [Moles/volume] in Serum or Plasma"/>
            </code>
            <subject>
               <reference value="urn:uuid:430d9c55-ab93-4845-8adc-dc58c90b9d13"/>
               <display value="Θεμιστοκλής Λιναρδάκη"/>
            </subject>
            <effectiveDateTime value="2025-06-18T06:16:00Z"/>
            <performer>
               <display value="The Central European Lab"/>
            </performer>
            <valueQuantity>
               <value value="109.1"/>
               <unit value="mmol/L"/>
               <system value="http://unitsofmeasure.org"/>
               <code value="mmol/L"/>
            </valueQuantity>
            <interpretation>
               <coding>
                  <system value="http://terminology.hl7.org/CodeSystem/v3-ObservationInterpretation"/>
                  <code value="H"/>
                  <display value="High"/>
               </coding>
            </interpretation>
            <referenceRange>
               <low>
                  <value value="98"/>
                  <system value="http://unitsofmeasure.org"/>
                  <code value="mmol/L"/>
               </low>
            </referenceRange>
            <referenceRange>
               <high>
                  <value value="108"/>
                  <system value="http://unitsofmeasure.org"/>
                  <code value="mmol/L"/>
               </high>
            </referenceRange>
         </Observation>
      </resource>
   </entry>
   <entry>
      <fullUrl value="urn:uuid:87e54a5b-367a-416e-a7be-20c117ffa758"/>
      <resource>
         <Observation>
            <id value="87e54a5b-367a-416e-a7be-20c117ffa758"/>
            <meta>
               <profile value="http://hl7.eu/fhir/laboratory/StructureDefinition/Observation-resultslab-eu-lab"/>
            </meta>
            <text>
               <status value="generated"/>
               <div xmlns="http://www.w3.org/1999/xhtml">
                  <table class="hl7__eu__lab__report">
                     <tr>
                        <th>Test</th>
                        <th>18-Jun-2025</th>
                        <th>Reference Range</th>
                        <th>Unit</th>
                     </tr>
                     <tr>
                        <td>Carbon dioxide, total [Moles/volume] in Serum or Plasma</td>
                        <td>21.8</td>
                        <td>22 - 29</td>
                        <td>L</td>
                        <td>mmol/L</td>
                     </tr>
                  </table>
               </div>
            </text>
            <status value="final"/>
            <category>
               <coding>
                  <system value="http://terminology.hl7.org/CodeSystem/observation-category"/>
                  <code value="laboratory"/>
               </coding>
            </category>
            <code>
               <coding>
                  <system value="http://loinc.org"/>
                  <code value="2028-9"/>
                  <display value="Carbon dioxide, total [Moles/volume] in Serum or Plasma"/>
               </coding>
               <text value="Carbon dioxide, total [Moles/volume] in Serum or Plasma"/>
            </code>
            <subject>
               <reference value="urn:uuid:430d9c55-ab93-4845-8adc-dc58c90b9d13"/>
               <display value="Θεμιστοκλής Λιναρδάκη"/>
            </subject>
            <effectiveDateTime value="2025-06-18T06:16:00Z"/>
            <performer>
               <display value="The Central European Lab"/>
            </performer>
            <valueQuantity>
               <value value="21.8"/>
               <unit value="mmol/L"/>
               <system value="http://unitsofmeasure.org"/>
               <code value="mmol/L"/>
            </valueQuantity>
            <interpretation>
               <coding>
                  <system value="http://terminology.hl7.org/CodeSystem/v3-ObservationInterpretation"/>
                  <code value="L"/>
                  <display value="Low"/>
               </coding>
            </interpretation>
            <referenceRange>
               <low>
                  <value value="22"/>
                  <system value="http://unitsofmeasure.org"/>
                  <code value="mmol/L"/>
               </low>
            </referenceRange>
            <referenceRange>
               <high>
                  <value value="29"/>
                  <system value="http://unitsofmeasure.org"/>
                  <code value="mmol/L"/>
               </high>
            </referenceRange>
         </Observation>
      </resource>
   </entry>
   <entry>
      <fullUrl value="urn:uuid:c7957e29-90aa-4210-9294-38677a4c7867"/>
      <resource>
         <Observation>
            <id value="c7957e29-90aa-4210-9294-38677a4c7867"/>
            <meta>
               <profile value="http://hl7.eu/fhir/laboratory/StructureDefinition/Observation-resultslab-eu-lab"/>
            </meta>
            <text>
               <status value="generated"/>
               <div xmlns="http://www.w3.org/1999/xhtml">
                  <table class="hl7__eu__lab__report">
                     <tr>
                        <th>Test</th>
                        <th>18-Jun-2025</th>
                        <th>Reference Range</th>
                        <th>Unit</th>
                     </tr>
                     <tr>
                        <td>Appearance of Urine</td>
                     </tr>
                  </table>
               </div>
            </text>
            <status value="final"/>
            <category>
               <coding>
                  <system value="http://terminology.hl7.org/CodeSystem/observation-category"/>
                  <code value="laboratory"/>
               </coding>
            </category>
            <code>
               <coding>
                  <system value="http://loinc.org"/>
                  <code value="5767-9"/>
                  <display value="Appearance of Urine"/>
               </coding>
               <text value="Appearance of Urine"/>
            </code>
            <subject>
               <reference value="urn:uuid:430d9c55-ab93-4845-8adc-dc58c90b9d13"/>
               <display value="Θεμιστοκλής Λιναρδάκη"/>
            </subject>
            <effectiveDateTime value="2025-06-18T06:16:00Z"/>
            <performer>
               <display value="The Central European Lab"/>
            </performer>
         </Observation>
      </resource>
   </entry>
   <entry>
      <fullUrl value="urn:uuid:87a796bc-6483-4194-b9da-4166ab9375c1"/>
      <resource>
         <Observation>
            <id value="87a796bc-6483-4194-b9da-4166ab9375c1"/>
            <meta>
               <profile value="http://hl7.eu/fhir/laboratory/StructureDefinition/Observation-resultslab-eu-lab"/>
            </meta>
            <text>
               <status value="generated"/>
               <div xmlns="http://www.w3.org/1999/xhtml">
                  <table class="hl7__eu__lab__report">
                     <tr>
                        <th>Test</th>
                        <th>18-Jun-2025</th>
                        <th>Reference Range</th>
                        <th>Unit</th>
                     </tr>
                     <tr>
                        <td>Odor of Urine</td>
                     </tr>
                  </table>
               </div>
            </text>
            <status value="final"/>
            <category>
               <coding>
                  <system value="http://terminology.hl7.org/CodeSystem/observation-category"/>
                  <code value="laboratory"/>
               </coding>
            </category>
            <code>
               <coding>
                  <system value="http://loinc.org"/>
                  <code value="34533-0"/>
                  <display value="Odor of Urine"/>
               </coding>
               <text value="Odor of Urine"/>
            </code>
            <subject>
               <reference value="urn:uuid:430d9c55-ab93-4845-8adc-dc58c90b9d13"/>
               <display value="Θεμιστοκλής Λιναρδάκη"/>
            </subject>
            <effectiveDateTime value="2025-06-18T06:16:00Z"/>
            <performer>
               <display value="The Central European Lab"/>
            </performer>
         </Observation>
      </resource>
   </entry>
   <entry>
      <fullUrl value="urn:uuid:febf72a3-0afb-484f-a07a-8b8b8f40d063"/>
      <resource>
         <Observation>
            <id value="febf72a3-0afb-484f-a07a-8b8b8f40d063"/>
            <meta>
               <profile value="http://hl7.eu/fhir/laboratory/StructureDefinition/Observation-resultslab-eu-lab"/>
            </meta>
            <text>
               <status value="generated"/>
               <div xmlns="http://www.w3.org/1999/xhtml">
                  <table class="hl7__eu__lab__report">
                     <tr>
                        <th>Test</th>
                        <th>18-Jun-2025</th>
                        <th>Reference Range</th>
                        <th>Unit</th>
                     </tr>
                     <tr>
                        <td>Clarity of Urine</td>
                     </tr>
                  </table>
               </div>
            </text>
            <status value="final"/>
            <category>
               <coding>
                  <system value="http://terminology.hl7.org/CodeSystem/observation-category"/>
                  <code value="laboratory"/>
               </coding>
            </category>
            <code>
               <coding>
                  <system value="http://loinc.org"/>
                  <code value="32167-9"/>
                  <display value="Clarity of Urine"/>
               </coding>
               <text value="Clarity of Urine"/>
            </code>
            <subject>
               <reference value="urn:uuid:430d9c55-ab93-4845-8adc-dc58c90b9d13"/>
               <display value="Θεμιστοκλής Λιναρδάκη"/>
            </subject>
            <effectiveDateTime value="2025-06-18T06:16:00Z"/>
            <performer>
               <display value="The Central European Lab"/>
            </performer>
         </Observation>
      </resource>
   </entry>
   <entry>
      <fullUrl value="urn:uuid:a0a4ae84-91b4-42a1-a2c2-d9bff49644b3"/>
      <resource>
         <Observation>
            <id value="a0a4ae84-91b4-42a1-a2c2-d9bff49644b3"/>
            <meta>
               <profile value="http://hl7.eu/fhir/laboratory/StructureDefinition/Observation-resultslab-eu-lab"/>
            </meta>
            <text>
               <status value="generated"/>
               <div xmlns="http://www.w3.org/1999/xhtml">
                  <table class="hl7__eu__lab__report">
                     <tr>
                        <th>Test</th>
                        <th>18-Jun-2025</th>
                        <th>Reference Range</th>
                        <th>Unit</th>
                     </tr>
                     <tr>
                        <td>Color of Urine</td>
                     </tr>
                  </table>
               </div>
            </text>
            <status value="final"/>
            <category>
               <coding>
                  <system value="http://terminology.hl7.org/CodeSystem/observation-category"/>
                  <code value="laboratory"/>
               </coding>
            </category>
            <code>
               <coding>
                  <system value="http://loinc.org"/>
                  <code value="5778-6"/>
                  <display value="Color of Urine"/>
               </coding>
               <text value="Color of Urine"/>
            </code>
            <subject>
               <reference value="urn:uuid:430d9c55-ab93-4845-8adc-dc58c90b9d13"/>
               <display value="Θεμιστοκλής Λιναρδάκη"/>
            </subject>
            <effectiveDateTime value="2025-06-18T06:16:00Z"/>
            <performer>
               <display value="The Central European Lab"/>
            </performer>
         </Observation>
      </resource>
   </entry>
   <entry>
      <fullUrl value="urn:uuid:373d3596-002d-491e-95a9-21138ee01463"/>
      <resource>
         <Observation>
            <id value="373d3596-002d-491e-95a9-21138ee01463"/>
            <meta>
               <profile value="http://hl7.eu/fhir/laboratory/StructureDefinition/Observation-resultslab-eu-lab"/>
            </meta>
            <text>
               <status value="generated"/>
               <div xmlns="http://www.w3.org/1999/xhtml">
                  <table class="hl7__eu__lab__report">
                     <tr>
                        <th>Test</th>
                        <th>18-Jun-2025</th>
                        <th>Reference Range</th>
                        <th>Unit</th>
                     </tr>
                     <tr>
                        <td>Glucose [Mass/volume] in Urine by Test strip</td>
                        <td>2.3</td>
                        <td>0 - 0.8</td>
                        <td>H</td>
                        <td>mg/dL</td>
                     </tr>
                  </table>
               </div>
            </text>
            <status value="final"/>
            <category>
               <coding>
                  <system value="http://terminology.hl7.org/CodeSystem/observation-category"/>
                  <code value="laboratory"/>
               </coding>
            </category>
            <code>
               <coding>
                  <system value="http://loinc.org"/>
                  <code value="5792-7"/>
                  <display value="Glucose [Mass/volume] in Urine by Test strip"/>
               </coding>
               <text value="Glucose [Mass/volume] in Urine by Test strip"/>
            </code>
            <subject>
               <reference value="urn:uuid:430d9c55-ab93-4845-8adc-dc58c90b9d13"/>
               <display value="Θεμιστοκλής Λιναρδάκη"/>
            </subject>
            <effectiveDateTime value="2025-06-18T06:16:00Z"/>
            <performer>
               <display value="The Central European Lab"/>
            </performer>
            <valueQuantity>
               <value value="2.3"/>
               <unit value="mg/dL"/>
               <system value="http://unitsofmeasure.org"/>
               <code value="mg/dL"/>
            </valueQuantity>
            <interpretation>
               <coding>
                  <system value="http://terminology.hl7.org/CodeSystem/v3-ObservationInterpretation"/>
                  <code value="H"/>
                  <display value="High"/>
               </coding>
            </interpretation>
            <referenceRange>
               <low>
                  <value value="0"/>
                  <system value="http://unitsofmeasure.org"/>
                  <code value="mg/dL"/>
               </low>
            </referenceRange>
            <referenceRange>
               <high>
                  <value value="0.8"/>
                  <system value="http://unitsofmeasure.org"/>
                  <code value="mg/dL"/>
               </high>
            </referenceRange>
         </Observation>
      </resource>
   </entry>
   <entry>
      <fullUrl value="urn:uuid:e067647c-e132-4ee2-b03b-f6c1facab525"/>
      <resource>
         <Observation>
            <id value="e067647c-e132-4ee2-b03b-f6c1facab525"/>
            <meta>
               <profile value="http://hl7.eu/fhir/laboratory/StructureDefinition/Observation-resultslab-eu-lab"/>
            </meta>
            <text>
               <status value="generated"/>
               <div xmlns="http://www.w3.org/1999/xhtml">
                  <table class="hl7__eu__lab__report">
                     <tr>
                        <th>Test</th>
                        <th>18-Jun-2025</th>
                        <th>Reference Range</th>
                        <th>Unit</th>
                     </tr>
                     <tr>
                        <td>Glucose [Presence] in Urine by Test strip</td>
                     </tr>
                  </table>
               </div>
            </text>
            <status value="final"/>
            <category>
               <coding>
                  <system value="http://terminology.hl7.org/CodeSystem/observation-category"/>
                  <code value="laboratory"/>
               </coding>
            </category>
            <code>
               <coding>
                  <system value="http://loinc.org"/>
                  <code value="25428-4"/>
                  <display value="Glucose [Presence] in Urine by Test strip"/>
               </coding>
               <text value="Glucose [Presence] in Urine by Test strip"/>
            </code>
            <subject>
               <reference value="urn:uuid:430d9c55-ab93-4845-8adc-dc58c90b9d13"/>
               <display value="Θεμιστοκλής Λιναρδάκη"/>
            </subject>
            <effectiveDateTime value="2025-06-18T06:16:00Z"/>
            <performer>
               <display value="The Central European Lab"/>
            </performer>
         </Observation>
      </resource>
   </entry>
   <entry>
      <fullUrl value="urn:uuid:fc128aa4-6417-4674-9189-7a15c96503aa"/>
      <resource>
         <Observation>
            <id value="fc128aa4-6417-4674-9189-7a15c96503aa"/>
            <meta>
               <profile value="http://hl7.eu/fhir/laboratory/StructureDefinition/Observation-resultslab-eu-lab"/>
            </meta>
            <text>
               <status value="generated"/>
               <div xmlns="http://www.w3.org/1999/xhtml">
                  <table class="hl7__eu__lab__report">
                     <tr>
                        <th>Test</th>
                        <th>18-Jun-2025</th>
                        <th>Reference Range</th>
                        <th>Unit</th>
                     </tr>
                     <tr>
                        <td>Bilirubin.total [Mass/volume] in Urine by Test strip</td>
                        <td>0.3</td>
                        <td>0.2 - 1</td>
                        <td/>
                        <td>mg/dL</td>
                     </tr>
                  </table>
               </div>
            </text>
            <status value="final"/>
            <category>
               <coding>
                  <system value="http://terminology.hl7.org/CodeSystem/observation-category"/>
                  <code value="laboratory"/>
               </coding>
            </category>
            <code>
               <coding>
                  <system value="http://loinc.org"/>
                  <code value="20505-4"/>
                  <display value="Bilirubin.total [Mass/volume] in Urine by Test strip"/>
               </coding>
               <text value="Bilirubin.total [Mass/volume] in Urine by Test strip"/>
            </code>
            <subject>
               <reference value="urn:uuid:430d9c55-ab93-4845-8adc-dc58c90b9d13"/>
               <display value="Θεμιστοκλής Λιναρδάκη"/>
            </subject>
            <effectiveDateTime value="2025-06-18T06:16:00Z"/>
            <performer>
               <display value="The Central European Lab"/>
            </performer>
            <valueQuantity>
               <value value="0.3"/>
               <unit value="mg/dL"/>
               <system value="http://unitsofmeasure.org"/>
               <code value="mg/dL"/>
            </valueQuantity>
            <referenceRange>
               <low>
                  <value value="0.2"/>
                  <system value="http://unitsofmeasure.org"/>
                  <code value="mg/dL"/>
               </low>
            </referenceRange>
            <referenceRange>
               <high>
                  <value value="1"/>
                  <system value="http://unitsofmeasure.org"/>
                  <code value="mg/dL"/>
               </high>
            </referenceRange>
         </Observation>
      </resource>
   </entry>
   <entry>
      <fullUrl value="urn:uuid:b5f87fe4-2438-417f-b057-c98a2f22e3bc"/>
      <resource>
         <Observation>
            <id value="b5f87fe4-2438-417f-b057-c98a2f22e3bc"/>
            <meta>
               <profile value="http://hl7.eu/fhir/laboratory/StructureDefinition/Observation-resultslab-eu-lab"/>
            </meta>
            <text>
               <status value="generated"/>
               <div xmlns="http://www.w3.org/1999/xhtml">
                  <table class="hl7__eu__lab__report">
                     <tr>
                        <th>Test</th>
                        <th>18-Jun-2025</th>
                        <th>Reference Range</th>
                        <th>Unit</th>
                     </tr>
                     <tr>
                        <td>Bilirubin.total [Presence] in Urine by Test strip</td>
                     </tr>
                  </table>
               </div>
            </text>
            <status value="final"/>
            <category>
               <coding>
                  <system value="http://terminology.hl7.org/CodeSystem/observation-category"/>
                  <code value="laboratory"/>
               </coding>
            </category>
            <code>
               <coding>
                  <system value="http://loinc.org"/>
                  <code value="5770-3"/>
                  <display value="Bilirubin.total [Presence] in Urine by Test strip"/>
               </coding>
               <text value="Bilirubin.total [Presence] in Urine by Test strip"/>
            </code>
            <subject>
               <reference value="urn:uuid:430d9c55-ab93-4845-8adc-dc58c90b9d13"/>
               <display value="Θεμιστοκλής Λιναρδάκη"/>
            </subject>
            <effectiveDateTime value="2025-06-18T06:16:00Z"/>
            <performer>
               <display value="The Central European Lab"/>
            </performer>
         </Observation>
      </resource>
   </entry>
   <entry>
      <fullUrl value="urn:uuid:5c6d374f-a704-4496-abc0-22d9497f43af"/>
      <resource>
         <Observation>
            <id value="5c6d374f-a704-4496-abc0-22d9497f43af"/>
            <meta>
               <profile value="http://hl7.eu/fhir/laboratory/StructureDefinition/Observation-resultslab-eu-lab"/>
            </meta>
            <text>
               <status value="generated"/>
               <div xmlns="http://www.w3.org/1999/xhtml">
                  <table class="hl7__eu__lab__report">
                     <tr>
                        <th>Test</th>
                        <th>18-Jun-2025</th>
                        <th>Reference Range</th>
                        <th>Unit</th>
                     </tr>
                     <tr>
                        <td>Ketones [Mass/volume] in Urine by Test strip</td>
                        <td>16.5</td>
                        <td>0 - 5</td>
                        <td>H</td>
                        <td>mg/dL</td>
                     </tr>
                  </table>
               </div>
            </text>
            <status value="final"/>
            <category>
               <coding>
                  <system value="http://terminology.hl7.org/CodeSystem/observation-category"/>
                  <code value="laboratory"/>
               </coding>
            </category>
            <code>
               <coding>
                  <system value="http://loinc.org"/>
                  <code value="5797-6"/>
                  <display value="Ketones [Mass/volume] in Urine by Test strip"/>
               </coding>
               <text value="Ketones [Mass/volume] in Urine by Test strip"/>
            </code>
            <subject>
               <reference value="urn:uuid:430d9c55-ab93-4845-8adc-dc58c90b9d13"/>
               <display value="Θεμιστοκλής Λιναρδάκη"/>
            </subject>
            <effectiveDateTime value="2025-06-18T06:16:00Z"/>
            <performer>
               <display value="The Central European Lab"/>
            </performer>
            <valueQuantity>
               <value value="16.5"/>
               <unit value="mg/dL"/>
               <system value="http://unitsofmeasure.org"/>
               <code value="mg/dL"/>
            </valueQuantity>
            <interpretation>
               <coding>
                  <system value="http://terminology.hl7.org/CodeSystem/v3-ObservationInterpretation"/>
                  <code value="H"/>
                  <display value="High"/>
               </coding>
            </interpretation>
            <referenceRange>
               <low>
                  <value value="0"/>
                  <system value="http://unitsofmeasure.org"/>
                  <code value="mg/dL"/>
               </low>
            </referenceRange>
            <referenceRange>
               <high>
                  <value value="5"/>
                  <system value="http://unitsofmeasure.org"/>
                  <code value="mg/dL"/>
               </high>
            </referenceRange>
         </Observation>
      </resource>
   </entry>
   <entry>
      <fullUrl value="urn:uuid:0e4050f2-aa39-4b9c-a60c-df42811e011d"/>
      <resource>
         <Observation>
            <id value="0e4050f2-aa39-4b9c-a60c-df42811e011d"/>
            <meta>
               <profile value="http://hl7.eu/fhir/laboratory/StructureDefinition/Observation-resultslab-eu-lab"/>
            </meta>
            <text>
               <status value="generated"/>
               <div xmlns="http://www.w3.org/1999/xhtml">
                  <table class="hl7__eu__lab__report">
                     <tr>
                        <th>Test</th>
                        <th>18-Jun-2025</th>
                        <th>Reference Range</th>
                        <th>Unit</th>
                     </tr>
                     <tr>
                        <td>Ketones [Presence] in Urine by Test strip</td>
                     </tr>
                  </table>
               </div>
            </text>
            <status value="final"/>
            <category>
               <coding>
                  <system value="http://terminology.hl7.org/CodeSystem/observation-category"/>
                  <code value="laboratory"/>
               </coding>
            </category>
            <code>
               <coding>
                  <system value="http://loinc.org"/>
                  <code value="2514-8"/>
                  <display value="Ketones [Presence] in Urine by Test strip"/>
               </coding>
               <text value="Ketones [Presence] in Urine by Test strip"/>
            </code>
            <subject>
               <reference value="urn:uuid:430d9c55-ab93-4845-8adc-dc58c90b9d13"/>
               <display value="Θεμιστοκλής Λιναρδάκη"/>
            </subject>
            <effectiveDateTime value="2025-06-18T06:16:00Z"/>
            <performer>
               <display value="The Central European Lab"/>
            </performer>
         </Observation>
      </resource>
   </entry>
   <entry>
      <fullUrl value="urn:uuid:5ec3b65d-bd0e-4cfe-984d-f668a4a24883"/>
      <resource>
         <Observation>
            <id value="5ec3b65d-bd0e-4cfe-984d-f668a4a24883"/>
            <meta>
               <profile value="http://hl7.eu/fhir/laboratory/StructureDefinition/Observation-resultslab-eu-lab"/>
            </meta>
            <text>
               <status value="generated"/>
               <div xmlns="http://www.w3.org/1999/xhtml">
                  <table class="hl7__eu__lab__report">
                     <tr>
                        <th>Test</th>
                        <th>18-Jun-2025</th>
                        <th>Reference Range</th>
                        <th>Unit</th>
                     </tr>
                     <tr>
                        <td>Specific gravity of Urine by Test strip</td>
                        <td>1.0</td>
                        <td>1.005 - 1.03</td>
                        <td>L</td>
                        <td>{nominal}</td>
                     </tr>
                  </table>
               </div>
            </text>
            <status value="final"/>
            <category>
               <coding>
                  <system value="http://terminology.hl7.org/CodeSystem/observation-category"/>
                  <code value="laboratory"/>
               </coding>
            </category>
            <code>
               <coding>
                  <system value="http://loinc.org"/>
                  <code value="5811-5"/>
                  <display value="Specific gravity of Urine by Test strip"/>
               </coding>
               <text value="Specific gravity of Urine by Test strip"/>
            </code>
            <subject>
               <reference value="urn:uuid:430d9c55-ab93-4845-8adc-dc58c90b9d13"/>
               <display value="Θεμιστοκλής Λιναρδάκη"/>
            </subject>
            <effectiveDateTime value="2025-06-18T06:16:00Z"/>
            <performer>
               <display value="The Central European Lab"/>
            </performer>
            <valueQuantity>
               <value value="1"/>
               <unit value="{nominal}"/>
               <system value="http://unitsofmeasure.org"/>
               <code value="{nominal}"/>
            </valueQuantity>
            <interpretation>
               <coding>
                  <system value="http://terminology.hl7.org/CodeSystem/v3-ObservationInterpretation"/>
                  <code value="L"/>
                  <display value="Low"/>
               </coding>
            </interpretation>
            <referenceRange>
               <low>
                  <value value="1.005"/>
                  <system value="http://unitsofmeasure.org"/>
                  <code value="g/mL"/>
               </low>
            </referenceRange>
            <referenceRange>
               <high>
                  <value value="1.03"/>
                  <system value="http://unitsofmeasure.org"/>
                  <code value="g/mL"/>
               </high>
            </referenceRange>
         </Observation>
      </resource>
   </entry>
   <entry>
      <fullUrl value="urn:uuid:45740288-8e85-4aab-a0fc-95c1d37b450a"/>
      <resource>
         <Observation>
            <id value="45740288-8e85-4aab-a0fc-95c1d37b450a"/>
            <meta>
               <profile value="http://hl7.eu/fhir/laboratory/StructureDefinition/Observation-resultslab-eu-lab"/>
            </meta>
            <text>
               <status value="generated"/>
               <div xmlns="http://www.w3.org/1999/xhtml">
                  <table class="hl7__eu__lab__report">
                     <tr>
                        <th>Test</th>
                        <th>18-Jun-2025</th>
                        <th>Reference Range</th>
                        <th>Unit</th>
                     </tr>
                     <tr>
                        <td>pH of Urine by Test strip</td>
                        <td>6.6</td>
                        <td>4.6 - 7</td>
                        <td/>
                        <td>pH</td>
                     </tr>
                  </table>
               </div>
            </text>
            <status value="final"/>
            <category>
               <coding>
                  <system value="http://terminology.hl7.org/CodeSystem/observation-category"/>
                  <code value="laboratory"/>
               </coding>
            </category>
            <code>
               <coding>
                  <system value="http://loinc.org"/>
                  <code value="5803-2"/>
                  <display value="pH of Urine by Test strip"/>
               </coding>
               <text value="pH of Urine by Test strip"/>
            </code>
            <subject>
               <reference value="urn:uuid:430d9c55-ab93-4845-8adc-dc58c90b9d13"/>
               <display value="Θεμιστοκλής Λιναρδάκη"/>
            </subject>
            <effectiveDateTime value="2025-06-18T06:16:00Z"/>
            <performer>
               <display value="The Central European Lab"/>
            </performer>
            <valueQuantity>
               <value value="6.6"/>
               <unit value="pH"/>
               <system value="http://unitsofmeasure.org"/>
               <code value="pH"/>
            </valueQuantity>
            <referenceRange>
               <low>
                  <value value="4.6"/>
                  <system value="http://unitsofmeasure.org"/>
                  <code value="pH"/>
               </low>
            </referenceRange>
            <referenceRange>
               <high>
                  <value value="7"/>
                  <system value="http://unitsofmeasure.org"/>
                  <code value="pH"/>
               </high>
            </referenceRange>
         </Observation>
      </resource>
   </entry>
   <entry>
      <fullUrl value="urn:uuid:94267860-e3c3-40a5-b06d-e804be8c57f0"/>
      <resource>
         <Observation>
            <id value="94267860-e3c3-40a5-b06d-e804be8c57f0"/>
            <meta>
               <profile value="http://hl7.eu/fhir/laboratory/StructureDefinition/Observation-resultslab-eu-lab"/>
            </meta>
            <text>
               <status value="generated"/>
               <div xmlns="http://www.w3.org/1999/xhtml">
                  <table class="hl7__eu__lab__report">
                     <tr>
                        <th>Test</th>
                        <th>18-Jun-2025</th>
                        <th>Reference Range</th>
                        <th>Unit</th>
                     </tr>
                     <tr>
                        <td>Protein [Mass/volume] in Urine by Test strip</td>
                        <td>243.1</td>
                        <td>0 - 150</td>
                        <td>H</td>
                        <td>mg/dL</td>
                     </tr>
                  </table>
               </div>
            </text>
            <status value="final"/>
            <category>
               <coding>
                  <system value="http://terminology.hl7.org/CodeSystem/observation-category"/>
                  <code value="laboratory"/>
               </coding>
            </category>
            <code>
               <coding>
                  <system value="http://loinc.org"/>
                  <code value="5804-0"/>
                  <display value="Protein [Mass/volume] in Urine by Test strip"/>
               </coding>
               <text value="Protein [Mass/volume] in Urine by Test strip"/>
            </code>
            <subject>
               <reference value="urn:uuid:430d9c55-ab93-4845-8adc-dc58c90b9d13"/>
               <display value="Θεμιστοκλής Λιναρδάκη"/>
            </subject>
            <effectiveDateTime value="2025-06-18T06:16:00Z"/>
            <performer>
               <display value="The Central European Lab"/>
            </performer>
            <valueQuantity>
               <value value="243.1"/>
               <unit value="mg/dL"/>
               <system value="http://unitsofmeasure.org"/>
               <code value="mg/dL"/>
            </valueQuantity>
            <interpretation>
               <coding>
                  <system value="http://terminology.hl7.org/CodeSystem/v3-ObservationInterpretation"/>
                  <code value="H"/>
                  <display value="High"/>
               </coding>
            </interpretation>
            <referenceRange>
               <low>
                  <value value="0"/>
                  <system value="http://unitsofmeasure.org"/>
                  <code value="mg/dL"/>
               </low>
            </referenceRange>
            <referenceRange>
               <high>
                  <value value="150"/>
                  <system value="http://unitsofmeasure.org"/>
                  <code value="mg/dL"/>
               </high>
            </referenceRange>
         </Observation>
      </resource>
   </entry>
   <entry>
      <fullUrl value="urn:uuid:a6e477fa-6e32-4dbc-b421-64d901f244ee"/>
      <resource>
         <Observation>
            <id value="a6e477fa-6e32-4dbc-b421-64d901f244ee"/>
            <meta>
               <profile value="http://hl7.eu/fhir/laboratory/StructureDefinition/Observation-resultslab-eu-lab"/>
            </meta>
            <text>
               <status value="generated"/>
               <div xmlns="http://www.w3.org/1999/xhtml">
                  <table class="hl7__eu__lab__report">
                     <tr>
                        <th>Test</th>
                        <th>18-Jun-2025</th>
                        <th>Reference Range</th>
                        <th>Unit</th>
                     </tr>
                     <tr>
                        <td>Protein [Presence] in Urine by Test strip</td>
                     </tr>
                  </table>
               </div>
            </text>
            <status value="final"/>
            <category>
               <coding>
                  <system value="http://terminology.hl7.org/CodeSystem/observation-category"/>
                  <code value="laboratory"/>
               </coding>
            </category>
            <code>
               <coding>
                  <system value="http://loinc.org"/>
                  <code value="20454-5"/>
                  <display value="Protein [Presence] in Urine by Test strip"/>
               </coding>
               <text value="Protein [Presence] in Urine by Test strip"/>
            </code>
            <subject>
               <reference value="urn:uuid:430d9c55-ab93-4845-8adc-dc58c90b9d13"/>
               <display value="Θεμιστοκλής Λιναρδάκη"/>
            </subject>
            <effectiveDateTime value="2025-06-18T06:16:00Z"/>
            <performer>
               <display value="The Central European Lab"/>
            </performer>
         </Observation>
      </resource>
   </entry>
   <entry>
      <fullUrl value="urn:uuid:63d7f9f4-5ba1-4eda-a583-20a5f0803325"/>
      <resource>
         <Observation>
            <id value="63d7f9f4-5ba1-4eda-a583-20a5f0803325"/>
            <meta>
               <profile value="http://hl7.eu/fhir/laboratory/StructureDefinition/Observation-resultslab-eu-lab"/>
            </meta>
            <text>
               <status value="generated"/>
               <div xmlns="http://www.w3.org/1999/xhtml">
                  <table class="hl7__eu__lab__report">
                     <tr>
                        <th>Test</th>
                        <th>18-Jun-2025</th>
                        <th>Reference Range</th>
                        <th>Unit</th>
                     </tr>
                     <tr>
                        <td>Nitrite [Presence] in Urine by Test strip</td>
                     </tr>
                  </table>
               </div>
            </text>
            <status value="final"/>
            <category>
               <coding>
                  <system value="http://terminology.hl7.org/CodeSystem/observation-category"/>
                  <code value="laboratory"/>
               </coding>
            </category>
            <code>
               <coding>
                  <system value="http://loinc.org"/>
                  <code value="5802-4"/>
                  <display value="Nitrite [Presence] in Urine by Test strip"/>
               </coding>
               <text value="Nitrite [Presence] in Urine by Test strip"/>
            </code>
            <subject>
               <reference value="urn:uuid:430d9c55-ab93-4845-8adc-dc58c90b9d13"/>
               <display value="Θεμιστοκλής Λιναρδάκη"/>
            </subject>
            <effectiveDateTime value="2025-06-18T06:16:00Z"/>
            <performer>
               <display value="The Central European Lab"/>
            </performer>
         </Observation>
      </resource>
   </entry>
   <entry>
      <fullUrl value="urn:uuid:9f37e604-4bf6-4daa-82b9-7127779e4128"/>
      <resource>
         <Observation>
            <id value="9f37e604-4bf6-4daa-82b9-7127779e4128"/>
            <meta>
               <profile value="http://hl7.eu/fhir/laboratory/StructureDefinition/Observation-resultslab-eu-lab"/>
            </meta>
            <text>
               <status value="generated"/>
               <div xmlns="http://www.w3.org/1999/xhtml">
                  <table class="hl7__eu__lab__report">
                     <tr>
                        <th>Test</th>
                        <th>18-Jun-2025</th>
                        <th>Reference Range</th>
                        <th>Unit</th>
                     </tr>
                     <tr>
                        <td>Hemoglobin [Presence] in Urine by Test strip</td>
                     </tr>
                  </table>
               </div>
            </text>
            <status value="final"/>
            <category>
               <coding>
                  <system value="http://terminology.hl7.org/CodeSystem/observation-category"/>
                  <code value="laboratory"/>
               </coding>
            </category>
            <code>
               <coding>
                  <system value="http://loinc.org"/>
                  <code value="5794-3"/>
                  <display value="Hemoglobin [Presence] in Urine by Test strip"/>
               </coding>
               <text value="Hemoglobin [Presence] in Urine by Test strip"/>
            </code>
            <subject>
               <reference value="urn:uuid:430d9c55-ab93-4845-8adc-dc58c90b9d13"/>
               <display value="Θεμιστοκλής Λιναρδάκη"/>
            </subject>
            <effectiveDateTime value="2025-06-18T06:16:00Z"/>
            <performer>
               <display value="The Central European Lab"/>
            </performer>
         </Observation>
      </resource>
   </entry>
   <entry>
      <fullUrl value="urn:uuid:1dad6d97-abfb-4b0d-8bbc-f15e3abdf94d"/>
      <resource>
         <Observation>
            <id value="1dad6d97-abfb-4b0d-8bbc-f15e3abdf94d"/>
            <meta>
               <profile value="http://hl7.eu/fhir/laboratory/StructureDefinition/Observation-resultslab-eu-lab"/>
            </meta>
            <text>
               <status value="generated"/>
               <div xmlns="http://www.w3.org/1999/xhtml">
                  <table class="hl7__eu__lab__report">
                     <tr>
                        <th>Test</th>
                        <th>18-Jun-2025</th>
                        <th>Reference Range</th>
                        <th>Unit</th>
                     </tr>
                     <tr>
                        <td>Leukocyte esterase [Presence] in Urine by Test strip</td>
                     </tr>
                  </table>
               </div>
            </text>
            <status value="final"/>
            <category>
               <coding>
                  <system value="http://terminology.hl7.org/CodeSystem/observation-category"/>
                  <code value="laboratory"/>
               </coding>
            </category>
            <code>
               <coding>
                  <system value="http://loinc.org"/>
                  <code value="5799-2"/>
                  <display value="Leukocyte esterase [Presence] in Urine by Test strip"/>
               </coding>
               <text value="Leukocyte esterase [Presence] in Urine by Test strip"/>
            </code>
            <subject>
               <reference value="urn:uuid:430d9c55-ab93-4845-8adc-dc58c90b9d13"/>
               <display value="Θεμιστοκλής Λιναρδάκη"/>
            </subject>
            <effectiveDateTime value="2025-06-18T06:16:00Z"/>
            <performer>
               <display value="The Central European Lab"/>
            </performer>
         </Observation>
      </resource>
   </entry>
   <entry>
      <fullUrl value="urn:uuid:d1e15f06-e22e-4cca-9b20-17fadf96b710"/>
      <resource>
         <Observation>
            <id value="d1e15f06-e22e-4cca-9b20-17fadf96b710"/>
            <meta>
               <profile value="http://hl7.eu/fhir/laboratory/StructureDefinition/Observation-resultslab-eu-lab"/>
            </meta>
            <text>
               <status value="generated"/>
               <div xmlns="http://www.w3.org/1999/xhtml">
                  <table class="hl7__eu__lab__report">
                     <tr>
                        <th>Test</th>
                        <th>18-Jun-2025</th>
                        <th>Reference Range</th>
                        <th>Unit</th>
                     </tr>
                     <tr>
                        <td>Hemoglobin A1c/Hemoglobin.total in Blood</td>
                        <td>3.0</td>
                        <td>4.3 - 6.4</td>
                        <td>L</td>
                        <td>%</td>
                     </tr>
                  </table>
               </div>
            </text>
            <status value="final"/>
            <category>
               <coding>
                  <system value="http://terminology.hl7.org/CodeSystem/observation-category"/>
                  <code value="laboratory"/>
               </coding>
            </category>
            <code>
               <coding>
                  <system value="http://loinc.org"/>
                  <code value="4548-4"/>
                  <display value="Hemoglobin A1c/Hemoglobin.total in Blood"/>
               </coding>
               <text value="Hemoglobin A1c/Hemoglobin.total in Blood"/>
            </code>
            <subject>
               <reference value="urn:uuid:430d9c55-ab93-4845-8adc-dc58c90b9d13"/>
               <display value="Θεμιστοκλής Λιναρδάκη"/>
            </subject>
            <effectiveDateTime value="2025-06-18T06:16:00Z"/>
            <performer>
               <display value="The Central European Lab"/>
            </performer>
            <valueQuantity>
               <value value="3"/>
               <unit value="%"/>
               <system value="http://unitsofmeasure.org"/>
               <code value="%"/>
            </valueQuantity>
            <interpretation>
               <coding>
                  <system value="http://terminology.hl7.org/CodeSystem/v3-ObservationInterpretation"/>
                  <code value="L"/>
                  <display value="Low"/>
               </coding>
            </interpretation>
            <referenceRange>
               <low>
                  <value value="4.3"/>
                  <system value="http://unitsofmeasure.org"/>
                  <code value="%"/>
               </low>
            </referenceRange>
            <referenceRange>
               <high>
                  <value value="6.4"/>
                  <system value="http://unitsofmeasure.org"/>
                  <code value="%"/>
               </high>
            </referenceRange>
         </Observation>
      </resource>
   </entry>
   <entry>
      <fullUrl value="urn:uuid:3a773426-ff03-4951-b09e-634d751a34b6"/>
      <resource>
         <Observation>
            <id value="3a773426-ff03-4951-b09e-634d751a34b6"/>
            <meta>
               <profile value="http://hl7.eu/fhir/laboratory/StructureDefinition/Observation-resultslab-eu-lab"/>
            </meta>
            <text>
               <status value="generated"/>
               <div xmlns="http://www.w3.org/1999/xhtml">
                  <table class="hl7__eu__lab__report">
                     <tr>
                        <th>Test</th>
                        <th>18-Jun-2025</th>
                        <th>Reference Range</th>
                        <th>Unit</th>
                     </tr>
                     <tr>
                        <td>Glucose [Mass/volume] in Blood</td>
                        <td>68.6</td>
                        <td>70 - 140</td>
                        <td>L</td>
                        <td>mg/dL</td>
                     </tr>
                  </table>
               </div>
            </text>
            <status value="final"/>
            <category>
               <coding>
                  <system value="http://terminology.hl7.org/CodeSystem/observation-category"/>
                  <code value="laboratory"/>
               </coding>
            </category>
            <code>
               <coding>
                  <system value="http://loinc.org"/>
                  <code value="2339-0"/>
                  <display value="Glucose [Mass/volume] in Blood"/>
               </coding>
               <text value="Glucose [Mass/volume] in Blood"/>
            </code>
            <subject>
               <reference value="urn:uuid:430d9c55-ab93-4845-8adc-dc58c90b9d13"/>
               <display value="Θεμιστοκλής Λιναρδάκη"/>
            </subject>
            <effectiveDateTime value="2025-06-18T06:16:00Z"/>
            <performer>
               <display value="The Central European Lab"/>
            </performer>
            <valueQuantity>
               <value value="68.6"/>
               <unit value="mg/dL"/>
               <system value="http://unitsofmeasure.org"/>
               <code value="mg/dL"/>
            </valueQuantity>
            <interpretation>
               <coding>
                  <system value="http://terminology.hl7.org/CodeSystem/v3-ObservationInterpretation"/>
                  <code value="L"/>
                  <display value="Low"/>
               </coding>
            </interpretation>
            <referenceRange>
               <low>
                  <value value="70"/>
                  <system value="http://unitsofmeasure.org"/>
                  <code value="mg/dL"/>
               </low>
            </referenceRange>
            <referenceRange>
               <high>
                  <value value="140"/>
                  <system value="http://unitsofmeasure.org"/>
                  <code value="mg/dL"/>
               </high>
            </referenceRange>
         </Observation>
      </resource>
   </entry>
   <entry>
      <fullUrl value="urn:uuid:9f14b133-d2fb-4f63-b6d6-ae3161c8dc0f"/>
      <resource>
         <Observation>
            <id value="9f14b133-d2fb-4f63-b6d6-ae3161c8dc0f"/>
            <meta>
               <profile value="http://hl7.eu/fhir/laboratory/StructureDefinition/Observation-resultslab-eu-lab"/>
            </meta>
            <text>
               <status value="generated"/>
               <div xmlns="http://www.w3.org/1999/xhtml">
                  <table class="hl7__eu__lab__report">
                     <tr>
                        <th>Test</th>
                        <th>18-Jun-2025</th>
                        <th>Reference Range</th>
                        <th>Unit</th>
                     </tr>
                     <tr>
                        <td>Urea nitrogen [Mass/volume] in Blood</td>
                        <td>19.4</td>
                        <td>7 - 20</td>
                        <td/>
                        <td>mg/dL</td>
                     </tr>
                  </table>
               </div>
            </text>
            <status value="final"/>
            <category>
               <coding>
                  <system value="http://terminology.hl7.org/CodeSystem/observation-category"/>
                  <code value="laboratory"/>
               </coding>
            </category>
            <code>
               <coding>
                  <system value="http://loinc.org"/>
                  <code value="6299-2"/>
                  <display value="Urea nitrogen [Mass/volume] in Blood"/>
               </coding>
               <text value="Urea nitrogen [Mass/volume] in Blood"/>
            </code>
            <subject>
               <reference value="urn:uuid:430d9c55-ab93-4845-8adc-dc58c90b9d13"/>
               <display value="Θεμιστοκλής Λιναρδάκη"/>
            </subject>
            <effectiveDateTime value="2025-06-18T06:16:00Z"/>
            <performer>
               <display value="The Central European Lab"/>
            </performer>
            <valueQuantity>
               <value value="19.4"/>
               <unit value="mg/dL"/>
               <system value="http://unitsofmeasure.org"/>
               <code value="mg/dL"/>
            </valueQuantity>
            <referenceRange>
               <low>
                  <value value="7"/>
                  <system value="http://unitsofmeasure.org"/>
                  <code value="mg/dL"/>
               </low>
            </referenceRange>
            <referenceRange>
               <high>
                  <value value="20"/>
                  <system value="http://unitsofmeasure.org"/>
                  <code value="mg/dL"/>
               </high>
            </referenceRange>
         </Observation>
      </resource>
   </entry>
   <entry>
      <fullUrl value="urn:uuid:ba3a8cce-a68f-4a3d-843d-18b1ea8f5fb1"/>
      <resource>
         <Observation>
            <id value="ba3a8cce-a68f-4a3d-843d-18b1ea8f5fb1"/>
            <meta>
               <profile value="http://hl7.eu/fhir/laboratory/StructureDefinition/Observation-resultslab-eu-lab"/>
            </meta>
            <text>
               <status value="generated"/>
               <div xmlns="http://www.w3.org/1999/xhtml">
                  <table class="hl7__eu__lab__report">
                     <tr>
                        <th>Test</th>
                        <th>18-Jun-2025</th>
                        <th>Reference Range</th>
                        <th>Unit</th>
                     </tr>
                     <tr>
                        <td>Creatinine [Mass/volume] in Blood</td>
                        <td>5.3</td>
                        <td>0.6 - 1.3</td>
                        <td>H</td>
                        <td>mg/dL</td>
                     </tr>
                  </table>
               </div>
            </text>
            <status value="final"/>
            <category>
               <coding>
                  <system value="http://terminology.hl7.org/CodeSystem/observation-category"/>
                  <code value="laboratory"/>
               </coding>
            </category>
            <code>
               <coding>
                  <system value="http://loinc.org"/>
                  <code value="38483-4"/>
                  <display value="Creatinine [Mass/volume] in Blood"/>
               </coding>
               <text value="Creatinine [Mass/volume] in Blood"/>
            </code>
            <subject>
               <reference value="urn:uuid:430d9c55-ab93-4845-8adc-dc58c90b9d13"/>
               <display value="Θεμιστοκλής Λιναρδάκη"/>
            </subject>
            <effectiveDateTime value="2025-06-18T06:16:00Z"/>
            <performer>
               <display value="The Central European Lab"/>
            </performer>
            <valueQuantity>
               <value value="5.3"/>
               <unit value="mg/dL"/>
               <system value="http://unitsofmeasure.org"/>
               <code value="mg/dL"/>
            </valueQuantity>
            <interpretation>
               <coding>
                  <system value="http://terminology.hl7.org/CodeSystem/v3-ObservationInterpretation"/>
                  <code value="H"/>
                  <display value="High"/>
               </coding>
            </interpretation>
            <referenceRange>
               <low>
                  <value value="0.6"/>
                  <system value="http://unitsofmeasure.org"/>
                  <code value="mg/dL"/>
               </low>
            </referenceRange>
            <referenceRange>
               <high>
                  <value value="1.3"/>
                  <system value="http://unitsofmeasure.org"/>
                  <code value="mg/dL"/>
               </high>
            </referenceRange>
         </Observation>
      </resource>
   </entry>
   <entry>
      <fullUrl value="urn:uuid:b25702da-ca3e-4455-91e7-fc9e85815acb"/>
      <resource>
         <Observation>
            <id value="b25702da-ca3e-4455-91e7-fc9e85815acb"/>
            <meta>
               <profile value="http://hl7.eu/fhir/laboratory/StructureDefinition/Observation-resultslab-eu-lab"/>
            </meta>
            <text>
               <status value="generated"/>
               <div xmlns="http://www.w3.org/1999/xhtml">
                  <table class="hl7__eu__lab__report">
                     <tr>
                        <th>Test</th>
                        <th>18-Jun-2025</th>
                        <th>Reference Range</th>
                        <th>Unit</th>
                     </tr>
                     <tr>
                        <td>Calcium [Mass/volume] in Blood</td>
                        <td>10.2</td>
                        <td>8.5 - 10.5</td>
                        <td/>
                        <td>mg/dL</td>
                     </tr>
                  </table>
               </div>
            </text>
            <status value="final"/>
            <category>
               <coding>
                  <system value="http://terminology.hl7.org/CodeSystem/observation-category"/>
                  <code value="laboratory"/>
               </coding>
            </category>
            <code>
               <coding>
                  <system value="http://loinc.org"/>
                  <code value="49765-1"/>
                  <display value="Calcium [Mass/volume] in Blood"/>
               </coding>
               <text value="Calcium [Mass/volume] in Blood"/>
            </code>
            <subject>
               <reference value="urn:uuid:430d9c55-ab93-4845-8adc-dc58c90b9d13"/>
               <display value="Θεμιστοκλής Λιναρδάκη"/>
            </subject>
            <effectiveDateTime value="2025-06-18T06:16:00Z"/>
            <performer>
               <display value="The Central European Lab"/>
            </performer>
            <valueQuantity>
               <value value="10.2"/>
               <unit value="mg/dL"/>
               <system value="http://unitsofmeasure.org"/>
               <code value="mg/dL"/>
            </valueQuantity>
            <referenceRange>
               <low>
                  <value value="8.5"/>
                  <system value="http://unitsofmeasure.org"/>
                  <code value="mg/dL"/>
               </low>
            </referenceRange>
            <referenceRange>
               <high>
                  <value value="10.5"/>
                  <system value="http://unitsofmeasure.org"/>
                  <code value="mg/dL"/>
               </high>
            </referenceRange>
         </Observation>
      </resource>
   </entry>
   <entry>
      <fullUrl value="urn:uuid:c0492a43-f8b8-46ee-8d6f-46ef4c0fa0a0"/>
      <resource>
         <Observation>
            <id value="c0492a43-f8b8-46ee-8d6f-46ef4c0fa0a0"/>
            <meta>
               <profile value="http://hl7.eu/fhir/laboratory/StructureDefinition/Observation-resultslab-eu-lab"/>
            </meta>
            <text>
               <status value="generated"/>
               <div xmlns="http://www.w3.org/1999/xhtml">
                  <table class="hl7__eu__lab__report">
                     <tr>
                        <th>Test</th>
                        <th>18-Jun-2025</th>
                        <th>Reference Range</th>
                        <th>Unit</th>
                     </tr>
                     <tr>
                        <td>Sodium [Moles/volume] in Blood</td>
                        <td>137.6</td>
                        <td>135 - 145</td>
                        <td/>
                        <td>mmol/L</td>
                     </tr>
                  </table>
               </div>
            </text>
            <status value="final"/>
            <category>
               <coding>
                  <system value="http://terminology.hl7.org/CodeSystem/observation-category"/>
                  <code value="laboratory"/>
               </coding>
            </category>
            <code>
               <coding>
                  <system value="http://loinc.org"/>
                  <code value="2947-0"/>
                  <display value="Sodium [Moles/volume] in Blood"/>
               </coding>
               <text value="Sodium [Moles/volume] in Blood"/>
            </code>
            <subject>
               <reference value="urn:uuid:430d9c55-ab93-4845-8adc-dc58c90b9d13"/>
               <display value="Θεμιστοκλής Λιναρδάκη"/>
            </subject>
            <effectiveDateTime value="2025-06-18T06:16:00Z"/>
            <performer>
               <display value="The Central European Lab"/>
            </performer>
            <valueQuantity>
               <value value="137.6"/>
               <unit value="mmol/L"/>
               <system value="http://unitsofmeasure.org"/>
               <code value="mmol/L"/>
            </valueQuantity>
            <referenceRange>
               <low>
                  <value value="135"/>
                  <system value="http://unitsofmeasure.org"/>
                  <code value="mmol/L"/>
               </low>
            </referenceRange>
            <referenceRange>
               <high>
                  <value value="145"/>
                  <system value="http://unitsofmeasure.org"/>
                  <code value="mmol/L"/>
               </high>
            </referenceRange>
         </Observation>
      </resource>
   </entry>
   <entry>
      <fullUrl value="urn:uuid:2eabd5a8-d6c2-45e4-ade7-561601b38be9"/>
      <resource>
         <Observation>
            <id value="2eabd5a8-d6c2-45e4-ade7-561601b38be9"/>
            <meta>
               <profile value="http://hl7.eu/fhir/laboratory/StructureDefinition/Observation-resultslab-eu-lab"/>
            </meta>
            <text>
               <status value="generated"/>
               <div xmlns="http://www.w3.org/1999/xhtml">
                  <table class="hl7__eu__lab__report">
                     <tr>
                        <th>Test</th>
                        <th>18-Jun-2025</th>
                        <th>Reference Range</th>
                        <th>Unit</th>
                     </tr>
                     <tr>
                        <td>Potassium [Moles/volume] in Blood</td>
                        <td>4.1</td>
                        <td>3.5 - 5.3</td>
                        <td/>
                        <td>mmol/L</td>
                     </tr>
                  </table>
               </div>
            </text>
            <status value="final"/>
            <category>
               <coding>
                  <system value="http://terminology.hl7.org/CodeSystem/observation-category"/>
                  <code value="laboratory"/>
               </coding>
            </category>
            <code>
               <coding>
                  <system value="http://loinc.org"/>
                  <code value="6298-4"/>
                  <display value="Potassium [Moles/volume] in Blood"/>
               </coding>
               <text value="Potassium [Moles/volume] in Blood"/>
            </code>
            <subject>
               <reference value="urn:uuid:430d9c55-ab93-4845-8adc-dc58c90b9d13"/>
               <display value="Θεμιστοκλής Λιναρδάκη"/>
            </subject>
            <effectiveDateTime value="2025-06-18T06:16:00Z"/>
            <performer>
               <display value="The Central European Lab"/>
            </performer>
            <valueQuantity>
               <value value="4.1"/>
               <unit value="mmol/L"/>
               <system value="http://unitsofmeasure.org"/>
               <code value="mmol/L"/>
            </valueQuantity>
            <referenceRange>
               <low>
                  <value value="3.5"/>
                  <system value="http://unitsofmeasure.org"/>
                  <code value="mmol/L"/>
               </low>
            </referenceRange>
            <referenceRange>
               <high>
                  <value value="5.3"/>
                  <system value="http://unitsofmeasure.org"/>
                  <code value="mmol/L"/>
               </high>
            </referenceRange>
         </Observation>
      </resource>
   </entry>
   <entry>
      <fullUrl value="urn:uuid:a0317675-4749-4fe7-a0df-7cf67f94a9b0"/>
      <resource>
         <Observation>
            <id value="a0317675-4749-4fe7-a0df-7cf67f94a9b0"/>
            <meta>
               <profile value="http://hl7.eu/fhir/laboratory/StructureDefinition/Observation-resultslab-eu-lab"/>
            </meta>
            <text>
               <status value="generated"/>
               <div xmlns="http://www.w3.org/1999/xhtml">
                  <table class="hl7__eu__lab__report">
                     <tr>
                        <th>Test</th>
                        <th>18-Jun-2025</th>
                        <th>Reference Range</th>
                        <th>Unit</th>
                     </tr>
                     <tr>
                        <td>Chloride [Moles/volume] in Blood</td>
                        <td>109.1</td>
                        <td>98 - 110</td>
                        <td/>
                        <td>mmol/L</td>
                     </tr>
                  </table>
               </div>
            </text>
            <status value="final"/>
            <category>
               <coding>
                  <system value="http://terminology.hl7.org/CodeSystem/observation-category"/>
                  <code value="laboratory"/>
               </coding>
            </category>
            <code>
               <coding>
                  <system value="http://loinc.org"/>
                  <code value="2069-3"/>
                  <display value="Chloride [Moles/volume] in Blood"/>
               </coding>
               <text value="Chloride [Moles/volume] in Blood"/>
            </code>
            <subject>
               <reference value="urn:uuid:430d9c55-ab93-4845-8adc-dc58c90b9d13"/>
               <display value="Θεμιστοκλής Λιναρδάκη"/>
            </subject>
            <effectiveDateTime value="2025-06-18T06:16:00Z"/>
            <performer>
               <display value="The Central European Lab"/>
            </performer>
            <valueQuantity>
               <value value="109.1"/>
               <unit value="mmol/L"/>
               <system value="http://unitsofmeasure.org"/>
               <code value="mmol/L"/>
            </valueQuantity>
            <referenceRange>
               <low>
                  <value value="98"/>
                  <system value="http://unitsofmeasure.org"/>
                  <code value="mmol/L"/>
               </low>
            </referenceRange>
            <referenceRange>
               <high>
                  <value value="110"/>
                  <system value="http://unitsofmeasure.org"/>
                  <code value="mmol/L"/>
               </high>
            </referenceRange>
         </Observation>
      </resource>
   </entry>
   <entry>
      <fullUrl value="urn:uuid:21667788-f6ee-41b0-8ec5-a2916b26bbd2"/>
      <resource>
         <Observation>
            <id value="21667788-f6ee-41b0-8ec5-a2916b26bbd2"/>
            <meta>
               <profile value="http://hl7.eu/fhir/laboratory/StructureDefinition/Observation-resultslab-eu-lab"/>
            </meta>
            <text>
               <status value="generated"/>
               <div xmlns="http://www.w3.org/1999/xhtml">
                  <table class="hl7__eu__lab__report">
                     <tr>
                        <th>Test</th>
                        <th>18-Jun-2025</th>
                        <th>Reference Range</th>
                        <th>Unit</th>
                     </tr>
                     <tr>
                        <td>Carbon dioxide, total [Moles/volume] in Blood</td>
                        <td>21.8</td>
                        <td>22 - 29</td>
                        <td>L</td>
                        <td>mmol/L</td>
                     </tr>
                  </table>
               </div>
            </text>
            <status value="final"/>
            <category>
               <coding>
                  <system value="http://terminology.hl7.org/CodeSystem/observation-category"/>
                  <code value="laboratory"/>
               </coding>
            </category>
            <code>
               <coding>
                  <system value="http://loinc.org"/>
                  <code value="20565-8"/>
                  <display value="Carbon dioxide, total [Moles/volume] in Blood"/>
               </coding>
               <text value="Carbon dioxide, total [Moles/volume] in Blood"/>
            </code>
            <subject>
               <reference value="urn:uuid:430d9c55-ab93-4845-8adc-dc58c90b9d13"/>
               <display value="Θεμιστοκλής Λιναρδάκη"/>
            </subject>
            <effectiveDateTime value="2025-06-18T06:16:00Z"/>
            <performer>
               <display value="The Central European Lab"/>
            </performer>
            <valueQuantity>
               <value value="21.8"/>
               <unit value="mmol/L"/>
               <system value="http://unitsofmeasure.org"/>
               <code value="mmol/L"/>
            </valueQuantity>
            <interpretation>
               <coding>
                  <system value="http://terminology.hl7.org/CodeSystem/v3-ObservationInterpretation"/>
                  <code value="L"/>
                  <display value="Low"/>
               </coding>
            </interpretation>
            <referenceRange>
               <low>
                  <value value="22"/>
                  <system value="http://unitsofmeasure.org"/>
                  <code value="mmol/L"/>
               </low>
            </referenceRange>
            <referenceRange>
               <high>
                  <value value="29"/>
                  <system value="http://unitsofmeasure.org"/>
                  <code value="mmol/L"/>
               </high>
            </referenceRange>
         </Observation>
      </resource>
   </entry>
   <entry>
      <fullUrl value="urn:uuid:31e91f2a-a8cd-4fac-af3f-e0520418ea8a"/>
      <resource>
         <DeviceUseStatement>
            <id value="31e91f2a-a8cd-4fac-af3f-e0520418ea8a"/>
            <meta>
               <profile value="http://hl7.eu/fhir/eps/StructureDefinition/deviceUseStatement-eu-eps"/>
            </meta>
            <text>
               <status value="generated"/>
               <div xmlns="http://www.w3.org/1999/xhtml">
                  <table class="hl7__ips">
                     <tr>
                        <td>Blood glucose meter (physical object)</td>
                        <td>
                           <span class="nb">26-Jan-1994</span>
                        </td>
                     </tr>
                  </table>
               </div>
            </text>
            <status value="active"/>
            <subject>
               <reference value="urn:uuid:430d9c55-ab93-4845-8adc-dc58c90b9d13"/>
               <display value="Θεμιστοκλής Λιναρδάκη"/>
            </subject>
            <timingPeriod>
               <start value="1994-01-26"/>
            </timingPeriod>
            <device>
               <reference value="urn:uuid:c0e39fac-1adc-46e8-a7e5-1bdb9be9d1a5"/>
               <display value="Blood glucose meter (physical object)"/>
            </device>
         </DeviceUseStatement>
      </resource>
   </entry>
   <entry>
      <fullUrl value="urn:uuid:c0e39fac-1adc-46e8-a7e5-1bdb9be9d1a5"/>
      <resource>
         <Device>
            <id value="c0e39fac-1adc-46e8-a7e5-1bdb9be9d1a5"/>
            <meta>
               <profile value="http://hl7.eu/fhir/eps/StructureDefinition/device-eu-eps"/>
            </meta>
            <udiCarrier id="(01)66517661301806(11)940105(17)190120(10)5256823490385(21)530324194522"/>
            <status value="active"/>
            <type>
               <coding>
                  <system value="http://snomed.info/sct"/>
                  <code value="337414009"/>
                  <display value="Blood glucose meter (physical object)"/>
               </coding>
            </type>
            <patient>
               <reference value="urn:uuid:430d9c55-ab93-4845-8adc-dc58c90b9d13"/>
               <display value="Θεμιστοκλής Λιναρδάκη"/>
            </patient>
         </Device>
      </resource>
   </entry>
   <entry>
      <fullUrl value="urn:uuid:913075e0-e34a-4475-a8cb-106c40ae35d5"/>
      <resource>
         <Device>
            <id value="913075e0-e34a-4475-a8cb-106c40ae35d5"/>
            <text>
               <status value="generated"/>
               <div xmlns="http://www.w3.org/1999/xhtml">SYNDERAI Synthetic Generator v5.0</div>
            </text>
            <status value="active&#34;"/>
            <distinctIdentifier value="synderai-generator-50"/>
            <manufacturer value="SYNDERAI Project"/>
            <deviceName>
               <name value="SYNDERAI Synthetic Generator"/>
               <type value="manufacturer-name"/>
            </deviceName>
            <version>
               <value value="5.0"/>
            </version>
         </Device>
      </resource>
   </entry>
   <entry>
      <fullUrl value="urn:uuid:f58a6bc3-8347-4a5f-b3ae-33e6ae6adaba"/>
      <resource>
         <Provenance>
            <id value="f58a6bc3-8347-4a5f-b3ae-33e6ae6adaba"/>
            <text>
               <status value="generated"/>
               <div xmlns="http://www.w3.org/1999/xhtml">Provenance for SYNDERAI Synthetic Example Data Resource</div>
            </text>
            <target>
               <reference value="Patient/430d9c55-ab93-4845-8adc-dc58c90b9d13"/>
            </target>
            <target>
               <reference value="Bundle/c00c1705-1121-4e54-93e5-496e31502e8e"/>
            </target>
            <target>
               <reference value="Composition/437678c0-121b-4b5b-9fc9-ccb84ae02a4f"/>
            </target>
            <target>
               <reference value="PractitionerRole/0b9ed570-50cc-43b0-96b0-1ec431e849ab"/>
            </target>
            <target>
               <reference value="Organization/42315baa-2836-46f3-94cf-7c7949930a0c"/>
            </target>
            <target>
               <reference value="Practitioner/b06a6008-6c77-4fc9-87bc-698d8d195b2d"/>
            </target>
            <recorded value="2025-06-18T06:16:00Z"/>
            <policy value="https://synderai.net/synderai-synthetic-data-policy"/>
            <reason>
               <text value="Interoperability Testing and Training (non-clinical use)"/>
            </reason>
            <activity>
               <text value="Synthetic Example Data Generation"/>
            </activity>
            <agent>
               <type>
                  <text value="author"/>
               </type>
               <who>
                  <reference value="Device/913075e0-e34a-4475-a8cb-106c40ae35d5"/>
               </who>
            </agent>
         </Provenance>
      </resource>
   </entry>
</Bundle>