{
  "resourceType": "Bundle",
  "id": "fa994385-e122-4f0b-975c-1e38b593762c",
  "meta": {
    "profile": [
      "http://hl7.eu/fhir/eps/StructureDefinition/bundle-eu-eps"
    ]
  },
  "identifier": {
    "assigner": {
      "display": "HL7 Europe"
    },
    "system": "urn:oid:2.16.840.1.113883.2.51.999",
    "value": "1d40c3b3-2429-47ba-a25b-f618ae33d65e"
  },
  "entry": [
    {
      "fullUrl": "urn:uuid:a6044248-bf8a-4a8f-b4a6-11a96e7024fe",
      "resource": {
        "resourceType": "Composition",
        "id": "a6044248-bf8a-4a8f-b4a6-11a96e7024fe",
        "meta": {
          "security": [
            {
              "system": "http://terminology.hl7.org/CodeSystem/v3-ActReason",
              "code": "HTEST"
            },
            {
              "system": "http://terminology.hl7.org/CodeSystem/v3-ActReason",
              "code": "TRAIN"
            }
          ],
          "tag": [
            {
              "system": "https://synderai.net/fhir/CodeSystem/tags",
              "code": "synthetic",
              "display": "SYNDERAI Synthetic data"
            }
          ],
          "profile": [
            "http://hl7.eu/fhir/eps/StructureDefinition/composition-eu-eps"
          ]
        },
        "identifier": {
          "assigner": {
            "display": "HL7 Europe"
          },
          "system": "urn:oid:2.16.840.1.113883.2.51.999",
          "value": "e9f5f5ab-20ac-4213-80dd-3b14b2afb0fd"
        },
        "type": {
          "coding": [
            {
              "system": "http://loinc.org",
              "code": "60591-5",
              "display": "Patient summary Document"
            }
          ],
          "text": "Patient summary Document"
        },
        "author": [
          {
            "reference": "urn:uuid:94113981-1768-467d-bd53-afff4e23765d"
          }
        ],
        "section": [
          {
            "text": {
              "status": "generated",
              "div": "<div xmlns=\"http://www.w3.org/1999/xhtml\"><table class=\"hl7__ips\"><tr><th>Condition</th><th>Onset Date</th><th>Status</th></tr><tr><td>Prediabetes</td><td><span class=\"nb\">12-Apr-1982</span></td><td>active</td></tr><tr><td>Anemia</td><td><span class=\"nb\">12-Apr-1982</span></td><td>active</td></tr><tr><td>Chronic sinusitis</td><td><span class=\"nb\">07-Sep-1979</span></td><td>active</td></tr></table></div>"
            },
            "entry": [
              {
                "reference": "urn:uuid:4e5ea37d-a04f-4dc0-88cb-4b269b440c41"
              },
              {
                "reference": "urn:uuid:fcaea485-6b6c-41fb-bb3a-0f420daa01e3"
              },
              {
                "reference": "urn:uuid:dc85a175-5aa9-41c5-b64c-8428dbd323d5"
              }
            ],
            "code": {
              "coding": [
                {
                  "system": "http://loinc.org",
                  "code": "11450-4",
                  "display": "Problem list - Reported"
                }
              ]
            },
            "title": "Problem list"
          },
          {
            "text": {
              "status": "generated",
              "div": "<div xmlns=\"http://www.w3.org/1999/xhtml\"><table class=\"hl7__ips\"><tr><th>Medication</th><th>Since</th><th>Form</th><th>Dosage</th><th>Reason</th></tr><tr><td>Ferrous sulfate 325 mg prolonged-release oral tablet</td><td><span class=\"nb\">1982-04-19</span></td><td>-</td><td>1 tablet (325 mg) by mouth once daily</td><td>-</td></tr><tr><td>Vitamin B12 5 MG/ML Injectable Solution</td><td><span class=\"nb\">1982-04-19</span></td><td>-</td><td>1 mL (5 mg) injected intramuscularly once monthly</td><td>-</td></tr></table></div>"
            },
            "entry": [
              {
                "reference": "urn:uuid:b89272b4-6c28-43ff-a471-e9bc4413335e"
              },
              {
                "reference": "urn:uuid:a84864c9-3958-427d-9062-073d933595d5"
              }
            ],
            "code": {
              "coding": [
                {
                  "system": "http://loinc.org",
                  "code": "10160-0",
                  "display": "History of Medication use Narrative"
                }
              ]
            },
            "title": "Medication list"
          },
          {
            "text": {
              "status": "generated",
              "div": "<div xmlns=\"http://www.w3.org/1999/xhtml\"><table class=\"hl7__ips\"><tr><th>Vaccine</th><th>Date</th></tr><tr><td>Streptococcus pneumoniae Danish serotype 1</td><td><span class=\"nb\">05-May-2025</span></td></tr><tr><td>Influenza virus antigen only vaccine product</td><td><span class=\"nb\">05-May-2025</span></td></tr><tr><td>SARS-CoV-2 mRNA vaccine</td><td><span class=\"nb\">26-Apr-2021</span></td></tr><tr><td>Clostridium tetani toxoid antigen adsorbed only vaccine product</td><td><span class=\"nb\">12-Apr-2021</span></td></tr></table></div>"
            },
            "entry": [
              {
                "reference": "urn:uuid:86f4fab0-317b-4faf-92ec-0e1d25e44d73"
              },
              {
                "reference": "urn:uuid:12c740d4-8dee-478b-a2e8-591fc1d1a404"
              },
              {
                "reference": "urn:uuid:4efcbfb2-ff7d-4b98-a3e4-3200b20ae871"
              },
              {
                "reference": "urn:uuid:5179ab04-082a-4d3a-a873-8034d14eb136"
              }
            ],
            "code": {
              "coding": [
                {
                  "system": "http://loinc.org",
                  "code": "11369-6",
                  "display": "History of Immunization note"
                }
              ]
            },
            "title": "Immunizations list"
          },
          {
            "text": {
              "status": "generated",
              "div": "<div xmlns=\"http://www.w3.org/1999/xhtml\"><table class=\"hl7__ips\"><tr><th>Procedure</th><th>Date</th><th>Reason</th></tr><tr><td>Depression screening</td><td><span class=\"nb\">24-Jan-2022</span></td><td>-</td></tr><tr><td>Assessment of health and social care needs</td><td><span class=\"nb\">24-Jan-2022</span></td><td>-</td></tr><tr><td>Assessment of anxiety</td><td><span class=\"nb\">24-Jan-2022</span></td><td>-</td></tr><tr><td>Depression screening using Patient Health Questionnaire Two-Item score (procedure)</td><td><span class=\"nb\">24-Jan-2022</span></td><td>-</td></tr><tr><td>Patient evaluation and management</td><td><span class=\"nb\">26-Dec-2017</span></td><td>-</td></tr><tr><td>Urine specimen collection</td><td><span class=\"nb\">26-Dec-2017</span></td><td>-</td></tr><tr><td>Patient discharge</td><td><span class=\"nb\">26-Dec-2017</span></td><td>-</td></tr><tr><td>Taking patient vital signs</td><td><span class=\"nb\">26-Dec-2017</span></td><td>-</td></tr><tr><td>History taking</td><td><span class=\"nb\">26-Dec-2017</span></td><td>-</td></tr><tr><td>Discussion about signs and symptoms</td><td><span class=\"nb\">26-Dec-2017</span></td><td>-</td></tr><tr><td>Antibiotic therapy</td><td><span class=\"nb\">26-Dec-2017</span></td><td>-</td></tr><tr><td>Triage: emergency center</td><td><span class=\"nb\">26-Dec-2017</span></td><td>-</td></tr><tr><td>Urinalysis with reflex to microscopy and culture</td><td><span class=\"nb\">26-Dec-2017</span></td><td>-</td></tr></table></div>"
            },
            "entry": [
              {
                "reference": "urn:uuid:4289de89-3edb-4ab1-8f1c-63fcd34fe613"
              },
              {
                "reference": "urn:uuid:85f04ed5-b8d7-4430-a007-774826706368"
              },
              {
                "reference": "urn:uuid:45bf776f-c0bb-49ed-ba33-56307ccd9db7"
              },
              {
                "reference": "urn:uuid:5a20e628-2b6c-4b83-96ec-6ee1f8b4bc90"
              },
              {
                "reference": "urn:uuid:0aa9ea5b-6e25-4955-8fae-a5dfd6e5ba30"
              },
              {
                "reference": "urn:uuid:e6983b93-287a-42d5-9b29-9305eced2605"
              },
              {
                "reference": "urn:uuid:4d86bae8-3967-4100-b4ec-b5b089d53224"
              },
              {
                "reference": "urn:uuid:4b3d4ac7-9186-4b74-bd22-358e576c48a3"
              },
              {
                "reference": "urn:uuid:4f57b226-c8fd-4af5-bf82-d219223d3e08"
              },
              {
                "reference": "urn:uuid:95600e6f-d199-4c15-b657-a35c8bfea8b7"
              },
              {
                "reference": "urn:uuid:402dc68e-8484-4368-a8d8-795ddd1ef521"
              },
              {
                "reference": "urn:uuid:d493b04e-449f-4f99-a27a-a4a8071ef671"
              },
              {
                "reference": "urn:uuid:3fd35728-416a-4009-bfea-8ff33f75b32a"
              }
            ],
            "code": {
              "coding": [
                {
                  "system": "http://loinc.org",
                  "code": "47519-4",
                  "display": "History of Procedures Document"
                }
              ]
            },
            "title": "Procedure History list"
          },
          {
            "text": {
              "status": "generated",
              "div": "<div xmlns=\"http://www.w3.org/1999/xhtml\"><table class=\"hl7__ips\"><tr><th>Allergy/Intolerance</th><th>Onset Date</th><th>Status</th><th>Type</th><th>Reaction</th></tr><tr><td></td><td>?</td><td>active</td><td>?</td><td></td></tr></table></div>"
            },
            "entry": [
              {
                "reference": "urn:uuid:d093d9f1-35d1-47e2-9e49-7b3629863980"
              }
            ],
            "code": {
              "coding": [
                {
                  "system": "http://loinc.org",
                  "code": "48765-2",
                  "display": "Allergies and adverse reactions Document"
                }
              ]
            },
            "title": "Allergies and Intolerances"
          },
          {
            "text": {
              "status": "generated",
              "div": "<div xmlns=\"http://www.w3.org/1999/xhtml\"><table class=\"hl7__ips\"><tr><th>Active Planned Care / Goals</th><th>Start Date</th><th>Reason</th></tr><tr><td>Diabetes self management plan</td><td><span class=\"nb\">12-Apr-1982</span></td><td>Prediabetes</td></tr><tr><td><ul><li>Achieve and maintain Hemoglobin A1c below 5.7% through diabetes self-management.</li><li>Achieve and maintain a healthy body weight as part of diabetes self-management.</li><li>Engage in at least 150 minutes of moderate-intensity physical activity per week.</li></ul></td><td></td><td></td></tr><tr><th>Immunization Recommendation</th><th>Due Date</th><th>Reason</th></tr><tr><td>Vaccine product containing only Influenza virus antigen (medicinal product)</td><td><span class=\"nb\">01-Oct-2025</span></td><td>Annual seasonal influenza vaccination</td></tr></table></div>"
            },
            "entry": [
              {
                "reference": "urn:uuid:e18fb315-f5cb-4a48-95d4-3663270e205d"
              },
              {
                "reference": "urn:uuid:ecfe27b5-afb7-4989-8f7e-c9b2ea738251"
              }
            ],
            "code": {
              "coding": [
                {
                  "system": "http://loinc.org",
                  "code": "18776-5",
                  "display": "Plan of care note"
                }
              ]
            },
            "title": "Care Plan"
          },
          {
            "text": {
              "status": "generated",
              "div": "<div xmlns=\"http://www.w3.org/1999/xhtml\"><table class=\"hl7__ips\"><tr><th>Vital Signs</th><th>2025-05-05</th><th>2024-04-29</th></tr><tr><td>Body Height</td><td>169.7 cm</td><td>169.7 cm</td></tr><tr><td>Pain severity - 0-10 verbal numeric rating [Score] - Reported</td><td>2 {score}</td><td>3 {score}</td></tr><tr><td>Body Weight</td><td>78.9 kg</td><td>78.9 kg</td></tr><tr><td>Body mass index (BMI) [Ratio]</td><td>27.4 kg/m2</td><td>27.4 kg/m2</td></tr><tr><td>Diastolic Blood Pressure</td><td>89 mm[Hg]</td><td>84 mm[Hg]</td></tr><tr><td>Systolic Blood Pressure</td><td>120 mm[Hg]</td><td>125 mm[Hg]</td></tr><tr><td>Heart rate</td><td>66 /min</td><td>65 /min</td></tr><tr><td>Respiratory rate</td><td>14 /min</td><td>14 /min</td></tr></table></div>"
            },
            "entry": [
              {
                "reference": "urn:uuid:ec017bda-a93e-4069-b939-66fa4b35507b"
              },
              {
                "reference": "urn:uuid:cf4699fc-4167-42f4-89b3-89a705ebae3f"
              },
              {
                "reference": "urn:uuid:40a2cf3c-4b20-4e0d-928d-13c6c6f30ec4"
              },
              {
                "reference": "urn:uuid:bc09c070-87ca-4785-8cdb-9adf09c4acfb"
              },
              {
                "reference": "urn:uuid:d996154b-f78b-474d-bee1-c1e00eb88055"
              },
              {
                "reference": "urn:uuid:9f3eec96-47c5-4bae-af94-d449c2de40e0"
              },
              {
                "reference": "urn:uuid:7fb5750b-f557-4796-b783-a8a93fed51cc"
              },
              {
                "reference": "urn:uuid:b24b1f20-3e45-484e-915d-2a4c0f6bdcd8"
              },
              {
                "reference": "urn:uuid:f2f6270d-45e7-409e-bf91-a7e4677600c6"
              },
              {
                "reference": "urn:uuid:d2d1e1c6-cf96-42a9-892a-13cc8dcd1fe9"
              },
              {
                "reference": "urn:uuid:d2f6308e-8b54-43c9-924e-8100c0728b83"
              },
              {
                "reference": "urn:uuid:e790b30f-0235-479f-a4ff-0cb2ab26c11c"
              },
              {
                "reference": "urn:uuid:441ed7e3-1d16-4f18-9b7e-bd7cc84adad1"
              },
              {
                "reference": "urn:uuid:9de93bd8-edf9-4641-a3ee-ceb9f2cce586"
              },
              {
                "reference": "urn:uuid:72514142-4cdd-4a78-9d27-b49907863857"
              },
              {
                "reference": "urn:uuid:7cdd2466-190f-4163-b875-ab2aeb388134"
              }
            ],
            "code": {
              "coding": [
                {
                  "system": "http://loinc.org",
                  "code": "8716-3",
                  "display": "Vital signs note"
                }
              ]
            },
            "title": "Vital Signs"
          },
          {
            "text": {
              "status": "generated",
              "div": "<div xmlns=\"http://www.w3.org/1999/xhtml\"><table class=\"hl7__ips\"><table class=\"hl7__ips\"><thead><tr><th>Recent Lab Observations</th><th>05-MAY-2025</th><th>Reference&#xA0;Range</th><th>Unit</th></tr></thead><tbody><tr><td>Hemoglobin A1c/Hemoglobin.total in Blood</td><td>6.0</td><td>4 - 6</td><td>%</td></tr><tr><td>Glucose [Mass/volume] in Blood</td><td>76.1</td><td>70 - 140</td><td>mg/dL</td></tr><tr><td>Urea nitrogen [Mass/volume] in Blood</td><td>18.9</td><td>7 - 20</td><td>mg/dL</td></tr><tr><td>Creatinine [Mass/volume] in Blood</td><td>0.9</td><td>0.9 - 1.3</td><td>mg/dL</td></tr><tr><td>Calcium [Mass/volume] in Blood</td><td>9.4</td><td>8.5 - 10.5</td><td>mg/dL</td></tr><tr><td>Sodium [Moles/volume] in Blood</td><td>136.5</td><td>135 - 145</td><td>mmol/L</td></tr><tr><td>Potassium [Moles/volume] in Blood</td><td>4.3</td><td>3.5 - 5</td><td>mmol/L</td></tr><tr><td>Chloride [Moles/volume] in Blood</td><td>104.3</td><td>98 - 110</td><td>mmol/L</td></tr><tr><td>Carbon dioxide, total [Moles/volume] in Blood</td><td><strong>20.4 L</strong></td><td>22 - 32</td><td>mmol/L</td></tr><tr><td>Cholesterol [Mass/volume] in Serum or Plasma</td><td><strong>214.9 H</strong></td><td>125 - 200</td><td>mg/dL</td></tr><tr><td>Triglyceride [Mass/volume] in Serum or Plasma</td><td>141.2</td><td>0 - 150</td><td>mg/dL</td></tr><tr><td>Cholesterol in LDL [Mass/volume] in Serum or Plasma by Direct assay</td><td><strong>159.3 H</strong></td><td>0 - 130</td><td>mg/dL</td></tr><tr><td>Cholesterol in HDL [Mass/volume] in Serum or Plasma</td><td><strong>27.4 L</strong></td><td>40 - 60</td><td>mg/dL</td></tr></tbody></table></table></div>"
            },
            "entry": [
              {
                "reference": "urn:uuid:aefdb9f2-5c08-4e0f-9927-b9a0093557ed"
              },
              {
                "reference": "urn:uuid:a1f03d19-08b4-4ee6-8a60-035e55875c21"
              },
              {
                "reference": "urn:uuid:f9fb7a5c-0f0c-4fc1-b883-7c74e3957f93"
              },
              {
                "reference": "urn:uuid:0fb88401-fbfc-4d49-a675-790678dfc534"
              },
              {
                "reference": "urn:uuid:3a477f19-c8c7-49fc-9f65-fcaf3f472afa"
              },
              {
                "reference": "urn:uuid:51cc3b1e-bb58-4c0d-a9f9-ee8b3d9edd49"
              },
              {
                "reference": "urn:uuid:ad3986ec-97be-4f40-b787-24da3766477a"
              },
              {
                "reference": "urn:uuid:7ad4e48b-e49b-41f0-a1c7-9b26e9ad858d"
              },
              {
                "reference": "urn:uuid:3fdd811f-1e8c-472e-99f8-36e69b17d197"
              },
              {
                "reference": "urn:uuid:24807622-f014-4285-a789-2d6049508c8d"
              },
              {
                "reference": "urn:uuid:aa108728-4f63-4f4a-956c-9f459ecefd27"
              },
              {
                "reference": "urn:uuid:68b57e19-d31a-4db6-9197-26af7bcd96b3"
              },
              {
                "reference": "urn:uuid:79602873-bef9-4b2b-9823-5602b85c7d95"
              }
            ],
            "code": {
              "coding": [
                {
                  "system": "http://loinc.org",
                  "code": "30954-2",
                  "display": "Relevant diagnostic tests/laboratory data note"
                }
              ]
            },
            "title": "Relevant diagnostic tests/laboratory data"
          },
          {
            "text": {
              "status": "generated",
              "div": "<div xmlns=\"http://www.w3.org/1999/xhtml\"><table class=\"hl7__ips\"><tr><th>Device</th><th>Date (since)</th></tr><tr><td>Blood glucose meter (physical object)</td><td><span class=\"nb\">12-Apr-1982</span></td></tr><tr><td>Home nebulizer (physical object)</td><td><span class=\"nb\">07-Sep-1979</span></td></tr></table></div>"
            },
            "entry": [
              {
                "reference": "urn:uuid:18968fbd-f9b4-4d2c-872a-2c119cd63224"
              },
              {
                "reference": "urn:uuid:7e9ae2fb-e61c-48aa-9c43-806d31db4a6b"
              }
            ],
            "code": {
              "coding": [
                {
                  "system": "http://loinc.org",
                  "code": "46264-8",
                  "display": "History of medical device use"
                }
              ]
            },
            "title": "Device Use"
          }
        ],
        "title": "European Patient Summary",
        "status": "final",
        "subject": {
          "reference": "urn:uuid:778adbee-7676-48d0-9ff3-98550713d442",
          "display": "Alessio Fanucci"
        },
        "custodian": {
          "reference": "urn:uuid:2a8a76c1-52c3-49ff-8cd1-40f3a31b261c"
        },
        "date": "2025-05-05",
        "confidentiality": "N"
      }
    },
    {
      "fullUrl": "urn:uuid:778adbee-7676-48d0-9ff3-98550713d442",
      "resource": {
        "resourceType": "Patient",
        "id": "778adbee-7676-48d0-9ff3-98550713d442",
        "meta": {
          "security": [
            {
              "system": "http://terminology.hl7.org/CodeSystem/v3-ActReason",
              "code": "HTEST"
            },
            {
              "system": "http://terminology.hl7.org/CodeSystem/v3-ActReason",
              "code": "TRAIN"
            }
          ],
          "tag": [
            {
              "system": "https://synderai.net/fhir/CodeSystem/tags",
              "code": "synthetic",
              "display": "SYNDERAI Synthetic data"
            }
          ],
          "profile": [
            "http://hl7.eu/fhir/eps/StructureDefinition/patient-eu-eps"
          ]
        },
        "identifier": [
          {
            "type": {
              "coding": [
                {
                  "code": "PT",
                  "system": "http://terminology.hl7.org/CodeSystem/v2-0203"
                }
              ]
            },
            "system": "http://ec.europa.eu/identifier/eci",
            "value": "4754-874768-3"
          },
          {
            "type": {
              "coding": [
                {
                  "code": "MR",
                  "system": "http://terminology.hl7.org/CodeSystem/v2-0203"
                }
              ]
            },
            "system": "http://local.setting.eu/identifier",
            "value": "4b888823-bdd8-59a3-b785-e7ba28e6a7b5"
          }
        ],
        "name": [
          {
            "family": "Fanucci"
          },
          {
            "given": [
              "Alessio"
            ]
          },
          {
            "text": "Alessio Fanucci"
          }
        ],
        "address": [
          {
            "line": [
              "Incrocio Combi, 822"
            ],
            "use": "home",
            "type": "physical",
            "postalCode": "33015",
            "city": "Moggio Udinese",
            "country": "Italy"
          }
        ],
        "telecom": [
          {
            "system": "phone",
            "value": "0125684636"
          }
        ],
        "extension": [
          {
            "url": "http://hl7.org/fhir/StructureDefinition/patient-nationality",
            "valueCodeableConcept": {
              "coding": [
                {
                  "code": "IT",
                  "system": "http://hl7.org/fhir/ValueSet/country"
                }
              ]
            }
          }
        ],
        "text": {
          "status": "generated",
          "div": "<div xmlns=\"http://www.w3.org/1999/xhtml\"><table class=\"hl7__ips\"><tr><td>Alessio Fanucci</td><td>male</td><td>12-Sep-1964</td></tr></table></div>"
        },
        "gender": "male",
        "birthDate": "1964-09-12"
      }
    },
    {
      "fullUrl": "urn:uuid:94113981-1768-467d-bd53-afff4e23765d",
      "resource": {
        "resourceType": "PractitionerRole",
        "id": "94113981-1768-467d-bd53-afff4e23765d",
        "meta": {
          "profile": [
            "http://hl7.eu/fhir/base/StructureDefinition/practitionerRole-eu"
          ]
        },
        "text": {
          "status": "generated",
          "div": "<div xmlns=\"http://www.w3.org/1999/xhtml\"><table class=\"hl7__ips\">Provider Role Id 94113981-1768-467d-bd53-afff4e23765d</table></div>"
        },
        "practitioner": {
          "reference": "urn:uuid:b2f3587f-c8ad-49fb-845e-e15287b20773"
        },
        "organization": {
          "reference": "urn:uuid:2a8a76c1-52c3-49ff-8cd1-40f3a31b261c"
        }
      }
    },
    {
      "fullUrl": "urn:uuid:b2f3587f-c8ad-49fb-845e-e15287b20773",
      "resource": {
        "resourceType": "Practitioner",
        "id": "b2f3587f-c8ad-49fb-845e-e15287b20773",
        "meta": {
          "profile": [
            "http://hl7.eu/fhir/base/StructureDefinition/practitioner-eu"
          ]
        },
        "name": [
          {
            "prefix": [
              "Dr."
            ],
            "given": [
              "Hel"
            ],
            "family": "Ping"
          }
        ],
        "text": {
          "status": "generated",
          "div": "<div xmlns=\"http://www.w3.org/1999/xhtml\"><table class=\"hl7__ips\">Dr. Hel Ping</table></div>"
        }
      }
    },
    {
      "fullUrl": "urn:uuid:2a8a76c1-52c3-49ff-8cd1-40f3a31b261c",
      "resource": {
        "resourceType": "Organization",
        "id": "2a8a76c1-52c3-49ff-8cd1-40f3a31b261c",
        "meta": {
          "profile": [
            "http://hl7.eu/fhir/base/StructureDefinition/organization-eu"
          ]
        },
        "identifier": [
          {
            "assigner": {
              "display": "HL7 Europe"
            },
            "system": "urn:oid:2.16.840.1.113883.2.51.999",
            "value": "c3a336d3-a4bc-4d24-b68b-3d5502dea535"
          }
        ],
        "address": [
          {
            "city": "Artegna",
            "postalCode": "33011",
            "country": "Italy"
          }
        ],
        "text": {
          "status": "generated",
          "div": "<div xmlns=\"http://www.w3.org/1999/xhtml\"><table class=\"hl7__ips\">Ambulatori</table></div>"
        },
        "name": "Ambulatori"
      }
    },
    {
      "fullUrl": "urn:uuid:4e5ea37d-a04f-4dc0-88cb-4b269b440c41",
      "resource": {
        "resourceType": "Condition",
        "id": "4e5ea37d-a04f-4dc0-88cb-4b269b440c41",
        "meta": {
          "profile": [
            "http://hl7.org/fhir/uv/ips/StructureDefinition/Condition-uv-ips"
          ]
        },
        "category": [
          {
            "coding": [
              {
                "code": "problem-list-item",
                "system": "http://terminology.hl7.org/CodeSystem/condition-category",
                "display": "Problem List Item"
              }
            ]
          }
        ],
        "code": {
          "coding": [
            {
              "code": "15777000",
              "system": "http://snomed.info/sct",
              "display": "Prediabetes (disorder)"
            }
          ],
          "text": "Prediabetes"
        },
        "text": {
          "status": "generated",
          "div": "<div xmlns=\"http://www.w3.org/1999/xhtml\"><table class=\"hl7__ips\"><tr><td>Prediabetes</td><td><span class=\"nb\">12-Apr-1982</span></td><td>active</td></tr></table></div>"
        },
        "onsetDateTime": "1982-04-12",
        "subject": {
          "reference": "urn:uuid:",
          "display": "Alessio Fanucci"
        },
        "asserter": {
          "reference": "urn:uuid:",
          "display": "Ambulatori"
        }
      }
    },
    {
      "fullUrl": "urn:uuid:fcaea485-6b6c-41fb-bb3a-0f420daa01e3",
      "resource": {
        "resourceType": "Condition",
        "id": "fcaea485-6b6c-41fb-bb3a-0f420daa01e3",
        "meta": {
          "profile": [
            "http://hl7.org/fhir/uv/ips/StructureDefinition/Condition-uv-ips"
          ]
        },
        "category": [
          {
            "coding": [
              {
                "code": "problem-list-item",
                "system": "http://terminology.hl7.org/CodeSystem/condition-category",
                "display": "Problem List Item"
              }
            ]
          }
        ],
        "code": {
          "coding": [
            {
              "code": "271737000",
              "system": "http://snomed.info/sct",
              "display": "Anemia (disorder)"
            }
          ],
          "text": "Anemia"
        },
        "text": {
          "status": "generated",
          "div": "<div xmlns=\"http://www.w3.org/1999/xhtml\"><table class=\"hl7__ips\"><tr><td>Anemia</td><td><span class=\"nb\">12-Apr-1982</span></td><td>active</td></tr></table></div>"
        },
        "onsetDateTime": "1982-04-12",
        "subject": {
          "reference": "urn:uuid:",
          "display": "Alessio Fanucci"
        },
        "asserter": {
          "reference": "urn:uuid:",
          "display": "Ambulatori"
        }
      }
    },
    {
      "fullUrl": "urn:uuid:dc85a175-5aa9-41c5-b64c-8428dbd323d5",
      "resource": {
        "resourceType": "Condition",
        "id": "dc85a175-5aa9-41c5-b64c-8428dbd323d5",
        "meta": {
          "profile": [
            "http://hl7.org/fhir/uv/ips/StructureDefinition/Condition-uv-ips"
          ]
        },
        "category": [
          {
            "coding": [
              {
                "code": "problem-list-item",
                "system": "http://terminology.hl7.org/CodeSystem/condition-category",
                "display": "Problem List Item"
              }
            ]
          }
        ],
        "code": {
          "coding": [
            {
              "code": "40055000",
              "system": "http://snomed.info/sct",
              "display": "Chronic sinusitis (disorder)"
            }
          ],
          "text": "Chronic sinusitis"
        },
        "text": {
          "status": "generated",
          "div": "<div xmlns=\"http://www.w3.org/1999/xhtml\"><table class=\"hl7__ips\"><tr><td>Chronic sinusitis</td><td><span class=\"nb\">07-Sep-1979</span></td><td>active</td></tr></table></div>"
        },
        "onsetDateTime": "1979-09-07",
        "subject": {
          "reference": "urn:uuid:",
          "display": "Alessio Fanucci"
        },
        "asserter": {
          "reference": "urn:uuid:",
          "display": "Ambulatori"
        }
      }
    },
    {
      "fullUrl": "urn:uuid:359bbd5c-f3ce-428b-8f41-8ad52d3e455d",
      "resource": {
        "resourceType": "Condition",
        "id": "359bbd5c-f3ce-428b-8f41-8ad52d3e455d",
        "meta": {
          "profile": [
            "http://hl7.org/fhir/uv/ips/StructureDefinition/Condition-uv-ips"
          ]
        },
        "category": [
          {
            "coding": [
              {
                "code": "problem-list-item",
                "system": "http://terminology.hl7.org/CodeSystem/condition-category",
                "display": "Problem List Item"
              }
            ]
          }
        ],
        "code": {
          "coding": [
            {
              "code": "10509002",
              "system": "http://snomed.info/sct",
              "display": "Acute bronchitis (disorder)"
            }
          ],
          "text": "Acute bronchitis"
        },
        "text": {
          "status": "generated",
          "div": "<div xmlns=\"http://www.w3.org/1999/xhtml\"><table class=\"hl7__ips\"><tr><td><span class=\"grayedout\">Acute bronchitis</span></td><td><span class=\"nb\">07-Feb-2022 - 26-Feb-2022</span></td><td><span class=\"grayedout\">inactive</span></td></tr></table></div>"
        },
        "onsetDateTime": "2022-02-07",
        "abatementDateTime": "2022-02-26",
        "subject": {
          "reference": "urn:uuid:",
          "display": "Alessio Fanucci"
        },
        "asserter": {
          "reference": "urn:uuid:",
          "display": "Ambulatori"
        }
      }
    },
    {
      "fullUrl": "urn:uuid:5bfebb20-b2aa-4b3d-937f-9424eeb4ea10",
      "resource": {
        "resourceType": "Condition",
        "id": "5bfebb20-b2aa-4b3d-937f-9424eeb4ea10",
        "meta": {
          "profile": [
            "http://hl7.org/fhir/uv/ips/StructureDefinition/Condition-uv-ips"
          ]
        },
        "category": [
          {
            "coding": [
              {
                "code": "problem-list-item",
                "system": "http://terminology.hl7.org/CodeSystem/condition-category",
                "display": "Problem List Item"
              }
            ]
          }
        ],
        "code": {
          "coding": [
            {
              "code": "10509002",
              "system": "http://snomed.info/sct",
              "display": "Acute bronchitis (disorder)"
            }
          ],
          "text": "Acute bronchitis"
        },
        "text": {
          "status": "generated",
          "div": "<div xmlns=\"http://www.w3.org/1999/xhtml\"><table class=\"hl7__ips\"><tr><td><span class=\"grayedout\">Acute bronchitis</span></td><td><span class=\"nb\">27-Aug-2018 - 10-Sep-2018</span></td><td><span class=\"grayedout\">inactive</span></td></tr></table></div>"
        },
        "onsetDateTime": "2018-08-27",
        "abatementDateTime": "2018-09-10",
        "subject": {
          "reference": "urn:uuid:",
          "display": "Alessio Fanucci"
        },
        "asserter": {
          "reference": "urn:uuid:",
          "display": "Ambulatori"
        }
      }
    },
    {
      "fullUrl": "urn:uuid:ae9e36f6-56eb-4b0f-b3cc-c5965fe83937",
      "resource": {
        "resourceType": "Condition",
        "id": "ae9e36f6-56eb-4b0f-b3cc-c5965fe83937",
        "meta": {
          "profile": [
            "http://hl7.org/fhir/uv/ips/StructureDefinition/Condition-uv-ips"
          ]
        },
        "category": [
          {
            "coding": [
              {
                "code": "problem-list-item",
                "system": "http://terminology.hl7.org/CodeSystem/condition-category",
                "display": "Problem List Item"
              }
            ]
          }
        ],
        "code": {
          "coding": [
            {
              "code": "307426000",
              "system": "http://snomed.info/sct",
              "display": "Acute infective cystitis (disorder)"
            }
          ],
          "text": "Acute infective cystitis"
        },
        "text": {
          "status": "generated",
          "div": "<div xmlns=\"http://www.w3.org/1999/xhtml\"><table class=\"hl7__ips\"><tr><td><span class=\"grayedout\">Acute infective cystitis</span></td><td><span class=\"nb\">26-Dec-2017 - 27-Dec-2017</span></td><td><span class=\"grayedout\">inactive</span></td></tr></table></div>"
        },
        "onsetDateTime": "2017-12-26",
        "abatementDateTime": "2017-12-27",
        "subject": {
          "reference": "urn:uuid:",
          "display": "Alessio Fanucci"
        },
        "asserter": {
          "reference": "urn:uuid:",
          "display": "Ambulatori"
        }
      }
    },
    {
      "fullUrl": "urn:uuid:ff40013c-cd0a-4eb4-a804-553f3b34f14b",
      "resource": {
        "resourceType": "Condition",
        "id": "ff40013c-cd0a-4eb4-a804-553f3b34f14b",
        "meta": {
          "profile": [
            "http://hl7.org/fhir/uv/ips/StructureDefinition/Condition-uv-ips"
          ]
        },
        "category": [
          {
            "coding": [
              {
                "code": "problem-list-item",
                "system": "http://terminology.hl7.org/CodeSystem/condition-category",
                "display": "Problem List Item"
              }
            ]
          }
        ],
        "code": {
          "coding": [
            {
              "code": "10509002",
              "system": "http://snomed.info/sct",
              "display": "Acute bronchitis (disorder)"
            }
          ],
          "text": "Acute bronchitis"
        },
        "text": {
          "status": "generated",
          "div": "<div xmlns=\"http://www.w3.org/1999/xhtml\"><table class=\"hl7__ips\"><tr><td><span class=\"grayedout\">Acute bronchitis</span></td><td><span class=\"nb\">07-Aug-2016 - 21-Aug-2016</span></td><td><span class=\"grayedout\">inactive</span></td></tr></table></div>"
        },
        "onsetDateTime": "2016-08-07",
        "abatementDateTime": "2016-08-21",
        "subject": {
          "reference": "urn:uuid:",
          "display": "Alessio Fanucci"
        },
        "asserter": {
          "reference": "urn:uuid:",
          "display": "Ambulatori"
        }
      }
    },
    {
      "fullUrl": "urn:uuid:5a93c76a-ff97-4afc-9b60-85d517409bd4",
      "resource": {
        "resourceType": "Medication",
        "id": "5a93c76a-ff97-4afc-9b60-85d517409bd4",
        "meta": {
          "profile": [
            "http://hl7.eu/fhir/eps/StructureDefinition/Medication-eu-eps"
          ]
        },
        "code": {
          "coding": [
            {
              "code": "895498001",
              "system": "http://snomed.info/sct",
              "display": "Ferrous sulfate 325 mg prolonged-release oral tablet"
            }
          ],
          "text": "Ferrous sulfate 325 mg prolonged-release oral tablet"
        },
        "text": {
          "status": "generated",
          "div": "<div xmlns=\"http://www.w3.org/1999/xhtml\">Ferrous sulfate 325 mg prolonged-release oral tablet</div>"
        }
      }
    },
    {
      "fullUrl": "urn:uuid:b89272b4-6c28-43ff-a471-e9bc4413335e",
      "resource": {
        "resourceType": "MedicationStatement",
        "id": "b89272b4-6c28-43ff-a471-e9bc4413335e",
        "meta": {
          "profile": [
            "http://hl7.eu/fhir/eps/StructureDefinition/MedicationStatement-eu-eps"
          ]
        },
        "effectivePeriod": {
          "start": "1982-04-19"
        },
        "dosage": [
          {
            "doseAndRate": [
              {
                "doseQuantity": {
                  "value": 1,
                  "unit": "{tbl}",
                  "system": "$ucum",
                  "code": "{tbl}"
                }
              }
            ],
            "timing": {
              "repeat": {
                "frequency": 1,
                "period": 1,
                "periodUnit": "d"
              }
            },
            "text": "1 tablet (325 mg) by mouth once daily",
            "asNeededBoolean": false
          }
        ],
        "text": {
          "status": "generated",
          "div": "<div xmlns=\"http://www.w3.org/1999/xhtml\"><table class=\"hl7__ips first25\"><tr><th>Medication</th><th>Since</th><th>Form</th><th>Dosage</th><th>Reason</th></tr><tr><td>Ferrous sulfate 325 mg prolonged-release oral tablet</td><td><span class=\"nb\">1982-04-19</span></td><td>-</td><td>1 tablet (325 mg) by mouth once daily</td><td>-</td></tr></table></div>"
        },
        "status": "active",
        "medicationReference": {
          "reference": "urn:uuid:5a93c76a-ff97-4afc-9b60-85d517409bd4",
          "display": "Ferrous sulfate 325 mg prolonged-release oral tablet"
        },
        "subject": {
          "reference": "urn:uuid:778adbee-7676-48d0-9ff3-98550713d442",
          "display": "Alessio Fanucci"
        }
      }
    },
    {
      "fullUrl": "urn:uuid:baf88719-b8ab-4136-8941-2ef55ddcfbf1",
      "resource": {
        "resourceType": "Medication",
        "id": "baf88719-b8ab-4136-8941-2ef55ddcfbf1",
        "meta": {
          "profile": [
            "http://hl7.eu/fhir/eps/StructureDefinition/Medication-eu-eps"
          ]
        },
        "code": {
          "coding": [
            {
              "code": "2001499",
              "system": "http://www.nlm.nih.gov/research/umls/rxnorm",
              "display": "Vitamin B12 5 MG/ML Injectable Solution"
            }
          ],
          "text": "Vitamin B12 5 MG/ML Injectable Solution"
        },
        "text": {
          "status": "generated",
          "div": "<div xmlns=\"http://www.w3.org/1999/xhtml\">Vitamin B12 5 MG/ML Injectable Solution</div>"
        }
      }
    },
    {
      "fullUrl": "urn:uuid:a84864c9-3958-427d-9062-073d933595d5",
      "resource": {
        "resourceType": "MedicationStatement",
        "id": "a84864c9-3958-427d-9062-073d933595d5",
        "meta": {
          "profile": [
            "http://hl7.eu/fhir/eps/StructureDefinition/MedicationStatement-eu-eps"
          ]
        },
        "effectivePeriod": {
          "start": "1982-04-19"
        },
        "dosage": [
          {
            "doseAndRate": [
              {
                "doseQuantity": {
                  "value": 1,
                  "unit": "mL",
                  "system": "$ucum",
                  "code": "mL"
                }
              }
            ],
            "timing": {
              "repeat": {
                "frequency": 1,
                "period": 1,
                "periodUnit": "mo"
              }
            },
            "text": "1 mL (5 mg) injected intramuscularly once monthly",
            "asNeededBoolean": false
          }
        ],
        "text": {
          "status": "generated",
          "div": "<div xmlns=\"http://www.w3.org/1999/xhtml\"><table class=\"hl7__ips first25\"><tr><th>Medication</th><th>Since</th><th>Form</th><th>Dosage</th><th>Reason</th></tr><tr><td>Vitamin B12 5 MG/ML Injectable Solution</td><td><span class=\"nb\">1982-04-19</span></td><td>-</td><td>1 mL (5 mg) injected intramuscularly once monthly</td><td>-</td></tr></table></div>"
        },
        "status": "active",
        "medicationReference": {
          "reference": "urn:uuid:baf88719-b8ab-4136-8941-2ef55ddcfbf1",
          "display": "Vitamin B12 5 MG/ML Injectable Solution"
        },
        "subject": {
          "reference": "urn:uuid:778adbee-7676-48d0-9ff3-98550713d442",
          "display": "Alessio Fanucci"
        }
      }
    },
    {
      "fullUrl": "urn:uuid:86f4fab0-317b-4faf-92ec-0e1d25e44d73",
      "resource": {
        "resourceType": "Immunization",
        "id": "86f4fab0-317b-4faf-92ec-0e1d25e44d73",
        "meta": {
          "profile": [
            "http://hl7.org/fhir/uv/ips/StructureDefinition/Immunization-uv-ips"
          ]
        },
        "vaccineCode": {
          "coding": [
            {
              "code": "51451000087105",
              "system": "http://snomed.info/sct",
              "display": "Vaccine product containing Streptococcus pneumoniae capsular polysaccharide antigens conjugated"
            },
            {
              "code": "J07AL02",
              "system": "http://www.whocc.no/atc",
              "display": "Pneumococcal conjugate vaccines"
            }
          ],
          "text": "Streptococcus pneumoniae Danish serotype 1"
        },
        "site": {
          "coding": [
            {
              "code": "244979005",
              "system": "http://snomed.info/sct",
              "display": "Entire muscle of upper arm"
            }
          ],
          "text": "Entire muscle of upper arm"
        },
        "route": {
          "coding": [
            {
              "code": "78421000",
              "system": "http://snomed.info/sct",
              "display": "Intramuscular route"
            }
          ],
          "text": "Intramuscular route"
        },
        "text": {
          "status": "generated",
          "div": "<div xmlns=\"http://www.w3.org/1999/xhtml\"><table class=\"hl7__ips\"><tr><td>Streptococcus pneumoniae Danish serotype 1</td><td><span class=\"nb\">05-May-2025</span></td></tr></table></div>"
        },
        "status": "completed",
        "patient": {
          "reference": "urn:uuid:778adbee-7676-48d0-9ff3-98550713d442",
          "display": "Alessio Fanucci"
        },
        "occurrenceDateTime": "2025-05-05",
        "lotNumber": "ZG-KTr18L",
        "expirationDate": "2026-02-25"
      }
    },
    {
      "fullUrl": "urn:uuid:12c740d4-8dee-478b-a2e8-591fc1d1a404",
      "resource": {
        "resourceType": "Immunization",
        "id": "12c740d4-8dee-478b-a2e8-591fc1d1a404",
        "meta": {
          "profile": [
            "http://hl7.org/fhir/uv/ips/StructureDefinition/Immunization-uv-ips"
          ]
        },
        "vaccineCode": {
          "coding": [
            {
              "code": "1181000221105",
              "system": "http://snomed.info/sct",
              "display": "Vaccine product containing Influenza virus antigen"
            },
            {
              "code": "J07BB02",
              "system": "http://www.whocc.no/atc",
              "display": "Influenza, inactivated, split virus"
            }
          ],
          "text": "Influenza virus antigen only vaccine product"
        },
        "site": {
          "coding": [
            {
              "code": "244979005",
              "system": "http://snomed.info/sct",
              "display": "Entire muscle of upper arm"
            }
          ],
          "text": "Entire muscle of upper arm"
        },
        "route": {
          "coding": [
            {
              "code": "78421000",
              "system": "http://snomed.info/sct",
              "display": "Intramuscular route"
            }
          ],
          "text": "Intramuscular route"
        },
        "text": {
          "status": "generated",
          "div": "<div xmlns=\"http://www.w3.org/1999/xhtml\"><table class=\"hl7__ips\"><tr><td>Influenza virus antigen only vaccine product</td><td><span class=\"nb\">05-May-2025</span></td></tr></table></div>"
        },
        "status": "completed",
        "patient": {
          "reference": "urn:uuid:778adbee-7676-48d0-9ff3-98550713d442",
          "display": "Alessio Fanucci"
        },
        "occurrenceDateTime": "2025-05-05",
        "lotNumber": "XK-OCxNdSdLc",
        "expirationDate": "2026-01-17"
      }
    },
    {
      "fullUrl": "urn:uuid:4efcbfb2-ff7d-4b98-a3e4-3200b20ae871",
      "resource": {
        "resourceType": "Immunization",
        "id": "4efcbfb2-ff7d-4b98-a3e4-3200b20ae871",
        "meta": {
          "profile": [
            "http://hl7.org/fhir/uv/ips/StructureDefinition/Immunization-uv-ips"
          ]
        },
        "vaccineCode": {
          "coding": [
            {
              "code": "1119349007",
              "system": "http://snomed.info/sct",
              "display": "Vaccine product containing SARS-CoV-2 mRNA"
            },
            {
              "code": "J07BX03",
              "system": "http://www.whocc.no/atc",
              "display": "COVID-19 mRNA vaccines"
            }
          ],
          "text": "SARS-CoV-2 mRNA vaccine"
        },
        "site": {
          "coding": [
            {
              "code": "244979005",
              "system": "http://snomed.info/sct",
              "display": "Entire muscle of upper arm"
            }
          ],
          "text": "Entire muscle of upper arm"
        },
        "route": {
          "coding": [
            {
              "code": "78421000",
              "system": "http://snomed.info/sct",
              "display": "Intramuscular route"
            }
          ],
          "text": "Intramuscular route"
        },
        "text": {
          "status": "generated",
          "div": "<div xmlns=\"http://www.w3.org/1999/xhtml\"><table class=\"hl7__ips\"><tr><td>SARS-CoV-2 mRNA vaccine</td><td><span class=\"nb\">26-Apr-2021</span></td></tr></table></div>"
        },
        "status": "completed",
        "patient": {
          "reference": "urn:uuid:778adbee-7676-48d0-9ff3-98550713d442",
          "display": "Alessio Fanucci"
        },
        "occurrenceDateTime": "2021-04-26",
        "lotNumber": "SZ-SnicFG",
        "expirationDate": "2021-11-26"
      }
    },
    {
      "fullUrl": "urn:uuid:5179ab04-082a-4d3a-a873-8034d14eb136",
      "resource": {
        "resourceType": "Immunization",
        "id": "5179ab04-082a-4d3a-a873-8034d14eb136",
        "meta": {
          "profile": [
            "http://hl7.org/fhir/uv/ips/StructureDefinition/Immunization-uv-ips"
          ]
        },
        "vaccineCode": {
          "coding": [
            {
              "code": "777725002",
              "system": "http://snomed.info/sct",
              "display": "Vaccine product containing only Clostridium tetani toxoid antigen adsorbed"
            },
            {
              "code": "J07AM51",
              "system": "http://www.whocc.no/atc",
              "display": "Diphtheria-tetanus vaccines, adult type"
            }
          ],
          "text": "Clostridium tetani toxoid antigen adsorbed only vaccine product"
        },
        "site": {
          "coding": [
            {
              "code": "244979005",
              "system": "http://snomed.info/sct",
              "display": "Entire muscle of upper arm"
            }
          ],
          "text": "Entire muscle of upper arm"
        },
        "route": {
          "coding": [
            {
              "code": "78421000",
              "system": "http://snomed.info/sct",
              "display": "Intramuscular route"
            }
          ],
          "text": "Intramuscular route"
        },
        "text": {
          "status": "generated",
          "div": "<div xmlns=\"http://www.w3.org/1999/xhtml\"><table class=\"hl7__ips\"><tr><td>Clostridium tetani toxoid antigen adsorbed only vaccine product</td><td><span class=\"nb\">12-Apr-2021</span></td></tr></table></div>"
        },
        "status": "completed",
        "patient": {
          "reference": "urn:uuid:778adbee-7676-48d0-9ff3-98550713d442",
          "display": "Alessio Fanucci"
        },
        "occurrenceDateTime": "2021-04-12",
        "lotNumber": "FC-jDrzZ0",
        "expirationDate": "2021-11-01"
      }
    },
    {
      "fullUrl": "urn:uuid:4289de89-3edb-4ab1-8f1c-63fcd34fe613",
      "resource": {
        "resourceType": "Procedure",
        "id": "4289de89-3edb-4ab1-8f1c-63fcd34fe613",
        "meta": {
          "profile": [
            "http://hl7.org/fhir/uv/ips/StructureDefinition/Procedure-uv-ips"
          ]
        },
        "code": {
          "coding": [
            {
              "code": "171207006",
              "system": "http://snomed.info/sct",
              "display": "Depression screening (procedure)"
            }
          ],
          "text": "Depression screening"
        },
        "text": {
          "status": "generated",
          "div": "<div xmlns=\"http://www.w3.org/1999/xhtml\"><table class=\"hl7__ips\"><tr><td>Depression screening</td><td><span class=\"nb\">24-Jan-2022</span></td><td>-</td></tr></table></div>"
        },
        "status": "completed",
        "performedDateTime": "2022-01-24",
        "subject": {
          "reference": "urn:uuid:",
          "display": "Alessio Fanucci"
        }
      }
    },
    {
      "fullUrl": "urn:uuid:85f04ed5-b8d7-4430-a007-774826706368",
      "resource": {
        "resourceType": "Procedure",
        "id": "85f04ed5-b8d7-4430-a007-774826706368",
        "meta": {
          "profile": [
            "http://hl7.org/fhir/uv/ips/StructureDefinition/Procedure-uv-ips"
          ]
        },
        "code": {
          "coding": [
            {
              "code": "710824005",
              "system": "http://snomed.info/sct",
              "display": "Assessment of health and social care needs (procedure)"
            }
          ],
          "text": "Assessment of health and social care needs"
        },
        "text": {
          "status": "generated",
          "div": "<div xmlns=\"http://www.w3.org/1999/xhtml\"><table class=\"hl7__ips\"><tr><td>Assessment of health and social care needs</td><td><span class=\"nb\">24-Jan-2022</span></td><td>-</td></tr></table></div>"
        },
        "status": "completed",
        "performedDateTime": "2022-01-24",
        "subject": {
          "reference": "urn:uuid:",
          "display": "Alessio Fanucci"
        }
      }
    },
    {
      "fullUrl": "urn:uuid:45bf776f-c0bb-49ed-ba33-56307ccd9db7",
      "resource": {
        "resourceType": "Procedure",
        "id": "45bf776f-c0bb-49ed-ba33-56307ccd9db7",
        "meta": {
          "profile": [
            "http://hl7.org/fhir/uv/ips/StructureDefinition/Procedure-uv-ips"
          ]
        },
        "code": {
          "coding": [
            {
              "code": "710841007",
              "system": "http://snomed.info/sct",
              "display": "Assessment of anxiety (procedure)"
            }
          ],
          "text": "Assessment of anxiety"
        },
        "text": {
          "status": "generated",
          "div": "<div xmlns=\"http://www.w3.org/1999/xhtml\"><table class=\"hl7__ips\"><tr><td>Assessment of anxiety</td><td><span class=\"nb\">24-Jan-2022</span></td><td>-</td></tr></table></div>"
        },
        "status": "completed",
        "performedDateTime": "2022-01-24",
        "subject": {
          "reference": "urn:uuid:",
          "display": "Alessio Fanucci"
        }
      }
    },
    {
      "fullUrl": "urn:uuid:5a20e628-2b6c-4b83-96ec-6ee1f8b4bc90",
      "resource": {
        "resourceType": "Procedure",
        "id": "5a20e628-2b6c-4b83-96ec-6ee1f8b4bc90",
        "meta": {
          "profile": [
            "http://hl7.org/fhir/uv/ips/StructureDefinition/Procedure-uv-ips"
          ]
        },
        "code": {
          "coding": [
            {
              "code": "454711000124102",
              "system": "http://snomed.info/sct",
              "display": "Depression screening using Patient Health Questionnaire Two-Item score (procedure)"
            }
          ]
        },
        "text": {
          "status": "generated",
          "div": "<div xmlns=\"http://www.w3.org/1999/xhtml\"><table class=\"hl7__ips\"><tr><td>Depression screening using Patient Health Questionnaire Two-Item score (procedure)</td><td><span class=\"nb\">24-Jan-2022</span></td><td>-</td></tr></table></div>"
        },
        "status": "completed",
        "performedDateTime": "2022-01-24",
        "subject": {
          "reference": "urn:uuid:",
          "display": "Alessio Fanucci"
        }
      }
    },
    {
      "fullUrl": "urn:uuid:0aa9ea5b-6e25-4955-8fae-a5dfd6e5ba30",
      "resource": {
        "resourceType": "Procedure",
        "id": "0aa9ea5b-6e25-4955-8fae-a5dfd6e5ba30",
        "meta": {
          "profile": [
            "http://hl7.org/fhir/uv/ips/StructureDefinition/Procedure-uv-ips"
          ]
        },
        "code": {
          "coding": [
            {
              "code": "14736009",
              "system": "http://snomed.info/sct",
              "display": "History and physical examination with evaluation and management of patient (procedure)"
            }
          ],
          "text": "Patient evaluation and management"
        },
        "text": {
          "status": "generated",
          "div": "<div xmlns=\"http://www.w3.org/1999/xhtml\"><table class=\"hl7__ips\"><tr><td>Patient evaluation and management</td><td><span class=\"nb\">26-Dec-2017</span></td><td>-</td></tr></table></div>"
        },
        "status": "completed",
        "performedDateTime": "2017-12-26",
        "subject": {
          "reference": "urn:uuid:",
          "display": "Alessio Fanucci"
        }
      }
    },
    {
      "fullUrl": "urn:uuid:e6983b93-287a-42d5-9b29-9305eced2605",
      "resource": {
        "resourceType": "Procedure",
        "id": "e6983b93-287a-42d5-9b29-9305eced2605",
        "meta": {
          "profile": [
            "http://hl7.org/fhir/uv/ips/StructureDefinition/Procedure-uv-ips"
          ]
        },
        "code": {
          "coding": [
            {
              "code": "57617002",
              "system": "http://snomed.info/sct",
              "display": "Urine specimen collection (procedure)"
            }
          ],
          "text": "Urine specimen collection"
        },
        "text": {
          "status": "generated",
          "div": "<div xmlns=\"http://www.w3.org/1999/xhtml\"><table class=\"hl7__ips\"><tr><td>Urine specimen collection</td><td><span class=\"nb\">26-Dec-2017</span></td><td>-</td></tr></table></div>"
        },
        "status": "completed",
        "performedDateTime": "2017-12-26",
        "subject": {
          "reference": "urn:uuid:",
          "display": "Alessio Fanucci"
        }
      }
    },
    {
      "fullUrl": "urn:uuid:4d86bae8-3967-4100-b4ec-b5b089d53224",
      "resource": {
        "resourceType": "Procedure",
        "id": "4d86bae8-3967-4100-b4ec-b5b089d53224",
        "meta": {
          "profile": [
            "http://hl7.org/fhir/uv/ips/StructureDefinition/Procedure-uv-ips"
          ]
        },
        "code": {
          "coding": [
            {
              "code": "58000006",
              "system": "http://snomed.info/sct",
              "display": "Patient discharge (procedure)"
            }
          ],
          "text": "Patient discharge"
        },
        "text": {
          "status": "generated",
          "div": "<div xmlns=\"http://www.w3.org/1999/xhtml\"><table class=\"hl7__ips\"><tr><td>Patient discharge</td><td><span class=\"nb\">26-Dec-2017</span></td><td>-</td></tr></table></div>"
        },
        "status": "completed",
        "performedDateTime": "2017-12-26",
        "subject": {
          "reference": "urn:uuid:",
          "display": "Alessio Fanucci"
        }
      }
    },
    {
      "fullUrl": "urn:uuid:4b3d4ac7-9186-4b74-bd22-358e576c48a3",
      "resource": {
        "resourceType": "Procedure",
        "id": "4b3d4ac7-9186-4b74-bd22-358e576c48a3",
        "meta": {
          "profile": [
            "http://hl7.org/fhir/uv/ips/StructureDefinition/Procedure-uv-ips"
          ]
        },
        "code": {
          "coding": [
            {
              "code": "61746007",
              "system": "http://snomed.info/sct",
              "display": "Taking patient vital signs (procedure)"
            }
          ],
          "text": "Taking patient vital signs"
        },
        "text": {
          "status": "generated",
          "div": "<div xmlns=\"http://www.w3.org/1999/xhtml\"><table class=\"hl7__ips\"><tr><td>Taking patient vital signs</td><td><span class=\"nb\">26-Dec-2017</span></td><td>-</td></tr></table></div>"
        },
        "status": "completed",
        "performedDateTime": "2017-12-26",
        "subject": {
          "reference": "urn:uuid:",
          "display": "Alessio Fanucci"
        }
      }
    },
    {
      "fullUrl": "urn:uuid:4f57b226-c8fd-4af5-bf82-d219223d3e08",
      "resource": {
        "resourceType": "Procedure",
        "id": "4f57b226-c8fd-4af5-bf82-d219223d3e08",
        "meta": {
          "profile": [
            "http://hl7.org/fhir/uv/ips/StructureDefinition/Procedure-uv-ips"
          ]
        },
        "code": {
          "coding": [
            {
              "code": "84100007",
              "system": "http://snomed.info/sct",
              "display": "History taking (procedure)"
            }
          ],
          "text": "History taking"
        },
        "text": {
          "status": "generated",
          "div": "<div xmlns=\"http://www.w3.org/1999/xhtml\"><table class=\"hl7__ips\"><tr><td>History taking</td><td><span class=\"nb\">26-Dec-2017</span></td><td>-</td></tr></table></div>"
        },
        "status": "completed",
        "performedDateTime": "2017-12-26",
        "subject": {
          "reference": "urn:uuid:",
          "display": "Alessio Fanucci"
        }
      }
    },
    {
      "fullUrl": "urn:uuid:95600e6f-d199-4c15-b657-a35c8bfea8b7",
      "resource": {
        "resourceType": "Procedure",
        "id": "95600e6f-d199-4c15-b657-a35c8bfea8b7",
        "meta": {
          "profile": [
            "http://hl7.org/fhir/uv/ips/StructureDefinition/Procedure-uv-ips"
          ]
        },
        "code": {
          "coding": [
            {
              "code": "223470000",
              "system": "http://snomed.info/sct",
              "display": "Discussion about signs and symptoms (procedure)"
            }
          ],
          "text": "Discussion about signs and symptoms"
        },
        "text": {
          "status": "generated",
          "div": "<div xmlns=\"http://www.w3.org/1999/xhtml\"><table class=\"hl7__ips\"><tr><td>Discussion about signs and symptoms</td><td><span class=\"nb\">26-Dec-2017</span></td><td>-</td></tr></table></div>"
        },
        "status": "completed",
        "performedDateTime": "2017-12-26",
        "subject": {
          "reference": "urn:uuid:",
          "display": "Alessio Fanucci"
        }
      }
    },
    {
      "fullUrl": "urn:uuid:402dc68e-8484-4368-a8d8-795ddd1ef521",
      "resource": {
        "resourceType": "Procedure",
        "id": "402dc68e-8484-4368-a8d8-795ddd1ef521",
        "meta": {
          "profile": [
            "http://hl7.org/fhir/uv/ips/StructureDefinition/Procedure-uv-ips"
          ]
        },
        "code": {
          "coding": [
            {
              "code": "281789004",
              "system": "http://snomed.info/sct",
              "display": "Antibiotic therapy (procedure)"
            }
          ],
          "text": "Antibiotic therapy"
        },
        "text": {
          "status": "generated",
          "div": "<div xmlns=\"http://www.w3.org/1999/xhtml\"><table class=\"hl7__ips\"><tr><td>Antibiotic therapy</td><td><span class=\"nb\">26-Dec-2017</span></td><td>-</td></tr></table></div>"
        },
        "status": "completed",
        "performedDateTime": "2017-12-26",
        "subject": {
          "reference": "urn:uuid:",
          "display": "Alessio Fanucci"
        }
      }
    },
    {
      "fullUrl": "urn:uuid:d493b04e-449f-4f99-a27a-a4a8071ef671",
      "resource": {
        "resourceType": "Procedure",
        "id": "d493b04e-449f-4f99-a27a-a4a8071ef671",
        "meta": {
          "profile": [
            "http://hl7.org/fhir/uv/ips/StructureDefinition/Procedure-uv-ips"
          ]
        },
        "code": {
          "coding": [
            {
              "code": "386478007",
              "system": "http://snomed.info/sct",
              "display": "Triage emergency center (procedure)"
            }
          ],
          "text": "Triage: emergency center"
        },
        "text": {
          "status": "generated",
          "div": "<div xmlns=\"http://www.w3.org/1999/xhtml\"><table class=\"hl7__ips\"><tr><td>Triage: emergency center</td><td><span class=\"nb\">26-Dec-2017</span></td><td>-</td></tr></table></div>"
        },
        "status": "completed",
        "performedDateTime": "2017-12-26",
        "subject": {
          "reference": "urn:uuid:",
          "display": "Alessio Fanucci"
        }
      }
    },
    {
      "fullUrl": "urn:uuid:3fd35728-416a-4009-bfea-8ff33f75b32a",
      "resource": {
        "resourceType": "Procedure",
        "id": "3fd35728-416a-4009-bfea-8ff33f75b32a",
        "meta": {
          "profile": [
            "http://hl7.org/fhir/uv/ips/StructureDefinition/Procedure-uv-ips"
          ]
        },
        "code": {
          "coding": [
            {
              "code": "441550005",
              "system": "http://snomed.info/sct",
              "display": "Urinalysis with reflex to microscopy and culture (procedure)"
            }
          ],
          "text": "Urinalysis with reflex to microscopy and culture"
        },
        "text": {
          "status": "generated",
          "div": "<div xmlns=\"http://www.w3.org/1999/xhtml\"><table class=\"hl7__ips\"><tr><td>Urinalysis with reflex to microscopy and culture</td><td><span class=\"nb\">26-Dec-2017</span></td><td>-</td></tr></table></div>"
        },
        "status": "completed",
        "performedDateTime": "2017-12-26",
        "subject": {
          "reference": "urn:uuid:",
          "display": "Alessio Fanucci"
        }
      }
    },
    {
      "fullUrl": "urn:uuid:d093d9f1-35d1-47e2-9e49-7b3629863980",
      "resource": {
        "resourceType": "AllergyIntolerance",
        "id": "d093d9f1-35d1-47e2-9e49-7b3629863980",
        "meta": {
          "profile": [
            "http://hl7.eu/fhir/eps/StructureDefinition/allergyIntolerance-eu-eps"
          ]
        },
        "code": {
          "text": ""
        },
        "clinicalStatus": {
          "coding": [
            {
              "code": "active",
              "system": "http://terminology.hl7.org/CodeSystem/allergyintolerance-clinical"
            }
          ]
        },
        "text": {
          "status": "generated",
          "div": "<div xmlns=\"http://www.w3.org/1999/xhtml\"><table class=\"hl7__ips\"><tr><th>Allergy/Intolerance</th><th>Onset Date</th><th>Status</th><th>Type</th><th>Reaction</th></tr><tr><td></td><td>?</td><td>active</td><td>?</td><td></td></tr></table></div>"
        },
        "verificationStatus": {
          "coding": [
            {
              "code": "confirmed",
              "system": "http://terminology.hl7.org/CodeSystem/allergyintolerance-verification"
            }
          ]
        },
        "patient": {
          "reference": "urn:uuid:778adbee-7676-48d0-9ff3-98550713d442",
          "display": "Alessio Fanucci"
        },
        "_onsetDateTime": {
          "extension": [
            {
              "url": "http://hl7.org/fhir/StructureDefinition/data-absent-reason",
              "valueCode": "unknown"
            }
          ]
        }
      }
    },
    {
      "fullUrl": "urn:uuid:e18fb315-f5cb-4a48-95d4-3663270e205d",
      "resource": {
        "resourceType": "CarePlan",
        "id": "e18fb315-f5cb-4a48-95d4-3663270e205d",
        "category": [
          {
            "coding": [
              {
                "code": "assess-plan",
                "system": "http://terminology.hl7.org/CodeSystem/care-plan-category",
                "display": "Assessment and Plan"
              }
            ]
          }
        ],
        "activity": [
          {
            "detail": {
              "code": {
                "coding": [
                  {
                    "code": "698360004",
                    "system": "http://snomed.info/sct",
                    "display": "Diabetes self management plan (qualifier value)"
                  }
                ]
              },
              "reasonCode": [
                {
                  "coding": [
                    {
                      "code": "15777000",
                      "system": "http://snomed.info/sct",
                      "display": "Prediabetes"
                    }
                  ]
                }
              ],
              "status": "unknown",
              "description": "Diabetes self management plan",
              "kind": "Appointment"
            }
          }
        ],
        "period": {
          "start": "1982-04-12"
        },
        "goal": [
          {
            "reference": "urn:uuid:48f0b9d2-59a5-45ec-9b30-e6aebec8f042"
          },
          {
            "reference": "urn:uuid:74cc9bcf-30ba-4964-b6ce-388fe09ad37b"
          },
          {
            "reference": "urn:uuid:777ec04a-2f2f-4f55-95e8-1e4f746af24f"
          }
        ],
        "text": {
          "status": "generated",
          "div": "<div xmlns=\"http://www.w3.org/1999/xhtml\"><table class=\"hl7__ips first25\"><tr><th>Active Planned Care / Goals</th><th>Start Date</th><th>Reason</th></tr><tr><td>Diabetes self management plan</td><td><span class=\"nb\">12-Apr-1982</span></td><td>Prediabetes</td></tr><tr><td><ul><li>Achieve and maintain Hemoglobin A1c below 5.7% through diabetes self-management.</li><li>Achieve and maintain a healthy body weight as part of diabetes self-management.</li><li>Engage in at least 150 minutes of moderate-intensity physical activity per week.</li></ul></td><td></td><td></td></tr></table></div>"
        },
        "status": "active",
        "intent": "plan",
        "subject": {
          "reference": "urn:uuid:778adbee-7676-48d0-9ff3-98550713d442",
          "display": "Alessio Fanucci"
        }
      }
    },
    {
      "fullUrl": "urn:uuid:ecfe27b5-afb7-4989-8f7e-c9b2ea738251",
      "resource": {
        "resourceType": "ImmunizationRecommendation",
        "id": "ecfe27b5-afb7-4989-8f7e-c9b2ea738251",
        "recommendation": [
          {
            "vaccineCode": [
              {
                "coding": [
                  {
                    "code": "1181000221105",
                    "system": "http://snomed.info/sct",
                    "display": "Vaccine product containing only Influenza virus antigen (medicinal product)"
                  }
                ]
              }
            ],
            "dateCriterion": [
              {
                "code": {
                  "coding": [
                    {
                      "code": "30980-7",
                      "system": "http://loinc.org",
                      "display": "Date vaccine due"
                    }
                  ]
                },
                "value": "2025-10-01"
              }
            ],
            "targetDisease": {
              "coding": [
                {
                  "code": "6142004",
                  "system": "http://snomed.info/sct",
                  "display": "Influenza (disorder)"
                }
              ]
            },
            "series": "Annual seasonal influenza vaccination",
            "forecastStatus": {
              "coding": [
                {
                  "code": "due",
                  "system": "http://terminology.hl7.org/CodeSystem/immunization-recommendation-status",
                  "display": "Due"
                }
              ]
            }
          }
        ],
        "text": {
          "status": "generated",
          "div": "<div xmlns=\"http://www.w3.org/1999/xhtml\"><table class=\"hl7__ips\"><tr><td>Vaccine product containing only Influenza virus antigen (medicinal product)</td><td><span class=\"nb\">01-Oct-2025</span></td><td>Annual seasonal influenza vaccination</td></tr></table></div>"
        },
        "date": "2025-10-22",
        "patient": {
          "reference": "urn:uuid:778adbee-7676-48d0-9ff3-98550713d442",
          "display": "Alessio Fanucci"
        }
      }
    },
    {
      "fullUrl": "urn:uuid:ec017bda-a93e-4069-b939-66fa4b35507b",
      "resource": {
        "resourceType": "Observation",
        "id": "ec017bda-a93e-4069-b939-66fa4b35507b",
        "meta": {
          "profile": [
            "http://hl7.org/fhir/StructureDefinition/vitalsigns"
          ]
        },
        "category": [
          {
            "coding": [
              {
                "system": "http://terminology.hl7.org/CodeSystem/observation-category",
                "code": "vital-signs",
                "display": "Vital Signs"
              }
            ]
          }
        ],
        "valueQuantity": {
          "value": 169.7,
          "code": "cm",
          "unit": "cm"
        },
        "text": {
          "status": "generated",
          "div": "<div xmlns=\"http://www.w3.org/1999/xhtml\"><table class=\"hl7__ips\"><tr><th>Vital Sign</th><th>Date</th><th>Measurement</th></tr><tr><td>Body Height</td><td>05-May-2025</td><td>169.7 cm</td></tr></table></div>"
        },
        "status": "final",
        "code": {
          "coding": [
            {
              "code": "$8302-2",
              "system": "http://loinc.org",
              "display": "Body Height"
            }
          ]
        },
        "subject": {
          "reference": "urn:uuid:778adbee-7676-48d0-9ff3-98550713d442",
          "display": "Alessio Fanucci"
        },
        "effectiveDateTime": "2025-05-05"
      }
    },
    {
      "fullUrl": "urn:uuid:cf4699fc-4167-42f4-89b3-89a705ebae3f",
      "resource": {
        "resourceType": "Observation",
        "id": "cf4699fc-4167-42f4-89b3-89a705ebae3f",
        "meta": {
          "profile": [
            "http://hl7.org/fhir/StructureDefinition/vitalsigns"
          ]
        },
        "category": [
          {
            "coding": [
              {
                "system": "http://terminology.hl7.org/CodeSystem/observation-category",
                "code": "vital-signs",
                "display": "Vital Signs"
              }
            ]
          }
        ],
        "valueQuantity": {
          "value": 2,
          "code": "{score}",
          "unit": "{score}"
        },
        "text": {
          "status": "generated",
          "div": "<div xmlns=\"http://www.w3.org/1999/xhtml\"><table class=\"hl7__ips\"><tr><th>Vital Sign</th><th>Date</th><th>Measurement</th></tr><tr><td>Pain severity - 0-10 verbal numeric rating [Score] - Reported</td><td>05-May-2025</td><td>2 {score}</td></tr></table></div>"
        },
        "status": "final",
        "code": {
          "coding": [
            {
              "code": "$72514-3",
              "system": "http://loinc.org",
              "display": "Pain severity - 0-10 verbal numeric rating [Score] - Reported"
            }
          ]
        },
        "subject": {
          "reference": "urn:uuid:778adbee-7676-48d0-9ff3-98550713d442",
          "display": "Alessio Fanucci"
        },
        "effectiveDateTime": "2025-05-05"
      }
    },
    {
      "fullUrl": "urn:uuid:40a2cf3c-4b20-4e0d-928d-13c6c6f30ec4",
      "resource": {
        "resourceType": "Observation",
        "id": "40a2cf3c-4b20-4e0d-928d-13c6c6f30ec4",
        "meta": {
          "profile": [
            "http://hl7.org/fhir/StructureDefinition/vitalsigns"
          ]
        },
        "category": [
          {
            "coding": [
              {
                "system": "http://terminology.hl7.org/CodeSystem/observation-category",
                "code": "vital-signs",
                "display": "Vital Signs"
              }
            ]
          }
        ],
        "valueQuantity": {
          "value": 78.9,
          "code": "kg",
          "unit": "kg"
        },
        "text": {
          "status": "generated",
          "div": "<div xmlns=\"http://www.w3.org/1999/xhtml\"><table class=\"hl7__ips\"><tr><th>Vital Sign</th><th>Date</th><th>Measurement</th></tr><tr><td>Body Weight</td><td>05-May-2025</td><td>78.9 kg</td></tr></table></div>"
        },
        "status": "final",
        "code": {
          "coding": [
            {
              "code": "$29463-7",
              "system": "http://loinc.org",
              "display": "Body Weight"
            }
          ]
        },
        "subject": {
          "reference": "urn:uuid:778adbee-7676-48d0-9ff3-98550713d442",
          "display": "Alessio Fanucci"
        },
        "effectiveDateTime": "2025-05-05"
      }
    },
    {
      "fullUrl": "urn:uuid:bc09c070-87ca-4785-8cdb-9adf09c4acfb",
      "resource": {
        "resourceType": "Observation",
        "id": "bc09c070-87ca-4785-8cdb-9adf09c4acfb",
        "meta": {
          "profile": [
            "http://hl7.org/fhir/StructureDefinition/vitalsigns"
          ]
        },
        "category": [
          {
            "coding": [
              {
                "system": "http://terminology.hl7.org/CodeSystem/observation-category",
                "code": "vital-signs",
                "display": "Vital Signs"
              }
            ]
          }
        ],
        "valueQuantity": {
          "value": 27.4,
          "code": "kg/m2",
          "unit": "kg/m2"
        },
        "text": {
          "status": "generated",
          "div": "<div xmlns=\"http://www.w3.org/1999/xhtml\"><table class=\"hl7__ips\"><tr><th>Vital Sign</th><th>Date</th><th>Measurement</th></tr><tr><td>Body mass index (BMI) [Ratio]</td><td>05-May-2025</td><td>27.4 kg/m2</td></tr></table></div>"
        },
        "status": "final",
        "code": {
          "coding": [
            {
              "code": "$39156-5",
              "system": "http://loinc.org",
              "display": "Body mass index (BMI) [Ratio]"
            }
          ]
        },
        "subject": {
          "reference": "urn:uuid:778adbee-7676-48d0-9ff3-98550713d442",
          "display": "Alessio Fanucci"
        },
        "effectiveDateTime": "2025-05-05"
      }
    },
    {
      "fullUrl": "urn:uuid:d996154b-f78b-474d-bee1-c1e00eb88055",
      "resource": {
        "resourceType": "Observation",
        "id": "d996154b-f78b-474d-bee1-c1e00eb88055",
        "meta": {
          "profile": [
            "http://hl7.org/fhir/StructureDefinition/vitalsigns"
          ]
        },
        "category": [
          {
            "coding": [
              {
                "system": "http://terminology.hl7.org/CodeSystem/observation-category",
                "code": "vital-signs",
                "display": "Vital Signs"
              }
            ]
          }
        ],
        "valueQuantity": {
          "value": 89,
          "code": "mm[Hg]",
          "unit": "mm[Hg]"
        },
        "text": {
          "status": "generated",
          "div": "<div xmlns=\"http://www.w3.org/1999/xhtml\"><table class=\"hl7__ips\"><tr><th>Vital Sign</th><th>Date</th><th>Measurement</th></tr><tr><td>Diastolic Blood Pressure</td><td>05-May-2025</td><td>89 mm[Hg]</td></tr></table></div>"
        },
        "status": "final",
        "code": {
          "coding": [
            {
              "code": "$8462-4",
              "system": "http://loinc.org",
              "display": "Diastolic Blood Pressure"
            }
          ]
        },
        "subject": {
          "reference": "urn:uuid:778adbee-7676-48d0-9ff3-98550713d442",
          "display": "Alessio Fanucci"
        },
        "effectiveDateTime": "2025-05-05"
      }
    },
    {
      "fullUrl": "urn:uuid:9f3eec96-47c5-4bae-af94-d449c2de40e0",
      "resource": {
        "resourceType": "Observation",
        "id": "9f3eec96-47c5-4bae-af94-d449c2de40e0",
        "meta": {
          "profile": [
            "http://hl7.org/fhir/StructureDefinition/vitalsigns"
          ]
        },
        "category": [
          {
            "coding": [
              {
                "system": "http://terminology.hl7.org/CodeSystem/observation-category",
                "code": "vital-signs",
                "display": "Vital Signs"
              }
            ]
          }
        ],
        "valueQuantity": {
          "value": 120,
          "code": "mm[Hg]",
          "unit": "mm[Hg]"
        },
        "text": {
          "status": "generated",
          "div": "<div xmlns=\"http://www.w3.org/1999/xhtml\"><table class=\"hl7__ips\"><tr><th>Vital Sign</th><th>Date</th><th>Measurement</th></tr><tr><td>Systolic Blood Pressure</td><td>05-May-2025</td><td>120 mm[Hg]</td></tr></table></div>"
        },
        "status": "final",
        "code": {
          "coding": [
            {
              "code": "$8480-6",
              "system": "http://loinc.org",
              "display": "Systolic Blood Pressure"
            }
          ]
        },
        "subject": {
          "reference": "urn:uuid:778adbee-7676-48d0-9ff3-98550713d442",
          "display": "Alessio Fanucci"
        },
        "effectiveDateTime": "2025-05-05"
      }
    },
    {
      "fullUrl": "urn:uuid:7fb5750b-f557-4796-b783-a8a93fed51cc",
      "resource": {
        "resourceType": "Observation",
        "id": "7fb5750b-f557-4796-b783-a8a93fed51cc",
        "meta": {
          "profile": [
            "http://hl7.org/fhir/StructureDefinition/vitalsigns"
          ]
        },
        "category": [
          {
            "coding": [
              {
                "system": "http://terminology.hl7.org/CodeSystem/observation-category",
                "code": "vital-signs",
                "display": "Vital Signs"
              }
            ]
          }
        ],
        "valueQuantity": {
          "value": 66,
          "code": "/min",
          "unit": "/min"
        },
        "text": {
          "status": "generated",
          "div": "<div xmlns=\"http://www.w3.org/1999/xhtml\"><table class=\"hl7__ips\"><tr><th>Vital Sign</th><th>Date</th><th>Measurement</th></tr><tr><td>Heart rate</td><td>05-May-2025</td><td>66 /min</td></tr></table></div>"
        },
        "status": "final",
        "code": {
          "coding": [
            {
              "code": "$8867-4",
              "system": "http://loinc.org",
              "display": "Heart rate"
            }
          ]
        },
        "subject": {
          "reference": "urn:uuid:778adbee-7676-48d0-9ff3-98550713d442",
          "display": "Alessio Fanucci"
        },
        "effectiveDateTime": "2025-05-05"
      }
    },
    {
      "fullUrl": "urn:uuid:b24b1f20-3e45-484e-915d-2a4c0f6bdcd8",
      "resource": {
        "resourceType": "Observation",
        "id": "b24b1f20-3e45-484e-915d-2a4c0f6bdcd8",
        "meta": {
          "profile": [
            "http://hl7.org/fhir/StructureDefinition/vitalsigns"
          ]
        },
        "category": [
          {
            "coding": [
              {
                "system": "http://terminology.hl7.org/CodeSystem/observation-category",
                "code": "vital-signs",
                "display": "Vital Signs"
              }
            ]
          }
        ],
        "valueQuantity": {
          "value": 14,
          "code": "/min",
          "unit": "/min"
        },
        "text": {
          "status": "generated",
          "div": "<div xmlns=\"http://www.w3.org/1999/xhtml\"><table class=\"hl7__ips\"><tr><th>Vital Sign</th><th>Date</th><th>Measurement</th></tr><tr><td>Respiratory rate</td><td>05-May-2025</td><td>14 /min</td></tr></table></div>"
        },
        "status": "final",
        "code": {
          "coding": [
            {
              "code": "$9279-1",
              "system": "http://loinc.org",
              "display": "Respiratory rate"
            }
          ]
        },
        "subject": {
          "reference": "urn:uuid:778adbee-7676-48d0-9ff3-98550713d442",
          "display": "Alessio Fanucci"
        },
        "effectiveDateTime": "2025-05-05"
      }
    },
    {
      "fullUrl": "urn:uuid:f2f6270d-45e7-409e-bf91-a7e4677600c6",
      "resource": {
        "resourceType": "Observation",
        "id": "f2f6270d-45e7-409e-bf91-a7e4677600c6",
        "meta": {
          "profile": [
            "http://hl7.org/fhir/StructureDefinition/vitalsigns"
          ]
        },
        "category": [
          {
            "coding": [
              {
                "system": "http://terminology.hl7.org/CodeSystem/observation-category",
                "code": "vital-signs",
                "display": "Vital Signs"
              }
            ]
          }
        ],
        "valueQuantity": {
          "value": 169.7,
          "code": "cm",
          "unit": "cm"
        },
        "text": {
          "status": "generated",
          "div": "<div xmlns=\"http://www.w3.org/1999/xhtml\"><table class=\"hl7__ips\"><tr><th>Vital Sign</th><th>Date</th><th>Measurement</th></tr><tr><td>Body Height</td><td>29-Apr-2024</td><td>169.7 cm</td></tr></table></div>"
        },
        "status": "final",
        "code": {
          "coding": [
            {
              "code": "$8302-2",
              "system": "http://loinc.org",
              "display": "Body Height"
            }
          ]
        },
        "subject": {
          "reference": "urn:uuid:778adbee-7676-48d0-9ff3-98550713d442",
          "display": "Alessio Fanucci"
        },
        "effectiveDateTime": "2024-04-29"
      }
    },
    {
      "fullUrl": "urn:uuid:d2d1e1c6-cf96-42a9-892a-13cc8dcd1fe9",
      "resource": {
        "resourceType": "Observation",
        "id": "d2d1e1c6-cf96-42a9-892a-13cc8dcd1fe9",
        "meta": {
          "profile": [
            "http://hl7.org/fhir/StructureDefinition/vitalsigns"
          ]
        },
        "category": [
          {
            "coding": [
              {
                "system": "http://terminology.hl7.org/CodeSystem/observation-category",
                "code": "vital-signs",
                "display": "Vital Signs"
              }
            ]
          }
        ],
        "valueQuantity": {
          "value": 3,
          "code": "{score}",
          "unit": "{score}"
        },
        "text": {
          "status": "generated",
          "div": "<div xmlns=\"http://www.w3.org/1999/xhtml\"><table class=\"hl7__ips\"><tr><th>Vital Sign</th><th>Date</th><th>Measurement</th></tr><tr><td>Pain severity - 0-10 verbal numeric rating [Score] - Reported</td><td>29-Apr-2024</td><td>3 {score}</td></tr></table></div>"
        },
        "status": "final",
        "code": {
          "coding": [
            {
              "code": "$72514-3",
              "system": "http://loinc.org",
              "display": "Pain severity - 0-10 verbal numeric rating [Score] - Reported"
            }
          ]
        },
        "subject": {
          "reference": "urn:uuid:778adbee-7676-48d0-9ff3-98550713d442",
          "display": "Alessio Fanucci"
        },
        "effectiveDateTime": "2024-04-29"
      }
    },
    {
      "fullUrl": "urn:uuid:d2f6308e-8b54-43c9-924e-8100c0728b83",
      "resource": {
        "resourceType": "Observation",
        "id": "d2f6308e-8b54-43c9-924e-8100c0728b83",
        "meta": {
          "profile": [
            "http://hl7.org/fhir/StructureDefinition/vitalsigns"
          ]
        },
        "category": [
          {
            "coding": [
              {
                "system": "http://terminology.hl7.org/CodeSystem/observation-category",
                "code": "vital-signs",
                "display": "Vital Signs"
              }
            ]
          }
        ],
        "valueQuantity": {
          "value": 78.9,
          "code": "kg",
          "unit": "kg"
        },
        "text": {
          "status": "generated",
          "div": "<div xmlns=\"http://www.w3.org/1999/xhtml\"><table class=\"hl7__ips\"><tr><th>Vital Sign</th><th>Date</th><th>Measurement</th></tr><tr><td>Body Weight</td><td>29-Apr-2024</td><td>78.9 kg</td></tr></table></div>"
        },
        "status": "final",
        "code": {
          "coding": [
            {
              "code": "$29463-7",
              "system": "http://loinc.org",
              "display": "Body Weight"
            }
          ]
        },
        "subject": {
          "reference": "urn:uuid:778adbee-7676-48d0-9ff3-98550713d442",
          "display": "Alessio Fanucci"
        },
        "effectiveDateTime": "2024-04-29"
      }
    },
    {
      "fullUrl": "urn:uuid:e790b30f-0235-479f-a4ff-0cb2ab26c11c",
      "resource": {
        "resourceType": "Observation",
        "id": "e790b30f-0235-479f-a4ff-0cb2ab26c11c",
        "meta": {
          "profile": [
            "http://hl7.org/fhir/StructureDefinition/vitalsigns"
          ]
        },
        "category": [
          {
            "coding": [
              {
                "system": "http://terminology.hl7.org/CodeSystem/observation-category",
                "code": "vital-signs",
                "display": "Vital Signs"
              }
            ]
          }
        ],
        "valueQuantity": {
          "value": 27.4,
          "code": "kg/m2",
          "unit": "kg/m2"
        },
        "text": {
          "status": "generated",
          "div": "<div xmlns=\"http://www.w3.org/1999/xhtml\"><table class=\"hl7__ips\"><tr><th>Vital Sign</th><th>Date</th><th>Measurement</th></tr><tr><td>Body mass index (BMI) [Ratio]</td><td>29-Apr-2024</td><td>27.4 kg/m2</td></tr></table></div>"
        },
        "status": "final",
        "code": {
          "coding": [
            {
              "code": "$39156-5",
              "system": "http://loinc.org",
              "display": "Body mass index (BMI) [Ratio]"
            }
          ]
        },
        "subject": {
          "reference": "urn:uuid:778adbee-7676-48d0-9ff3-98550713d442",
          "display": "Alessio Fanucci"
        },
        "effectiveDateTime": "2024-04-29"
      }
    },
    {
      "fullUrl": "urn:uuid:441ed7e3-1d16-4f18-9b7e-bd7cc84adad1",
      "resource": {
        "resourceType": "Observation",
        "id": "441ed7e3-1d16-4f18-9b7e-bd7cc84adad1",
        "meta": {
          "profile": [
            "http://hl7.org/fhir/StructureDefinition/vitalsigns"
          ]
        },
        "category": [
          {
            "coding": [
              {
                "system": "http://terminology.hl7.org/CodeSystem/observation-category",
                "code": "vital-signs",
                "display": "Vital Signs"
              }
            ]
          }
        ],
        "valueQuantity": {
          "value": 84,
          "code": "mm[Hg]",
          "unit": "mm[Hg]"
        },
        "text": {
          "status": "generated",
          "div": "<div xmlns=\"http://www.w3.org/1999/xhtml\"><table class=\"hl7__ips\"><tr><th>Vital Sign</th><th>Date</th><th>Measurement</th></tr><tr><td>Diastolic Blood Pressure</td><td>29-Apr-2024</td><td>84 mm[Hg]</td></tr></table></div>"
        },
        "status": "final",
        "code": {
          "coding": [
            {
              "code": "$8462-4",
              "system": "http://loinc.org",
              "display": "Diastolic Blood Pressure"
            }
          ]
        },
        "subject": {
          "reference": "urn:uuid:778adbee-7676-48d0-9ff3-98550713d442",
          "display": "Alessio Fanucci"
        },
        "effectiveDateTime": "2024-04-29"
      }
    },
    {
      "fullUrl": "urn:uuid:9de93bd8-edf9-4641-a3ee-ceb9f2cce586",
      "resource": {
        "resourceType": "Observation",
        "id": "9de93bd8-edf9-4641-a3ee-ceb9f2cce586",
        "meta": {
          "profile": [
            "http://hl7.org/fhir/StructureDefinition/vitalsigns"
          ]
        },
        "category": [
          {
            "coding": [
              {
                "system": "http://terminology.hl7.org/CodeSystem/observation-category",
                "code": "vital-signs",
                "display": "Vital Signs"
              }
            ]
          }
        ],
        "valueQuantity": {
          "value": 125,
          "code": "mm[Hg]",
          "unit": "mm[Hg]"
        },
        "text": {
          "status": "generated",
          "div": "<div xmlns=\"http://www.w3.org/1999/xhtml\"><table class=\"hl7__ips\"><tr><th>Vital Sign</th><th>Date</th><th>Measurement</th></tr><tr><td>Systolic Blood Pressure</td><td>29-Apr-2024</td><td>125 mm[Hg]</td></tr></table></div>"
        },
        "status": "final",
        "code": {
          "coding": [
            {
              "code": "$8480-6",
              "system": "http://loinc.org",
              "display": "Systolic Blood Pressure"
            }
          ]
        },
        "subject": {
          "reference": "urn:uuid:778adbee-7676-48d0-9ff3-98550713d442",
          "display": "Alessio Fanucci"
        },
        "effectiveDateTime": "2024-04-29"
      }
    },
    {
      "fullUrl": "urn:uuid:72514142-4cdd-4a78-9d27-b49907863857",
      "resource": {
        "resourceType": "Observation",
        "id": "72514142-4cdd-4a78-9d27-b49907863857",
        "meta": {
          "profile": [
            "http://hl7.org/fhir/StructureDefinition/vitalsigns"
          ]
        },
        "category": [
          {
            "coding": [
              {
                "system": "http://terminology.hl7.org/CodeSystem/observation-category",
                "code": "vital-signs",
                "display": "Vital Signs"
              }
            ]
          }
        ],
        "valueQuantity": {
          "value": 65,
          "code": "/min",
          "unit": "/min"
        },
        "text": {
          "status": "generated",
          "div": "<div xmlns=\"http://www.w3.org/1999/xhtml\"><table class=\"hl7__ips\"><tr><th>Vital Sign</th><th>Date</th><th>Measurement</th></tr><tr><td>Heart rate</td><td>29-Apr-2024</td><td>65 /min</td></tr></table></div>"
        },
        "status": "final",
        "code": {
          "coding": [
            {
              "code": "$8867-4",
              "system": "http://loinc.org",
              "display": "Heart rate"
            }
          ]
        },
        "subject": {
          "reference": "urn:uuid:778adbee-7676-48d0-9ff3-98550713d442",
          "display": "Alessio Fanucci"
        },
        "effectiveDateTime": "2024-04-29"
      }
    },
    {
      "fullUrl": "urn:uuid:7cdd2466-190f-4163-b875-ab2aeb388134",
      "resource": {
        "resourceType": "Observation",
        "id": "7cdd2466-190f-4163-b875-ab2aeb388134",
        "meta": {
          "profile": [
            "http://hl7.org/fhir/StructureDefinition/vitalsigns"
          ]
        },
        "category": [
          {
            "coding": [
              {
                "system": "http://terminology.hl7.org/CodeSystem/observation-category",
                "code": "vital-signs",
                "display": "Vital Signs"
              }
            ]
          }
        ],
        "valueQuantity": {
          "value": 14,
          "code": "/min",
          "unit": "/min"
        },
        "text": {
          "status": "generated",
          "div": "<div xmlns=\"http://www.w3.org/1999/xhtml\"><table class=\"hl7__ips\"><tr><th>Vital Sign</th><th>Date</th><th>Measurement</th></tr><tr><td>Respiratory rate</td><td>29-Apr-2024</td><td>14 /min</td></tr></table></div>"
        },
        "status": "final",
        "code": {
          "coding": [
            {
              "code": "$9279-1",
              "system": "http://loinc.org",
              "display": "Respiratory rate"
            }
          ]
        },
        "subject": {
          "reference": "urn:uuid:778adbee-7676-48d0-9ff3-98550713d442",
          "display": "Alessio Fanucci"
        },
        "effectiveDateTime": "2024-04-29"
      }
    },
    {
      "fullUrl": "urn:uuid:aefdb9f2-5c08-4e0f-9927-b9a0093557ed",
      "resource": {
        "resourceType": "Observation",
        "id": "aefdb9f2-5c08-4e0f-9927-b9a0093557ed",
        "meta": {
          "profile": [
            "http://hl7.eu/fhir/laboratory/StructureDefinition/Observation-resultslab-eu-lab"
          ]
        },
        "performer": [
          {
            "display": "The Central European Lab"
          }
        ],
        "category": [
          {
            "coding": [
              {
                "system": "http://terminology.hl7.org/CodeSystem/observation-category",
                "code": "laboratory"
              }
            ]
          }
        ],
        "code": {
          "coding": [
            {
              "code": "4548-4",
              "system": "http://loinc.org",
              "display": "Hemoglobin A1c/Hemoglobin.total in Blood"
            }
          ],
          "text": "Hemoglobin A1c/Hemoglobin.total in Blood"
        },
        "valueQuantity": {
          "system": "http://unitsofmeasure.org",
          "value": 6,
          "unit": "%",
          "code": "%"
        },
        "referenceRange": [
          {
            "low": {
              "value": 4,
              "code": "%",
              "system": "http://unitsofmeasure.org"
            }
          },
          {
            "high": {
              "value": 6,
              "code": "%",
              "system": "http://unitsofmeasure.org"
            }
          }
        ],
        "text": {
          "status": "generated",
          "div": "<div xmlns=\"http://www.w3.org/1999/xhtml\"><table class=\"hl7__eu__lab__report\"><tr><th>Test</th><th>05-May-2025</th><th>Reference&#xA0;Range</th><th>Unit</th></tr><tr><td>Hemoglobin A1c/Hemoglobin.total in Blood</td><td>6.0</td><td>4 - 6</td><td></td><td>%</td></tr></table></div>"
        },
        "status": "final",
        "subject": {
          "reference": "urn:uuid:778adbee-7676-48d0-9ff3-98550713d442",
          "display": "Alessio Fanucci"
        },
        "effectiveDateTime": "2025-05-05T07:49:06Z"
      }
    },
    {
      "fullUrl": "urn:uuid:a1f03d19-08b4-4ee6-8a60-035e55875c21",
      "resource": {
        "resourceType": "Observation",
        "id": "a1f03d19-08b4-4ee6-8a60-035e55875c21",
        "meta": {
          "profile": [
            "http://hl7.eu/fhir/laboratory/StructureDefinition/Observation-resultslab-eu-lab"
          ]
        },
        "performer": [
          {
            "display": "The Central European Lab"
          }
        ],
        "category": [
          {
            "coding": [
              {
                "system": "http://terminology.hl7.org/CodeSystem/observation-category",
                "code": "laboratory"
              }
            ]
          }
        ],
        "code": {
          "coding": [
            {
              "code": "2339-0",
              "system": "http://loinc.org",
              "display": "Glucose [Mass/volume] in Blood"
            }
          ],
          "text": "Glucose [Mass/volume] in Blood"
        },
        "valueQuantity": {
          "system": "http://unitsofmeasure.org",
          "value": 76.1,
          "unit": "mg/dL",
          "code": "mg/dL"
        },
        "referenceRange": [
          {
            "low": {
              "value": 70,
              "code": "mg/dL",
              "system": "http://unitsofmeasure.org"
            }
          },
          {
            "high": {
              "value": 140,
              "code": "mg/dL",
              "system": "http://unitsofmeasure.org"
            }
          }
        ],
        "text": {
          "status": "generated",
          "div": "<div xmlns=\"http://www.w3.org/1999/xhtml\"><table class=\"hl7__eu__lab__report\"><tr><th>Test</th><th>05-May-2025</th><th>Reference&#xA0;Range</th><th>Unit</th></tr><tr><td>Glucose [Mass/volume] in Blood</td><td>76.1</td><td>70 - 140</td><td></td><td>mg/dL</td></tr></table></div>"
        },
        "status": "final",
        "subject": {
          "reference": "urn:uuid:778adbee-7676-48d0-9ff3-98550713d442",
          "display": "Alessio Fanucci"
        },
        "effectiveDateTime": "2025-05-05T07:49:06Z"
      }
    },
    {
      "fullUrl": "urn:uuid:f9fb7a5c-0f0c-4fc1-b883-7c74e3957f93",
      "resource": {
        "resourceType": "Observation",
        "id": "f9fb7a5c-0f0c-4fc1-b883-7c74e3957f93",
        "meta": {
          "profile": [
            "http://hl7.eu/fhir/laboratory/StructureDefinition/Observation-resultslab-eu-lab"
          ]
        },
        "performer": [
          {
            "display": "The Central European Lab"
          }
        ],
        "category": [
          {
            "coding": [
              {
                "system": "http://terminology.hl7.org/CodeSystem/observation-category",
                "code": "laboratory"
              }
            ]
          }
        ],
        "code": {
          "coding": [
            {
              "code": "6299-2",
              "system": "http://loinc.org",
              "display": "Urea nitrogen [Mass/volume] in Blood"
            }
          ],
          "text": "Urea nitrogen [Mass/volume] in Blood"
        },
        "valueQuantity": {
          "system": "http://unitsofmeasure.org",
          "value": 18.9,
          "unit": "mg/dL",
          "code": "mg/dL"
        },
        "referenceRange": [
          {
            "low": {
              "value": 7,
              "code": "mg/dL",
              "system": "http://unitsofmeasure.org"
            }
          },
          {
            "high": {
              "value": 20,
              "code": "mg/dL",
              "system": "http://unitsofmeasure.org"
            }
          }
        ],
        "text": {
          "status": "generated",
          "div": "<div xmlns=\"http://www.w3.org/1999/xhtml\"><table class=\"hl7__eu__lab__report\"><tr><th>Test</th><th>05-May-2025</th><th>Reference&#xA0;Range</th><th>Unit</th></tr><tr><td>Urea nitrogen [Mass/volume] in Blood</td><td>18.9</td><td>7 - 20</td><td></td><td>mg/dL</td></tr></table></div>"
        },
        "status": "final",
        "subject": {
          "reference": "urn:uuid:778adbee-7676-48d0-9ff3-98550713d442",
          "display": "Alessio Fanucci"
        },
        "effectiveDateTime": "2025-05-05T07:49:06Z"
      }
    },
    {
      "fullUrl": "urn:uuid:0fb88401-fbfc-4d49-a675-790678dfc534",
      "resource": {
        "resourceType": "Observation",
        "id": "0fb88401-fbfc-4d49-a675-790678dfc534",
        "meta": {
          "profile": [
            "http://hl7.eu/fhir/laboratory/StructureDefinition/Observation-resultslab-eu-lab"
          ]
        },
        "performer": [
          {
            "display": "The Central European Lab"
          }
        ],
        "category": [
          {
            "coding": [
              {
                "system": "http://terminology.hl7.org/CodeSystem/observation-category",
                "code": "laboratory"
              }
            ]
          }
        ],
        "code": {
          "coding": [
            {
              "code": "38483-4",
              "system": "http://loinc.org",
              "display": "Creatinine [Mass/volume] in Blood"
            }
          ],
          "text": "Creatinine [Mass/volume] in Blood"
        },
        "valueQuantity": {
          "system": "http://unitsofmeasure.org",
          "value": 0.9,
          "unit": "mg/dL",
          "code": "mg/dL"
        },
        "referenceRange": [
          {
            "low": {
              "value": 0.9,
              "code": "mg/dL",
              "system": "http://unitsofmeasure.org"
            }
          },
          {
            "high": {
              "value": 1.3,
              "code": "mg/dL",
              "system": "http://unitsofmeasure.org"
            }
          }
        ],
        "text": {
          "status": "generated",
          "div": "<div xmlns=\"http://www.w3.org/1999/xhtml\"><table class=\"hl7__eu__lab__report\"><tr><th>Test</th><th>05-May-2025</th><th>Reference&#xA0;Range</th><th>Unit</th></tr><tr><td>Creatinine [Mass/volume] in Blood</td><td>0.9</td><td>0.9 - 1.3</td><td></td><td>mg/dL</td></tr></table></div>"
        },
        "status": "final",
        "subject": {
          "reference": "urn:uuid:778adbee-7676-48d0-9ff3-98550713d442",
          "display": "Alessio Fanucci"
        },
        "effectiveDateTime": "2025-05-05T07:49:06Z"
      }
    },
    {
      "fullUrl": "urn:uuid:3a477f19-c8c7-49fc-9f65-fcaf3f472afa",
      "resource": {
        "resourceType": "Observation",
        "id": "3a477f19-c8c7-49fc-9f65-fcaf3f472afa",
        "meta": {
          "profile": [
            "http://hl7.eu/fhir/laboratory/StructureDefinition/Observation-resultslab-eu-lab"
          ]
        },
        "performer": [
          {
            "display": "The Central European Lab"
          }
        ],
        "category": [
          {
            "coding": [
              {
                "system": "http://terminology.hl7.org/CodeSystem/observation-category",
                "code": "laboratory"
              }
            ]
          }
        ],
        "code": {
          "coding": [
            {
              "code": "49765-1",
              "system": "http://loinc.org",
              "display": "Calcium [Mass/volume] in Blood"
            }
          ],
          "text": "Calcium [Mass/volume] in Blood"
        },
        "valueQuantity": {
          "system": "http://unitsofmeasure.org",
          "value": 9.4,
          "unit": "mg/dL",
          "code": "mg/dL"
        },
        "referenceRange": [
          {
            "low": {
              "value": 8.5,
              "code": "mg/dL",
              "system": "http://unitsofmeasure.org"
            }
          },
          {
            "high": {
              "value": 10.5,
              "code": "mg/dL",
              "system": "http://unitsofmeasure.org"
            }
          }
        ],
        "text": {
          "status": "generated",
          "div": "<div xmlns=\"http://www.w3.org/1999/xhtml\"><table class=\"hl7__eu__lab__report\"><tr><th>Test</th><th>05-May-2025</th><th>Reference&#xA0;Range</th><th>Unit</th></tr><tr><td>Calcium [Mass/volume] in Blood</td><td>9.4</td><td>8.5 - 10.5</td><td></td><td>mg/dL</td></tr></table></div>"
        },
        "status": "final",
        "subject": {
          "reference": "urn:uuid:778adbee-7676-48d0-9ff3-98550713d442",
          "display": "Alessio Fanucci"
        },
        "effectiveDateTime": "2025-05-05T07:49:06Z"
      }
    },
    {
      "fullUrl": "urn:uuid:51cc3b1e-bb58-4c0d-a9f9-ee8b3d9edd49",
      "resource": {
        "resourceType": "Observation",
        "id": "51cc3b1e-bb58-4c0d-a9f9-ee8b3d9edd49",
        "meta": {
          "profile": [
            "http://hl7.eu/fhir/laboratory/StructureDefinition/Observation-resultslab-eu-lab"
          ]
        },
        "performer": [
          {
            "display": "The Central European Lab"
          }
        ],
        "category": [
          {
            "coding": [
              {
                "system": "http://terminology.hl7.org/CodeSystem/observation-category",
                "code": "laboratory"
              }
            ]
          }
        ],
        "code": {
          "coding": [
            {
              "code": "2947-0",
              "system": "http://loinc.org",
              "display": "Sodium [Moles/volume] in Blood"
            }
          ],
          "text": "Sodium [Moles/volume] in Blood"
        },
        "valueQuantity": {
          "system": "http://unitsofmeasure.org",
          "value": 136.5,
          "unit": "mmol/L",
          "code": "mmol/L"
        },
        "referenceRange": [
          {
            "low": {
              "value": 135,
              "code": "mmol/L",
              "system": "http://unitsofmeasure.org"
            }
          },
          {
            "high": {
              "value": 145,
              "code": "mmol/L",
              "system": "http://unitsofmeasure.org"
            }
          }
        ],
        "text": {
          "status": "generated",
          "div": "<div xmlns=\"http://www.w3.org/1999/xhtml\"><table class=\"hl7__eu__lab__report\"><tr><th>Test</th><th>05-May-2025</th><th>Reference&#xA0;Range</th><th>Unit</th></tr><tr><td>Sodium [Moles/volume] in Blood</td><td>136.5</td><td>135 - 145</td><td></td><td>mmol/L</td></tr></table></div>"
        },
        "status": "final",
        "subject": {
          "reference": "urn:uuid:778adbee-7676-48d0-9ff3-98550713d442",
          "display": "Alessio Fanucci"
        },
        "effectiveDateTime": "2025-05-05T07:49:06Z"
      }
    },
    {
      "fullUrl": "urn:uuid:ad3986ec-97be-4f40-b787-24da3766477a",
      "resource": {
        "resourceType": "Observation",
        "id": "ad3986ec-97be-4f40-b787-24da3766477a",
        "meta": {
          "profile": [
            "http://hl7.eu/fhir/laboratory/StructureDefinition/Observation-resultslab-eu-lab"
          ]
        },
        "performer": [
          {
            "display": "The Central European Lab"
          }
        ],
        "category": [
          {
            "coding": [
              {
                "system": "http://terminology.hl7.org/CodeSystem/observation-category",
                "code": "laboratory"
              }
            ]
          }
        ],
        "code": {
          "coding": [
            {
              "code": "6298-4",
              "system": "http://loinc.org",
              "display": "Potassium [Moles/volume] in Blood"
            }
          ],
          "text": "Potassium [Moles/volume] in Blood"
        },
        "valueQuantity": {
          "system": "http://unitsofmeasure.org",
          "value": 4.3,
          "unit": "mmol/L",
          "code": "mmol/L"
        },
        "referenceRange": [
          {
            "low": {
              "value": 3.5,
              "code": "mmol/L",
              "system": "http://unitsofmeasure.org"
            }
          },
          {
            "high": {
              "value": 5,
              "code": "mmol/L",
              "system": "http://unitsofmeasure.org"
            }
          }
        ],
        "text": {
          "status": "generated",
          "div": "<div xmlns=\"http://www.w3.org/1999/xhtml\"><table class=\"hl7__eu__lab__report\"><tr><th>Test</th><th>05-May-2025</th><th>Reference&#xA0;Range</th><th>Unit</th></tr><tr><td>Potassium [Moles/volume] in Blood</td><td>4.3</td><td>3.5 - 5</td><td></td><td>mmol/L</td></tr></table></div>"
        },
        "status": "final",
        "subject": {
          "reference": "urn:uuid:778adbee-7676-48d0-9ff3-98550713d442",
          "display": "Alessio Fanucci"
        },
        "effectiveDateTime": "2025-05-05T07:49:06Z"
      }
    },
    {
      "fullUrl": "urn:uuid:7ad4e48b-e49b-41f0-a1c7-9b26e9ad858d",
      "resource": {
        "resourceType": "Observation",
        "id": "7ad4e48b-e49b-41f0-a1c7-9b26e9ad858d",
        "meta": {
          "profile": [
            "http://hl7.eu/fhir/laboratory/StructureDefinition/Observation-resultslab-eu-lab"
          ]
        },
        "performer": [
          {
            "display": "The Central European Lab"
          }
        ],
        "category": [
          {
            "coding": [
              {
                "system": "http://terminology.hl7.org/CodeSystem/observation-category",
                "code": "laboratory"
              }
            ]
          }
        ],
        "code": {
          "coding": [
            {
              "code": "2069-3",
              "system": "http://loinc.org",
              "display": "Chloride [Moles/volume] in Blood"
            }
          ],
          "text": "Chloride [Moles/volume] in Blood"
        },
        "valueQuantity": {
          "system": "http://unitsofmeasure.org",
          "value": 104.3,
          "unit": "mmol/L",
          "code": "mmol/L"
        },
        "referenceRange": [
          {
            "low": {
              "value": 98,
              "code": "mmol/L",
              "system": "http://unitsofmeasure.org"
            }
          },
          {
            "high": {
              "value": 110,
              "code": "mmol/L",
              "system": "http://unitsofmeasure.org"
            }
          }
        ],
        "text": {
          "status": "generated",
          "div": "<div xmlns=\"http://www.w3.org/1999/xhtml\"><table class=\"hl7__eu__lab__report\"><tr><th>Test</th><th>05-May-2025</th><th>Reference&#xA0;Range</th><th>Unit</th></tr><tr><td>Chloride [Moles/volume] in Blood</td><td>104.3</td><td>98 - 110</td><td></td><td>mmol/L</td></tr></table></div>"
        },
        "status": "final",
        "subject": {
          "reference": "urn:uuid:778adbee-7676-48d0-9ff3-98550713d442",
          "display": "Alessio Fanucci"
        },
        "effectiveDateTime": "2025-05-05T07:49:06Z"
      }
    },
    {
      "fullUrl": "urn:uuid:3fdd811f-1e8c-472e-99f8-36e69b17d197",
      "resource": {
        "resourceType": "Observation",
        "id": "3fdd811f-1e8c-472e-99f8-36e69b17d197",
        "meta": {
          "profile": [
            "http://hl7.eu/fhir/laboratory/StructureDefinition/Observation-resultslab-eu-lab"
          ]
        },
        "performer": [
          {
            "display": "The Central European Lab"
          }
        ],
        "category": [
          {
            "coding": [
              {
                "system": "http://terminology.hl7.org/CodeSystem/observation-category",
                "code": "laboratory"
              }
            ]
          }
        ],
        "code": {
          "coding": [
            {
              "code": "20565-8",
              "system": "http://loinc.org",
              "display": "Carbon dioxide, total [Moles/volume] in Blood"
            }
          ],
          "text": "Carbon dioxide, total [Moles/volume] in Blood"
        },
        "valueQuantity": {
          "system": "http://unitsofmeasure.org",
          "value": 20.4,
          "unit": "mmol/L",
          "code": "mmol/L"
        },
        "referenceRange": [
          {
            "low": {
              "value": 22,
              "code": "mmol/L",
              "system": "http://unitsofmeasure.org"
            }
          },
          {
            "high": {
              "value": 32,
              "code": "mmol/L",
              "system": "http://unitsofmeasure.org"
            }
          }
        ],
        "interpretation": [
          {
            "coding": [
              {
                "code": "L",
                "system": "http://terminology.hl7.org/CodeSystem/v3-ObservationInterpretation",
                "display": "Low"
              }
            ]
          }
        ],
        "text": {
          "status": "generated",
          "div": "<div xmlns=\"http://www.w3.org/1999/xhtml\"><table class=\"hl7__eu__lab__report\"><tr><th>Test</th><th>05-May-2025</th><th>Reference&#xA0;Range</th><th>Unit</th></tr><tr><td>Carbon dioxide, total [Moles/volume] in Blood</td><td>20.4</td><td>22 - 32</td><td>L</td><td>mmol/L</td></tr></table></div>"
        },
        "status": "final",
        "subject": {
          "reference": "urn:uuid:778adbee-7676-48d0-9ff3-98550713d442",
          "display": "Alessio Fanucci"
        },
        "effectiveDateTime": "2025-05-05T07:49:06Z"
      }
    },
    {
      "fullUrl": "urn:uuid:24807622-f014-4285-a789-2d6049508c8d",
      "resource": {
        "resourceType": "Observation",
        "id": "24807622-f014-4285-a789-2d6049508c8d",
        "meta": {
          "profile": [
            "http://hl7.eu/fhir/laboratory/StructureDefinition/Observation-resultslab-eu-lab"
          ]
        },
        "performer": [
          {
            "display": "The Central European Lab"
          }
        ],
        "category": [
          {
            "coding": [
              {
                "system": "http://terminology.hl7.org/CodeSystem/observation-category",
                "code": "laboratory"
              }
            ]
          }
        ],
        "code": {
          "coding": [
            {
              "code": "2093-3",
              "system": "http://loinc.org",
              "display": "Cholesterol [Mass/volume] in Serum or Plasma"
            }
          ],
          "text": "Cholesterol [Mass/volume] in Serum or Plasma"
        },
        "valueQuantity": {
          "system": "http://unitsofmeasure.org",
          "value": 214.9,
          "unit": "mg/dL",
          "code": "mg/dL"
        },
        "referenceRange": [
          {
            "low": {
              "value": 125,
              "code": "mg/dL",
              "system": "http://unitsofmeasure.org"
            }
          },
          {
            "high": {
              "value": 200,
              "code": "mg/dL",
              "system": "http://unitsofmeasure.org"
            }
          }
        ],
        "interpretation": [
          {
            "coding": [
              {
                "code": "H",
                "system": "http://terminology.hl7.org/CodeSystem/v3-ObservationInterpretation",
                "display": "High"
              }
            ]
          }
        ],
        "text": {
          "status": "generated",
          "div": "<div xmlns=\"http://www.w3.org/1999/xhtml\"><table class=\"hl7__eu__lab__report\"><tr><th>Test</th><th>05-May-2025</th><th>Reference&#xA0;Range</th><th>Unit</th></tr><tr><td>Cholesterol [Mass/volume] in Serum or Plasma</td><td>214.9</td><td>125 - 200</td><td>H</td><td>mg/dL</td></tr></table></div>"
        },
        "status": "final",
        "subject": {
          "reference": "urn:uuid:778adbee-7676-48d0-9ff3-98550713d442",
          "display": "Alessio Fanucci"
        },
        "effectiveDateTime": "2025-05-05T07:49:06Z"
      }
    },
    {
      "fullUrl": "urn:uuid:aa108728-4f63-4f4a-956c-9f459ecefd27",
      "resource": {
        "resourceType": "Observation",
        "id": "aa108728-4f63-4f4a-956c-9f459ecefd27",
        "meta": {
          "profile": [
            "http://hl7.eu/fhir/laboratory/StructureDefinition/Observation-resultslab-eu-lab"
          ]
        },
        "performer": [
          {
            "display": "The Central European Lab"
          }
        ],
        "category": [
          {
            "coding": [
              {
                "system": "http://terminology.hl7.org/CodeSystem/observation-category",
                "code": "laboratory"
              }
            ]
          }
        ],
        "code": {
          "coding": [
            {
              "code": "2571-8",
              "system": "http://loinc.org",
              "display": "Triglyceride [Mass/volume] in Serum or Plasma"
            }
          ],
          "text": "Triglyceride [Mass/volume] in Serum or Plasma"
        },
        "valueQuantity": {
          "system": "http://unitsofmeasure.org",
          "value": 141.2,
          "unit": "mg/dL",
          "code": "mg/dL"
        },
        "referenceRange": [
          {
            "low": {
              "value": 0,
              "code": "mg/dL",
              "system": "http://unitsofmeasure.org"
            }
          },
          {
            "high": {
              "value": 150,
              "code": "mg/dL",
              "system": "http://unitsofmeasure.org"
            }
          }
        ],
        "text": {
          "status": "generated",
          "div": "<div xmlns=\"http://www.w3.org/1999/xhtml\"><table class=\"hl7__eu__lab__report\"><tr><th>Test</th><th>05-May-2025</th><th>Reference&#xA0;Range</th><th>Unit</th></tr><tr><td>Triglyceride [Mass/volume] in Serum or Plasma</td><td>141.2</td><td>0 - 150</td><td></td><td>mg/dL</td></tr></table></div>"
        },
        "status": "final",
        "subject": {
          "reference": "urn:uuid:778adbee-7676-48d0-9ff3-98550713d442",
          "display": "Alessio Fanucci"
        },
        "effectiveDateTime": "2025-05-05T07:49:06Z"
      }
    },
    {
      "fullUrl": "urn:uuid:68b57e19-d31a-4db6-9197-26af7bcd96b3",
      "resource": {
        "resourceType": "Observation",
        "id": "68b57e19-d31a-4db6-9197-26af7bcd96b3",
        "meta": {
          "profile": [
            "http://hl7.eu/fhir/laboratory/StructureDefinition/Observation-resultslab-eu-lab"
          ]
        },
        "performer": [
          {
            "display": "The Central European Lab"
          }
        ],
        "category": [
          {
            "coding": [
              {
                "system": "http://terminology.hl7.org/CodeSystem/observation-category",
                "code": "laboratory"
              }
            ]
          }
        ],
        "code": {
          "coding": [
            {
              "code": "18262-6",
              "system": "http://loinc.org",
              "display": "Cholesterol in LDL [Mass/volume] in Serum or Plasma by Direct assay"
            }
          ],
          "text": "Cholesterol in LDL [Mass/volume] in Serum or Plasma by Direct assay"
        },
        "valueQuantity": {
          "system": "http://unitsofmeasure.org",
          "value": 159.3,
          "unit": "mg/dL",
          "code": "mg/dL"
        },
        "referenceRange": [
          {
            "low": {
              "value": 0,
              "code": "mg/dL",
              "system": "http://unitsofmeasure.org"
            }
          },
          {
            "high": {
              "value": 130,
              "code": "mg/dL",
              "system": "http://unitsofmeasure.org"
            }
          }
        ],
        "interpretation": [
          {
            "coding": [
              {
                "code": "H",
                "system": "http://terminology.hl7.org/CodeSystem/v3-ObservationInterpretation",
                "display": "High"
              }
            ]
          }
        ],
        "text": {
          "status": "generated",
          "div": "<div xmlns=\"http://www.w3.org/1999/xhtml\"><table class=\"hl7__eu__lab__report\"><tr><th>Test</th><th>05-May-2025</th><th>Reference&#xA0;Range</th><th>Unit</th></tr><tr><td>Cholesterol in LDL [Mass/volume] in Serum or Plasma by Direct assay</td><td>159.3</td><td>0 - 130</td><td>H</td><td>mg/dL</td></tr></table></div>"
        },
        "status": "final",
        "subject": {
          "reference": "urn:uuid:778adbee-7676-48d0-9ff3-98550713d442",
          "display": "Alessio Fanucci"
        },
        "effectiveDateTime": "2025-05-05T07:49:06Z"
      }
    },
    {
      "fullUrl": "urn:uuid:79602873-bef9-4b2b-9823-5602b85c7d95",
      "resource": {
        "resourceType": "Observation",
        "id": "79602873-bef9-4b2b-9823-5602b85c7d95",
        "meta": {
          "profile": [
            "http://hl7.eu/fhir/laboratory/StructureDefinition/Observation-resultslab-eu-lab"
          ]
        },
        "performer": [
          {
            "display": "The Central European Lab"
          }
        ],
        "category": [
          {
            "coding": [
              {
                "system": "http://terminology.hl7.org/CodeSystem/observation-category",
                "code": "laboratory"
              }
            ]
          }
        ],
        "code": {
          "coding": [
            {
              "code": "2085-9",
              "system": "http://loinc.org",
              "display": "Cholesterol in HDL [Mass/volume] in Serum or Plasma"
            }
          ],
          "text": "Cholesterol in HDL [Mass/volume] in Serum or Plasma"
        },
        "valueQuantity": {
          "system": "http://unitsofmeasure.org",
          "value": 27.4,
          "unit": "mg/dL",
          "code": "mg/dL"
        },
        "referenceRange": [
          {
            "low": {
              "value": 40,
              "code": "mg/dL",
              "system": "http://unitsofmeasure.org"
            }
          },
          {
            "high": {
              "value": 60,
              "code": "mg/dL",
              "system": "http://unitsofmeasure.org"
            }
          }
        ],
        "interpretation": [
          {
            "coding": [
              {
                "code": "L",
                "system": "http://terminology.hl7.org/CodeSystem/v3-ObservationInterpretation",
                "display": "Low"
              }
            ]
          }
        ],
        "text": {
          "status": "generated",
          "div": "<div xmlns=\"http://www.w3.org/1999/xhtml\"><table class=\"hl7__eu__lab__report\"><tr><th>Test</th><th>05-May-2025</th><th>Reference&#xA0;Range</th><th>Unit</th></tr><tr><td>Cholesterol in HDL [Mass/volume] in Serum or Plasma</td><td>27.4</td><td>40 - 60</td><td>L</td><td>mg/dL</td></tr></table></div>"
        },
        "status": "final",
        "subject": {
          "reference": "urn:uuid:778adbee-7676-48d0-9ff3-98550713d442",
          "display": "Alessio Fanucci"
        },
        "effectiveDateTime": "2025-05-05T07:49:06Z"
      }
    },
    {
      "fullUrl": "urn:uuid:18968fbd-f9b4-4d2c-872a-2c119cd63224",
      "resource": {
        "resourceType": "DeviceUseStatement",
        "id": "18968fbd-f9b4-4d2c-872a-2c119cd63224",
        "meta": {
          "profile": [
            "http://hl7.eu/fhir/eps/StructureDefinition/deviceUseStatement-eu-eps"
          ]
        },
        "timingPeriod": {
          "start": "1982-04-12"
        },
        "text": {
          "status": "generated",
          "div": "<div xmlns=\"http://www.w3.org/1999/xhtml\"><table class=\"hl7__ips\"><tr><td>Blood glucose meter (physical object)</td><td><span class=\"nb\">12-Apr-1982</span></td></tr></table></div>"
        },
        "status": "active",
        "device": {
          "reference": "urn:uuid:02cdd02f-102a-4797-b3ee-f4d3faa62f66",
          "display": "Blood glucose meter (physical object)"
        },
        "subject": {
          "reference": "urn:uuid:778adbee-7676-48d0-9ff3-98550713d442",
          "display": "Alessio Fanucci"
        }
      }
    },
    {
      "fullUrl": "urn:uuid:02cdd02f-102a-4797-b3ee-f4d3faa62f66",
      "resource": {
        "resourceType": "Device",
        "id": "02cdd02f-102a-4797-b3ee-f4d3faa62f66",
        "meta": {
          "profile": [
            "http://hl7.eu/fhir/eps/StructureDefinition/device-eu-eps"
          ]
        },
        "udiCarrier": [
          {
            "id": "(01)35707478229565(11)820322(17)070406(10)8407070736404843383(21)2242"
          }
        ],
        "status": "active",
        "patient": {
          "reference": "urn:uuid:778adbee-7676-48d0-9ff3-98550713d442",
          "display": "Alessio Fanucci"
        },
        "type": {
          "coding": [
            {
              "code": "337414009",
              "system": "http://snomed.info/sct",
              "display": "Blood glucose meter (physical object)"
            }
          ]
        }
      }
    },
    {
      "fullUrl": "urn:uuid:7e9ae2fb-e61c-48aa-9c43-806d31db4a6b",
      "resource": {
        "resourceType": "DeviceUseStatement",
        "id": "7e9ae2fb-e61c-48aa-9c43-806d31db4a6b",
        "meta": {
          "profile": [
            "http://hl7.eu/fhir/eps/StructureDefinition/deviceUseStatement-eu-eps"
          ]
        },
        "timingPeriod": {
          "start": "1979-09-07"
        },
        "text": {
          "status": "generated",
          "div": "<div xmlns=\"http://www.w3.org/1999/xhtml\"><table class=\"hl7__ips\"><tr><td>Home nebulizer (physical object)</td><td><span class=\"nb\">07-Sep-1979</span></td></tr></table></div>"
        },
        "status": "active",
        "device": {
          "reference": "urn:uuid:de6ab7a8-084f-4643-96cd-2f3dc8deaf31",
          "display": "Home nebulizer (physical object)"
        },
        "subject": {
          "reference": "urn:uuid:778adbee-7676-48d0-9ff3-98550713d442",
          "display": "Alessio Fanucci"
        }
      }
    },
    {
      "fullUrl": "urn:uuid:de6ab7a8-084f-4643-96cd-2f3dc8deaf31",
      "resource": {
        "resourceType": "Device",
        "id": "de6ab7a8-084f-4643-96cd-2f3dc8deaf31",
        "meta": {
          "profile": [
            "http://hl7.eu/fhir/eps/StructureDefinition/device-eu-eps"
          ]
        },
        "udiCarrier": [
          {
            "id": "(01)82584526063256(11)790817(17)040831(10)7334613555874(21)91579304954754"
          }
        ],
        "status": "active",
        "patient": {
          "reference": "urn:uuid:778adbee-7676-48d0-9ff3-98550713d442",
          "display": "Alessio Fanucci"
        },
        "type": {
          "coding": [
            {
              "code": "170615005",
              "system": "http://snomed.info/sct",
              "display": "Home nebulizer (physical object)"
            }
          ]
        }
      }
    },
    {
      "fullUrl": "urn:uuid:af513dd8-3f71-45da-ac89-d3accfc2e21b",
      "resource": {
        "resourceType": "Device",
        "id": "af513dd8-3f71-45da-ac89-d3accfc2e21b",
        "deviceName": [
          {
            "name": "SYNDERAI Synthetic Generator",
            "type": "manufacturer-name"
          }
        ],
        "version": [
          {
            "value": "5.0"
          }
        ],
        "text": {
          "status": "generated",
          "div": "<div xmlns=\"http://www.w3.org/1999/xhtml\">SYNDERAI Synthetic Generator v5.0</div>"
        },
        "status": "active\"",
        "distinctIdentifier": "synderai-generator-50",
        "manufacturer": "SYNDERAI Project"
      }
    },
    {
      "fullUrl": "urn:uuid:6dbfdbfd-83d7-4bb7-9e1f-617ca9eccda7",
      "resource": {
        "resourceType": "Provenance",
        "id": "6dbfdbfd-83d7-4bb7-9e1f-617ca9eccda7",
        "target": [
          {
            "reference": "Patient/778adbee-7676-48d0-9ff3-98550713d442"
          },
          {
            "reference": "Bundle/fa994385-e122-4f0b-975c-1e38b593762c"
          },
          {
            "reference": "Composition/a6044248-bf8a-4a8f-b4a6-11a96e7024fe"
          },
          {
            "reference": "PractitionerRole/94113981-1768-467d-bd53-afff4e23765d"
          },
          {
            "reference": "Organization/2a8a76c1-52c3-49ff-8cd1-40f3a31b261c"
          },
          {
            "reference": "Practitioner/b2f3587f-c8ad-49fb-845e-e15287b20773"
          }
        ],
        "activity": {
          "text": "Synthetic Example Data Generation"
        },
        "policy": [
          "https://synderai.net/synderai-synthetic-data-policy"
        ],
        "agent": [
          {
            "type": {
              "text": "author"
            },
            "who": {
              "reference": "Device/af513dd8-3f71-45da-ac89-d3accfc2e21b"
            }
          }
        ],
        "reason": [
          {
            "text": "Interoperability Testing and Training (non-clinical use)"
          }
        ],
        "text": {
          "status": "generated",
          "div": "<div xmlns=\"http://www.w3.org/1999/xhtml\">Provenance for SYNDERAI Synthetic Example Data Resource</div>"
        },
        "recorded": "2025-05-05T07:49:06Z"
      }
    }
  ],
  "type": "document",
  "timestamp": "2025-05-05T07:49:06Z"
}
