<Bundle xmlns="http://hl7.org/fhir">
   <id value="9f427350-800e-4665-b479-54c3dc978dbd"/>
   <meta>
      <profile value="http://hl7.eu/fhir/eps/StructureDefinition/bundle-eu-eps"/>
   </meta>
   <identifier>
      <system value="urn:oid:2.16.840.1.113883.2.51.999"/>
      <value value="75763c2c-80c8-440d-bea8-1a0b63729f3a"/>
      <assigner>
         <display value="HL7 Europe"/>
      </assigner>
   </identifier>
   <type value="document"/>
   <timestamp value="2025-07-15T22:11:04Z"/>
   <entry>
      <fullUrl value="urn:uuid:f54ed6ec-b66f-4a19-a457-7dc41db27d52"/>
      <resource>
         <Composition>
            <id value="f54ed6ec-b66f-4a19-a457-7dc41db27d52"/>
            <meta>
               <profile value="http://hl7.eu/fhir/eps/StructureDefinition/composition-eu-eps"/>
               <security>
                  <system value="http://terminology.hl7.org/CodeSystem/v3-ActReason"/>
                  <code value="HTEST"/>
               </security>
               <security>
                  <system value="http://terminology.hl7.org/CodeSystem/v3-ActReason"/>
                  <code value="TRAIN"/>
               </security>
               <tag>
                  <system value="https://synderai.net/fhir/CodeSystem/tags"/>
                  <code value="synthetic"/>
                  <display value="SYNDERAI Synthetic data"/>
               </tag>
            </meta>
            <identifier>
               <system value="urn:oid:2.16.840.1.113883.2.51.999"/>
               <value value="abe0d2c5-396a-49ea-9908-5911996133e0"/>
               <assigner>
                  <display value="HL7 Europe"/>
               </assigner>
            </identifier>
            <status value="final"/>
            <type>
               <coding>
                  <system value="http://loinc.org"/>
                  <code value="60591-5"/>
                  <display value="Patient summary Document"/>
               </coding>
               <text value="Patient summary Document"/>
            </type>
            <subject>
               <reference value="urn:uuid:62480d3b-bc3e-44b2-b530-29d3c4027acb"/>
               <display value="Meaghan Neary"/>
            </subject>
            <date value="2025-07-16"/>
            <author>
               <reference value="urn:uuid:8c473960-0099-46ab-a4e1-71bb0fc52514"/>
            </author>
            <title value="European Patient Summary"/>
            <confidentiality value="N"/>
            <custodian>
               <reference value="urn:uuid:62088d92-b336-44eb-b1dc-a30b8080d6e6"/>
            </custodian>
            <section>
               <title value="Problem list"/>
               <code>
                  <coding>
                     <system value="http://loinc.org"/>
                     <code value="11450-4"/>
                     <display value="Problem list - Reported"/>
                  </coding>
               </code>
               <text>
                  <status value="generated"/>
                  <div xmlns="http://www.w3.org/1999/xhtml">
                     <table class="hl7__ips">
                        <tr>
                           <th>Condition</th>
                           <th>Onset Date</th>
                           <th>Status</th>
                        </tr>
                        <tr>
                           <td>Hyperlipidemia</td>
                           <td>
                              <span class="nb">25-Jun-2024</span>
                           </td>
                           <td>active</td>
                        </tr>
                        <tr>
                           <td>Chronic kidney disease stage 3</td>
                           <td>
                              <span class="nb">23-Apr-2019</span>
                           </td>
                           <td>active</td>
                        </tr>
                        <tr>
                           <td>Proteinuria due to type 2 diabetes mellitus</td>
                           <td>
                              <span class="nb">23-Apr-2019</span>
                           </td>
                           <td>active</td>
                        </tr>
                        <tr>
                           <td>Chronic kidney disease stage 2</td>
                           <td>
                              <span class="nb">27-Aug-2013</span>
                           </td>
                           <td>active</td>
                        </tr>
                        <tr>
                           <td>Microalbuminuria due to type 2 diabetes mellitus</td>
                           <td>
                              <span class="nb">27-Aug-2013</span>
                           </td>
                           <td>active</td>
                        </tr>
                        <tr>
                           <td>Disorder of kidney due to diabetes mellitus</td>
                           <td>
                              <span class="nb">18-Jul-2006</span>
                           </td>
                           <td>active</td>
                        </tr>
                        <tr>
                           <td>Chronic kidney disease stage 1</td>
                           <td>
                              <span class="nb">18-Jul-2006</span>
                           </td>
                           <td>active</td>
                        </tr>
                        <tr>
                           <td>Metabolic syndrome X</td>
                           <td>
                              <span class="nb">02-Jun-1998</span>
                           </td>
                           <td>active</td>
                        </tr>
                        <tr>
                           <td>Anemia</td>
                           <td>
                              <span class="nb">27-May-1997</span>
                           </td>
                           <td>active</td>
                        </tr>
                        <tr>
                           <td>Prediabetes</td>
                           <td>
                              <span class="nb">10-May-1994</span>
                           </td>
                           <td>active</td>
                        </tr>
                        <tr>
                           <td>Essential hypertension</td>
                           <td>
                              <span class="nb">16-Apr-1991</span>
                           </td>
                           <td>active</td>
                        </tr>
                     </table>
                  </div>
               </text>
               <entry>
                  <reference value="urn:uuid:a13cbde9-e609-47e4-a894-b06f3c5c52f9"/>
               </entry>
               <entry>
                  <reference value="urn:uuid:f29832b3-cc8b-4a94-b2ca-32bfafca1b94"/>
               </entry>
               <entry>
                  <reference value="urn:uuid:7d9fa088-3616-4525-9ba7-6d1285a0ee68"/>
               </entry>
               <entry>
                  <reference value="urn:uuid:fe6d455d-c73a-4c69-a3de-4a923ec8ebd6"/>
               </entry>
               <entry>
                  <reference value="urn:uuid:320a6d59-0576-4072-9e5c-949069d0e168"/>
               </entry>
               <entry>
                  <reference value="urn:uuid:92551e89-13ee-465a-96bf-9576204ca660"/>
               </entry>
               <entry>
                  <reference value="urn:uuid:35db787c-be71-4917-b695-2d1797048d59"/>
               </entry>
               <entry>
                  <reference value="urn:uuid:d510ba34-1eef-45a5-822f-e8f4faebf772"/>
               </entry>
               <entry>
                  <reference value="urn:uuid:39faaf5e-4ba2-40c6-b1df-9ca62edc44a3"/>
               </entry>
               <entry>
                  <reference value="urn:uuid:ed311ead-e642-4452-b4f4-77bb48abb378"/>
               </entry>
               <entry>
                  <reference value="urn:uuid:5a0eb1ed-cfb3-4b86-bf4e-75f9a5317100"/>
               </entry>
            </section>
            <section>
               <title value="Medication list"/>
               <code>
                  <coding>
                     <system value="http://loinc.org"/>
                     <code value="10160-0"/>
                     <display value="History of Medication use Narrative"/>
                  </coding>
               </code>
               <text>
                  <status value="generated"/>
                  <div xmlns="http://www.w3.org/1999/xhtml">
                     <table class="hl7__ips">
                        <tr>
                           <th>Medication</th>
                           <th>Since</th>
                           <th>Form</th>
                           <th>Dosage</th>
                           <th>Reason</th>
                        </tr>
                        <tr>
                           <td>Simvastatin 10 mg oral tablet</td>
                           <td>
                              <span class="nb">2025-07-15</span>
                           </td>
                           <td>-</td>
                           <td>1 tablet (10 mg) by mouth once daily</td>
                           <td>Hyperlipidemia</td>
                        </tr>
                        <tr>
                           <td>insulin isophane human 70 UNT/ML / insulin regular human 30 UNT/ML Injectable Suspension [Humulin]</td>
                           <td>
                              <span class="nb">2025-06-16</span>
                           </td>
                           <td>-</td>
                           <td>10 units subcutaneously twice daily before breakfast and dinner</td>
                           <td>Prediabetes</td>
                        </tr>
                        <tr>
                           <td>Amlodipine (as amlodipine besylate) 2.5 mg oral tablet</td>
                           <td>
                              <span class="nb">2025-06-16</span>
                           </td>
                           <td>-</td>
                           <td>1 tablet (2.5 mg) by mouth once daily</td>
                           <td>Essential hypertension (disorder)</td>
                        </tr>
                        <tr>
                           <td>Vitamin B12 5 MG/ML Injectable Solution</td>
                           <td>
                              <span class="nb">1997-06-02</span>
                           </td>
                           <td>-</td>
                           <td>5 mg (1 mL) intramuscularly once weekly</td>
                           <td>-</td>
                        </tr>
                     </table>
                  </div>
               </text>
               <entry>
                  <reference value="urn:uuid:59c9288d-d402-4050-a513-8cee759027f6"/>
               </entry>
               <entry>
                  <reference value="urn:uuid:48246013-cc4e-4cdc-9a56-4558607678cc"/>
               </entry>
               <entry>
                  <reference value="urn:uuid:38f277be-4de0-4612-99ce-420fefbb7691"/>
               </entry>
               <entry>
                  <reference value="urn:uuid:551dc2c7-5bbc-4313-87d7-915beeea5c94"/>
               </entry>
            </section>
            <section>
               <title value="Immunizations list"/>
               <code>
                  <coding>
                     <system value="http://loinc.org"/>
                     <code value="11369-6"/>
                     <display value="History of Immunization note"/>
                  </coding>
               </code>
               <text>
                  <status value="generated"/>
                  <div xmlns="http://www.w3.org/1999/xhtml">
                     <table class="hl7__ips">
                        <tr>
                           <th>Vaccine</th>
                           <th>Date</th>
                        </tr>
                        <tr>
                           <td>Influenza virus antigen only vaccine product</td>
                           <td>
                              <span class="nb">28-Apr-2025</span>
                           </td>
                        </tr>
                        <tr>
                           <td>Streptococcus pneumoniae Danish serotype 1</td>
                           <td>
                              <span class="nb">21-Oct-2024</span>
                           </td>
                        </tr>
                        <tr>
                           <td>Streptococcus pneumoniae Danish serotype 1</td>
                           <td>
                              <span class="nb">11-Dec-2023</span>
                           </td>
                        </tr>
                        <tr>
                           <td>SARS-CoV-2 mRNA vaccine</td>
                           <td>
                              <span class="nb">20-Dec-2021</span>
                           </td>
                        </tr>
                        <tr>
                           <td>Clostridium tetani toxoid antigen adsorbed only vaccine product</td>
                           <td>
                              <span class="nb">30-Sep-2019</span>
                           </td>
                        </tr>
                     </table>
                  </div>
               </text>
               <entry>
                  <reference value="urn:uuid:85fc889e-2f86-43e4-8667-de8fa3935525"/>
               </entry>
               <entry>
                  <reference value="urn:uuid:85cb1070-a425-44f1-9955-6cddae3139c6"/>
               </entry>
               <entry>
                  <reference value="urn:uuid:ba7cc130-70eb-4498-9ed3-51556bc586c0"/>
               </entry>
               <entry>
                  <reference value="urn:uuid:00a86d54-4c10-46b4-a5f2-481dcca9f927"/>
               </entry>
               <entry>
                  <reference value="urn:uuid:7114f937-f18a-4fb1-a3c8-332ad113256e"/>
               </entry>
            </section>
            <section>
               <title value="Procedure History list"/>
               <code>
                  <coding>
                     <system value="http://loinc.org"/>
                     <code value="47519-4"/>
                     <display value="History of Procedures Document"/>
                  </coding>
               </code>
               <text>
                  <status value="generated"/>
                  <div xmlns="http://www.w3.org/1999/xhtml">
                     <table class="hl7__ips">
                        <tr>
                           <th>Procedure</th>
                           <th>Date</th>
                           <th>Reason</th>
                        </tr>
                        <tr>
                           <td>Depression screening</td>
                           <td>
                              <span class="nb">20-May-2025</span>
                           </td>
                           <td>-</td>
                        </tr>
                        <tr>
                           <td>Screening for domestic abuse</td>
                           <td>
                              <span class="nb">20-May-2025</span>
                           </td>
                           <td>-</td>
                        </tr>
                        <tr>
                           <td>Depression screening using Patient Health Questionnaire Two-Item score (procedure)</td>
                           <td>
                              <span class="nb">20-May-2025</span>
                           </td>
                           <td>-</td>
                        </tr>
                        <tr>
                           <td>Assessment of health and social care needs</td>
                           <td>
                              <span class="nb">19-May-2025</span>
                           </td>
                           <td>-</td>
                        </tr>
                        <tr>
                           <td>Assessment of anxiety</td>
                           <td>
                              <span class="nb">19-May-2025</span>
                           </td>
                           <td>-</td>
                        </tr>
                        <tr>
                           <td>Assessment using Morse Fall Scale</td>
                           <td>
                              <span class="nb">19-May-2025</span>
                           </td>
                           <td>-</td>
                        </tr>
                        <tr>
                           <td>Assessment using AUDIT-C (Alcohol Use Disorders Identification Test - Consumption)</td>
                           <td>
                              <span class="nb">18-Mar-2025</span>
                           </td>
                           <td>-</td>
                        </tr>
                        <tr>
                           <td>Assessment of substance use</td>
                           <td>
                              <span class="nb">18-Mar-2025</span>
                           </td>
                           <td>-</td>
                        </tr>
                        <tr>
                           <td>Medication reconciliation</td>
                           <td>
                              <span class="nb">17-Mar-2025</span>
                           </td>
                           <td>-</td>
                        </tr>
                        <tr>
                           <td>Screening for drug abuse</td>
                           <td>
                              <span class="nb">21-May-2024</span>
                           </td>
                           <td>-</td>
                        </tr>
                        <tr>
                           <td>Pre-discharge assessment</td>
                           <td>
                              <span class="nb">01-Dec-2023</span>
                           </td>
                           <td>-</td>
                        </tr>
                        <tr>
                           <td>Discharge from skilled nursing facility (procedure)</td>
                           <td>
                              <span class="nb">01-Dec-2023</span>
                           </td>
                           <td>-</td>
                        </tr>
                        <tr>
                           <td>Nursing care/supplementary surveillance</td>
                           <td>
                              <span class="nb">30-Nov-2023</span>
                           </td>
                           <td>-</td>
                        </tr>
                        <tr>
                           <td>Occupational therapy</td>
                           <td>
                              <span class="nb">29-Nov-2023</span>
                           </td>
                           <td>-</td>
                        </tr>
                        <tr>
                           <td>Professional / ancillary services care</td>
                           <td>
                              <span class="nb">22-Nov-2023</span>
                           </td>
                           <td>-</td>
                        </tr>
                        <tr>
                           <td>Physical therapy procedure</td>
                           <td>
                              <span class="nb">18-Nov-2023</span>
                           </td>
                           <td>-</td>
                        </tr>
                        <tr>
                           <td>Speech and language therapy regime</td>
                           <td>
                              <span class="nb">31-Oct-2023</span>
                           </td>
                           <td>-</td>
                        </tr>
                        <tr>
                           <td>Care regimes assessment</td>
                           <td>
                              <span class="nb">23-Oct-2023</span>
                           </td>
                           <td>-</td>
                        </tr>
                        <tr>
                           <td>History AND physical examination</td>
                           <td>
                              <span class="nb">02-Oct-2023</span>
                           </td>
                           <td>-</td>
                        </tr>
                        <tr>
                           <td>Initial patient assessment</td>
                           <td>
                              <span class="nb">02-Oct-2023</span>
                           </td>
                           <td>-</td>
                        </tr>
                        <tr>
                           <td>Development of individualized plan of care</td>
                           <td>
                              <span class="nb">02-Oct-2023</span>
                           </td>
                           <td>-</td>
                        </tr>
                        <tr>
                           <td>Depression screening using PHQ-9 (Patient Health Questionnaire 9) score</td>
                           <td>
                              <span class="nb">19-Jul-2022</span>
                           </td>
                           <td>-</td>
                        </tr>
                        <tr>
                           <td>Radiography of wrist</td>
                           <td>
                              <span class="nb">27-Dec-2015</span>
                           </td>
                           <td>-</td>
                        </tr>
                        <tr>
                           <td>Bone immobilization</td>
                           <td>
                              <span class="nb">27-Dec-2015</span>
                           </td>
                           <td>Fracture subluxation of wrist</td>
                        </tr>
                        <tr>
                           <td>Bone density scan</td>
                           <td>
                              <span class="nb">27-Dec-2015</span>
                           </td>
                           <td>Fracture subluxation of wrist</td>
                        </tr>
                     </table>
                  </div>
               </text>
               <entry>
                  <reference value="urn:uuid:00eb3c21-41ce-4ee7-8945-a6cc2c316064"/>
               </entry>
               <entry>
                  <reference value="urn:uuid:52ba6ce5-aebf-4800-997d-585016ea4a33"/>
               </entry>
               <entry>
                  <reference value="urn:uuid:fb13f8fc-34af-4334-9bc0-d5a285f3ca02"/>
               </entry>
               <entry>
                  <reference value="urn:uuid:1eb3bc60-7a3a-4379-8556-70215531e0a6"/>
               </entry>
               <entry>
                  <reference value="urn:uuid:922a4677-33b7-4c28-b893-3034a97966cc"/>
               </entry>
               <entry>
                  <reference value="urn:uuid:19841749-c7e7-4ab5-b0d4-b33bac54eb61"/>
               </entry>
               <entry>
                  <reference value="urn:uuid:c1f913f3-ea4e-4ac4-9ee7-80db359862ee"/>
               </entry>
               <entry>
                  <reference value="urn:uuid:242893db-4922-4b21-996e-5b5b66d0257a"/>
               </entry>
               <entry>
                  <reference value="urn:uuid:d31bb2d5-a970-40cd-b6cf-b8c629d7fdeb"/>
               </entry>
               <entry>
                  <reference value="urn:uuid:cb80ce16-c403-426c-9c17-19305d356d54"/>
               </entry>
               <entry>
                  <reference value="urn:uuid:0842d51b-2b96-400e-9419-aa7ec848919f"/>
               </entry>
               <entry>
                  <reference value="urn:uuid:df359677-26a5-4a09-88b8-8e8165d5582f"/>
               </entry>
               <entry>
                  <reference value="urn:uuid:95bb45b6-31e8-4bbe-b142-3a966dd52a4e"/>
               </entry>
               <entry>
                  <reference value="urn:uuid:ab5cf4ca-96fd-4154-ad82-e4505cd8fbcd"/>
               </entry>
               <entry>
                  <reference value="urn:uuid:5e5da5f7-fd0f-4a29-9210-b4fd2ea070f8"/>
               </entry>
               <entry>
                  <reference value="urn:uuid:d3b543a8-9478-4a37-9e7d-a5733122b387"/>
               </entry>
               <entry>
                  <reference value="urn:uuid:cf7099ea-ee87-4dcc-a853-979969eedd0c"/>
               </entry>
               <entry>
                  <reference value="urn:uuid:b80d0e7c-6f91-424e-8a80-994f968ed197"/>
               </entry>
               <entry>
                  <reference value="urn:uuid:e261883e-8a8f-4af2-8e6b-055030db1f33"/>
               </entry>
               <entry>
                  <reference value="urn:uuid:58672db7-f8b5-4b25-8350-7b4f87c7217b"/>
               </entry>
               <entry>
                  <reference value="urn:uuid:21a394ac-99ec-4ef3-b672-fbac84bc0ec7"/>
               </entry>
               <entry>
                  <reference value="urn:uuid:5dba8feb-a37f-485f-986c-8deee51dc868"/>
               </entry>
               <entry>
                  <reference value="urn:uuid:55d3a38f-51a2-45b3-817e-3e78b5c9936d"/>
               </entry>
               <entry>
                  <reference value="urn:uuid:e7812b1e-44d1-40d5-9cd2-b0ab75a112ce"/>
               </entry>
               <entry>
                  <reference value="urn:uuid:98f5e7d7-09cd-45e7-864e-0c69e107d122"/>
               </entry>
            </section>
            <section>
               <title value="Allergies and Intolerances"/>
               <code>
                  <coding>
                     <system value="http://loinc.org"/>
                     <code value="48765-2"/>
                     <display value="Allergies and adverse reactions Document"/>
                  </coding>
               </code>
               <text>
                  <status value="generated"/>
                  <div xmlns="http://www.w3.org/1999/xhtml">
                     <table class="hl7__ips">
                        <tr>
                           <th>Allergy/Intolerance</th>
                           <th>Onset Date</th>
                           <th>Status</th>
                           <th>Type</th>
                           <th>Reaction</th>
                        </tr>
                        <tr>
                           <td/>
                           <td>?</td>
                           <td>active</td>
                           <td>?</td>
                           <td/>
                        </tr>
                     </table>
                  </div>
               </text>
               <entry>
                  <reference value="urn:uuid:7a1932c1-3f94-4682-a4d3-0b98d9a65345"/>
               </entry>
            </section>
            <section>
               <title value="Care Plan"/>
               <code>
                  <coding>
                     <system value="http://loinc.org"/>
                     <code value="18776-5"/>
                     <display value="Plan of care note"/>
                  </coding>
               </code>
               <text>
                  <status value="generated"/>
                  <div xmlns="http://www.w3.org/1999/xhtml">
                     <table class="hl7__ips">
                        <tr>
                           <th>Active Planned Care / Goals</th>
                           <th>Start Date</th>
                           <th>Reason</th>
                        </tr>
                        <tr>
                           <td>Hyperlipidemia clinical management plan</td>
                           <td>
                              <span class="nb">16-Jul-2024</span>
                           </td>
                           <td>Hyperlipidemia</td>
                        </tr>
                        <tr>
                           <td>
                              <ul>
                                 <li>Reduce LDL cholesterol to target level</li>
                                 <li>Reduce total cholesterol to target level</li>
                                 <li>Reduce triglycerides to target level</li>
                                 <li>Increase HDL cholesterol to target level</li>
                              </ul>
                           </td>
                           <td/>
                           <td/>
                        </tr>
                        <tr>
                           <td>Diabetes self management plan</td>
                           <td>
                              <span class="nb">10-May-1994</span>
                           </td>
                           <td>Prediabetes</td>
                        </tr>
                        <tr>
                           <td>
                              <ul>
                                 <li>Achieve and maintain Hemoglobin A1c below 6.5% through diabetes self-management.</li>
                                 <li>Achieve and maintain a healthy body weight as part of diabetes self-management.</li>
                                 <li>Maintain blood pressure below 130/80 mmHg through lifestyle modifications.</li>
                                 <li>Achieve and maintain LDL cholesterol below 2.6 mmol/L as part of diabetes self-management.</li>
                              </ul>
                           </td>
                           <td/>
                           <td/>
                        </tr>
                        <tr>
                           <td>Lifestyle education regarding hypertension</td>
                           <td>
                              <span class="nb">16-Apr-1991</span>
                           </td>
                           <td>Essential hypertension (disorder)</td>
                        </tr>
                        <tr>
                           <td>
                              <ul>
                                 <li>Maintain blood pressure below 130/80 mmHg to reduce cardiovascular and renal risk.</li>
                                 <li>Adopt dietary changes, increase physical activity, and reduce sodium intake to support blood pressure control.</li>
                              </ul>
                           </td>
                           <td/>
                           <td/>
                        </tr>
                        <tr>
                           <th>Immunization Recommendation</th>
                           <th>Due Date</th>
                           <th>Reason</th>
                        </tr>
                        <tr>
                           <td>Vaccine product containing only Influenza virus antigen (medicinal product)</td>
                           <td>
                              <span class="nb">01-Oct-2025</span>
                           </td>
                           <td>Annual seasonal influenza vaccination</td>
                        </tr>
                     </table>
                  </div>
               </text>
               <entry>
                  <reference value="urn:uuid:7cebd6aa-6731-4bb7-baf5-dff8ec656312"/>
               </entry>
               <entry>
                  <reference value="urn:uuid:f2df7653-b4e3-4527-89b6-2518f7d45a32"/>
               </entry>
               <entry>
                  <reference value="urn:uuid:a383ab84-d92d-4815-9b8f-415e73f08cb9"/>
               </entry>
               <entry>
                  <reference value="urn:uuid:de30efcd-3993-4ff3-97c1-7598b4de94c7"/>
               </entry>
            </section>
            <section>
               <title value="Vital Signs"/>
               <code>
                  <coding>
                     <system value="http://loinc.org"/>
                     <code value="8716-3"/>
                     <display value="Vital signs note"/>
                  </coding>
               </code>
               <text>
                  <status value="generated"/>
                  <div xmlns="http://www.w3.org/1999/xhtml">
                     <table class="hl7__ips">
                        <tr>
                           <th>Vital Signs</th>
                           <th>2025-06-16</th>
                           <th>2025-05-19</th>
                        </tr>
                        <tr>
                           <td>Body Height</td>
                           <td>169.5 cm</td>
                           <td>169.5 cm</td>
                        </tr>
                        <tr>
                           <td>Pain severity - 0-10 verbal numeric rating [Score] - Reported</td>
                           <td>1 {score}</td>
                           <td>2 {score}</td>
                        </tr>
                        <tr>
                           <td>Body Weight</td>
                           <td>80.6 kg</td>
                           <td>80.6 kg</td>
                        </tr>
                        <tr>
                           <td>Body mass index (BMI) [Ratio]</td>
                           <td>28.1 kg/m2</td>
                           <td>28.1 kg/m2</td>
                        </tr>
                        <tr>
                           <td>Diastolic Blood Pressure</td>
                           <td>91 mm[Hg]</td>
                           <td>89 mm[Hg]</td>
                        </tr>
                        <tr>
                           <td>Systolic Blood Pressure</td>
                           <td>111 mm[Hg]</td>
                           <td>110 mm[Hg]</td>
                        </tr>
                        <tr>
                           <td>Heart rate</td>
                           <td>79 /min</td>
                           <td>65 /min</td>
                        </tr>
                        <tr>
                           <td>Respiratory rate</td>
                           <td>14 /min</td>
                           <td>14 /min</td>
                        </tr>
                     </table>
                  </div>
               </text>
               <entry>
                  <reference value="urn:uuid:4ae546db-baef-4085-b9c8-70837c0ad6af"/>
               </entry>
               <entry>
                  <reference value="urn:uuid:60db4dd2-2971-4bc0-b176-0dba7c49b621"/>
               </entry>
               <entry>
                  <reference value="urn:uuid:24c3c298-7864-48f1-a90f-550f049b5bd0"/>
               </entry>
               <entry>
                  <reference value="urn:uuid:b3dc33f3-e456-4b8e-bea1-7e3a2ff490fa"/>
               </entry>
               <entry>
                  <reference value="urn:uuid:3273a658-7eb1-479c-8721-6411ea0f4fa8"/>
               </entry>
               <entry>
                  <reference value="urn:uuid:baa57112-8286-4852-ad9d-e7f89d6a0861"/>
               </entry>
               <entry>
                  <reference value="urn:uuid:ee8f17ee-558e-4ccb-bd70-5bec899cc976"/>
               </entry>
               <entry>
                  <reference value="urn:uuid:0d3c3534-339e-4cc2-809b-693141acbbc4"/>
               </entry>
               <entry>
                  <reference value="urn:uuid:2d222e56-da97-467b-8345-3cc7aa422923"/>
               </entry>
               <entry>
                  <reference value="urn:uuid:d14a0f72-3bd8-47d0-badc-e39652eec919"/>
               </entry>
               <entry>
                  <reference value="urn:uuid:d3f062fc-eba9-4d53-885e-ab9ee2023b48"/>
               </entry>
               <entry>
                  <reference value="urn:uuid:fa55a61b-25da-4cc3-ac49-98c71a77a4f1"/>
               </entry>
               <entry>
                  <reference value="urn:uuid:f81347c6-73de-4ce1-ad3e-dc48d02e2c31"/>
               </entry>
               <entry>
                  <reference value="urn:uuid:ce13097c-f2bb-4397-85de-0edd03241850"/>
               </entry>
               <entry>
                  <reference value="urn:uuid:d718152b-6c05-4b50-87e7-9a9250736ba8"/>
               </entry>
               <entry>
                  <reference value="urn:uuid:7ab56c1a-3272-4715-8da3-87860de51b54"/>
               </entry>
            </section>
            <section>
               <title value="Relevant diagnostic tests/laboratory data"/>
               <code>
                  <coding>
                     <system value="http://loinc.org"/>
                     <code value="30954-2"/>
                     <display value="Relevant diagnostic tests/laboratory data note"/>
                  </coding>
               </code>
               <text>
                  <status value="generated"/>
                  <div xmlns="http://www.w3.org/1999/xhtml">
                     <table class="hl7__ips">
                        <table class="hl7__ips">
                           <thead>
                              <tr>
                                 <th>Recent Lab Observations</th>
                                 <th>16-JUL-2025</th>
                                 <th>Reference Range</th>
                                 <th>Unit</th>
                              </tr>
                           </thead>
                           <tbody>
                              <tr>
                                 <td>Glucose [Mass/volume] in Blood</td>
                                 <td>75.1</td>
                                 <td>70 - 100</td>
                                 <td>mg/dL</td>
                              </tr>
                              <tr>
                                 <td>Urea nitrogen [Mass/volume] in Blood</td>
                                 <td>18.0</td>
                                 <td>7 - 43</td>
                                 <td>mg/dL</td>
                              </tr>
                              <tr>
                                 <td>Creatinine [Mass/volume] in Blood</td>
                                 <td>
                                    <strong>2.9 H</strong>
                                 </td>
                                 <td>0.6 - 1.1</td>
                                 <td>mg/dL</td>
                              </tr>
                              <tr>
                                 <td>Calcium [Mass/volume] in Blood</td>
                                 <td>9.8</td>
                                 <td>8.5 - 10.5</td>
                                 <td>mg/dL</td>
                              </tr>
                              <tr>
                                 <td>Sodium [Moles/volume] in Blood</td>
                                 <td>137.5</td>
                                 <td>135 - 145</td>
                                 <td>mmol/L</td>
                              </tr>
                              <tr>
                                 <td>Potassium [Moles/volume] in Blood</td>
                                 <td>4.6</td>
                                 <td>3.5 - 5.1</td>
                                 <td>mmol/L</td>
                              </tr>
                              <tr>
                                 <td>Chloride [Moles/volume] in Blood</td>
                                 <td>105.3</td>
                                 <td>98 - 108</td>
                                 <td>mmol/L</td>
                              </tr>
                              <tr>
                                 <td>Carbon dioxide, total [Moles/volume] in Blood</td>
                                 <td>25.3</td>
                                 <td>22 - 29</td>
                                 <td>mmol/L</td>
                              </tr>
                              <tr>
                                 <td>Protein [Mass/volume] in Serum or Plasma</td>
                                 <td>6.7</td>
                                 <td>6 - 8.3</td>
                                 <td>g/dL</td>
                              </tr>
                              <tr>
                                 <td>Albumin [Mass/volume] in Serum or Plasma</td>
                                 <td>5.2</td>
                                 <td>3.5 - 5.5</td>
                                 <td>g/dL</td>
                              </tr>
                              <tr>
                                 <td>Globulin [Mass/volume] in Serum by calculation</td>
                                 <td>3.2</td>
                                 <td>2 - 3.5</td>
                                 <td>g/L</td>
                              </tr>
                              <tr>
                                 <td>Bilirubin.total [Mass/volume] in Serum or Plasma</td>
                                 <td>
                                    <strong>0.1 L</strong>
                                 </td>
                                 <td>0.3 - 1.2</td>
                                 <td>mg/dL</td>
                              </tr>
                              <tr>
                                 <td>Alkaline phosphatase [Enzymatic activity/volume] in Serum or Plasma</td>
                                 <td>80.2</td>
                                 <td>44 - 130</td>
                                 <td>U/L</td>
                              </tr>
                              <tr>
                                 <td>Alanine aminotransferase [Enzymatic activity/volume] in Serum or Plasma</td>
                                 <td>53.4</td>
                                 <td>0 - 55</td>
                                 <td>U/L</td>
                              </tr>
                              <tr>
                                 <td>Aspartate aminotransferase [Enzymatic activity/volume] in Serum or Plasma</td>
                                 <td>10.6</td>
                                 <td>10 - 40</td>
                                 <td>U/L</td>
                              </tr>
                              <tr>
                                 <td>Cholesterol [Mass/volume] in Serum or Plasma</td>
                                 <td>199.1</td>
                                 <td>125 - 239</td>
                                 <td>mg/dL</td>
                              </tr>
                              <tr>
                                 <td>Triglyceride [Mass/volume] in Serum or Plasma</td>
                                 <td>113.4</td>
                                 <td/>
                                 <td>mg/dL</td>
                              </tr>
                              <tr>
                                 <td>Cholesterol in LDL [Mass/volume] in Serum or Plasma by Direct assay</td>
                                 <td>
                                    <strong>142.4 H</strong>
                                 </td>
                                 <td>0 - 130</td>
                                 <td>mg/dL</td>
                              </tr>
                              <tr>
                                 <td>Cholesterol in HDL [Mass/volume] in Serum or Plasma</td>
                                 <td>74.2</td>
                                 <td>50 - 100</td>
                                 <td>mg/dL</td>
                              </tr>
                           </tbody>
                        </table>
                     </table>
                  </div>
               </text>
               <entry>
                  <reference value="urn:uuid:6dd671d2-7432-44f8-bbb1-56f922f3f5db"/>
               </entry>
               <entry>
                  <reference value="urn:uuid:990cd759-f00e-48de-92e8-b044095c16a6"/>
               </entry>
               <entry>
                  <reference value="urn:uuid:2ef252e6-6437-4ed0-a287-40b702e94392"/>
               </entry>
               <entry>
                  <reference value="urn:uuid:02088bcc-80d5-4657-b7cd-f663d05c4bac"/>
               </entry>
               <entry>
                  <reference value="urn:uuid:13c9572b-f0ff-47ef-bdb1-0af5a6c1d676"/>
               </entry>
               <entry>
                  <reference value="urn:uuid:4430985e-8124-454f-be77-368d95e2835d"/>
               </entry>
               <entry>
                  <reference value="urn:uuid:a92c2b35-53e2-46fb-9e9e-1c655a3d19c0"/>
               </entry>
               <entry>
                  <reference value="urn:uuid:f8d29d4f-290a-4258-9fdd-9c6291cf38df"/>
               </entry>
               <entry>
                  <reference value="urn:uuid:9dc369e2-a704-47e9-9d7b-5163e7a952a5"/>
               </entry>
               <entry>
                  <reference value="urn:uuid:5016659a-1e30-4320-bdc2-59fe5abbbea3"/>
               </entry>
               <entry>
                  <reference value="urn:uuid:3506b0dc-269e-41f6-a566-c21812b2c1d6"/>
               </entry>
               <entry>
                  <reference value="urn:uuid:fbdd6c19-6840-425f-9df4-d4828f31fe52"/>
               </entry>
               <entry>
                  <reference value="urn:uuid:3e7408ee-8fb6-463d-ba6e-e37aedaf4020"/>
               </entry>
               <entry>
                  <reference value="urn:uuid:4f1d9078-98f2-4dfd-8b98-e5269c1e531a"/>
               </entry>
               <entry>
                  <reference value="urn:uuid:b855fca9-702d-463c-94bd-6b9c0b0c2b31"/>
               </entry>
               <entry>
                  <reference value="urn:uuid:8aa94eb0-e771-49a9-b0a9-e67d87048b48"/>
               </entry>
               <entry>
                  <reference value="urn:uuid:37cb845d-7b5f-493b-a09a-04f2b423c8c5"/>
               </entry>
               <entry>
                  <reference value="urn:uuid:8830ea51-77f3-43e7-9673-b740bdcbb509"/>
               </entry>
               <entry>
                  <reference value="urn:uuid:4cd1af7e-8d83-4790-b69a-3a5b75bde724"/>
               </entry>
            </section>
            <section>
               <title value="Device Use"/>
               <code>
                  <coding>
                     <system value="http://loinc.org"/>
                     <code value="46264-8"/>
                     <display value="History of medical device use"/>
                  </coding>
               </code>
               <text>
                  <status value="generated"/>
                  <div xmlns="http://www.w3.org/1999/xhtml">
                     <table class="hl7__ips">
                        <tr>
                           <th>Device</th>
                           <th>Date (since)</th>
                        </tr>
                        <tr>
                           <td>Blood glucose meter (physical object)</td>
                           <td>
                              <span class="nb">09-May-1994</span>
                           </td>
                        </tr>
                     </table>
                  </div>
               </text>
               <entry>
                  <reference value="urn:uuid:99865356-3147-4c79-8fbf-7f7488bc81de"/>
               </entry>
            </section>
         </Composition>
      </resource>
   </entry>
   <entry>
      <fullUrl value="urn:uuid:62480d3b-bc3e-44b2-b530-29d3c4027acb"/>
      <resource>
         <Patient>
            <id value="62480d3b-bc3e-44b2-b530-29d3c4027acb"/>
            <meta>
               <profile value="http://hl7.eu/fhir/eps/StructureDefinition/patient-eu-eps"/>
               <security>
                  <system value="http://terminology.hl7.org/CodeSystem/v3-ActReason"/>
                  <code value="HTEST"/>
               </security>
               <security>
                  <system value="http://terminology.hl7.org/CodeSystem/v3-ActReason"/>
                  <code value="TRAIN"/>
               </security>
               <tag>
                  <system value="https://synderai.net/fhir/CodeSystem/tags"/>
                  <code value="synthetic"/>
                  <display value="SYNDERAI Synthetic data"/>
               </tag>
            </meta>
            <text>
               <status value="generated"/>
               <div xmlns="http://www.w3.org/1999/xhtml">
                  <table class="hl7__ips">
                     <tr>
                        <td>Meaghan Neary</td>
                        <td>female</td>
                        <td>19-Dec-1960</td>
                     </tr>
                  </table>
               </div>
            </text>
            <extension url="http://hl7.org/fhir/StructureDefinition/patient-nationality">
               <valueCodeableConcept>
                  <coding>
                     <system value="http://hl7.org/fhir/ValueSet/country"/>
                     <code value="IE"/>
                  </coding>
               </valueCodeableConcept>
            </extension>
            <identifier>
               <type>
                  <coding>
                     <system value="http://terminology.hl7.org/CodeSystem/v2-0203"/>
                     <code value="PT"/>
                  </coding>
               </type>
               <system value="http://ec.europa.eu/identifier/eci"/>
               <value value="1586-567257-8"/>
            </identifier>
            <identifier>
               <type>
                  <coding>
                     <system value="http://terminology.hl7.org/CodeSystem/v2-0203"/>
                     <code value="MR"/>
                  </coding>
               </type>
               <system value="http://local.setting.eu/identifier"/>
               <value value="443e6379-f231-b364-3ccb-644740a1aa2a"/>
            </identifier>
            <name>
               <family value="Neary"/>
            </name>
            <name>
               <given value="Meaghan"/>
            </name>
            <name>
               <text value="Meaghan Neary"/>
            </name>
            <telecom>
               <system value="phone"/>
               <value value="001-967-573-0911x465"/>
            </telecom>
            <gender value="female"/>
            <birthDate value="1960-12-19"/>
            <address>
               <use value="home"/>
               <type value="physical"/>
               <line value="64 Linskey Street"/>
               <city value="Dublin"/>
               <postalCode value="D02"/>
               <country value="Ireland"/>
            </address>
         </Patient>
      </resource>
   </entry>
   <entry>
      <fullUrl value="urn:uuid:8c473960-0099-46ab-a4e1-71bb0fc52514"/>
      <resource>
         <PractitionerRole>
            <id value="8c473960-0099-46ab-a4e1-71bb0fc52514"/>
            <meta>
               <profile value="http://hl7.eu/fhir/base/StructureDefinition/practitionerRole-eu"/>
            </meta>
            <text>
               <status value="generated"/>
               <div xmlns="http://www.w3.org/1999/xhtml">
                  <table class="hl7__ips">Provider Role Id 8c473960-0099-46ab-a4e1-71bb0fc52514</table>
               </div>
            </text>
            <practitioner>
               <reference value="urn:uuid:4777f485-22c6-469a-b68d-07ac062b9878"/>
            </practitioner>
            <organization>
               <reference value="urn:uuid:62088d92-b336-44eb-b1dc-a30b8080d6e6"/>
            </organization>
         </PractitionerRole>
      </resource>
   </entry>
   <entry>
      <fullUrl value="urn:uuid:4777f485-22c6-469a-b68d-07ac062b9878"/>
      <resource>
         <Practitioner>
            <id value="4777f485-22c6-469a-b68d-07ac062b9878"/>
            <meta>
               <profile value="http://hl7.eu/fhir/base/StructureDefinition/practitioner-eu"/>
            </meta>
            <text>
               <status value="generated"/>
               <div xmlns="http://www.w3.org/1999/xhtml">
                  <table class="hl7__ips">Dr. Hel Ping</table>
               </div>
            </text>
            <name>
               <family value="Ping"/>
               <given value="Hel"/>
               <prefix value="Dr."/>
            </name>
         </Practitioner>
      </resource>
   </entry>
   <entry>
      <fullUrl value="urn:uuid:62088d92-b336-44eb-b1dc-a30b8080d6e6"/>
      <resource>
         <Organization>
            <id value="62088d92-b336-44eb-b1dc-a30b8080d6e6"/>
            <meta>
               <profile value="http://hl7.eu/fhir/base/StructureDefinition/organization-eu"/>
            </meta>
            <text>
               <status value="generated"/>
               <div xmlns="http://www.w3.org/1999/xhtml">
                  <table class="hl7__ips">Rotunda Hospital</table>
               </div>
            </text>
            <identifier>
               <system value="urn:oid:2.16.840.1.113883.2.51.999"/>
               <value value="269b2d79-ad43-4200-8bd7-16a2d55c1bb8"/>
               <assigner>
                  <display value="HL7 Europe"/>
               </assigner>
            </identifier>
            <name value="Rotunda Hospital"/>
            <address>
               <line value="Parnell Square West nan"/>
               <city value="Dublin"/>
               <postalCode value="D01"/>
               <country value="Ireland"/>
            </address>
         </Organization>
      </resource>
   </entry>
   <entry>
      <fullUrl value="urn:uuid:a13cbde9-e609-47e4-a894-b06f3c5c52f9"/>
      <resource>
         <Condition>
            <id value="a13cbde9-e609-47e4-a894-b06f3c5c52f9"/>
            <meta>
               <profile value="http://hl7.org/fhir/uv/ips/StructureDefinition/Condition-uv-ips"/>
            </meta>
            <text>
               <status value="generated"/>
               <div xmlns="http://www.w3.org/1999/xhtml">
                  <table class="hl7__ips">
                     <tr>
                        <td>Hyperlipidemia</td>
                        <td>
                           <span class="nb">25-Jun-2024</span>
                        </td>
                        <td>active</td>
                     </tr>
                  </table>
               </div>
            </text>
            <category>
               <coding>
                  <system value="http://terminology.hl7.org/CodeSystem/condition-category"/>
                  <code value="problem-list-item"/>
                  <display value="Problem List Item"/>
               </coding>
            </category>
            <code>
               <coding>
                  <system value="http://snomed.info/sct"/>
                  <code value="55822004"/>
                  <display value="Hyperlipidemia (disorder)"/>
               </coding>
               <text value="Hyperlipidemia"/>
            </code>
            <subject>
               <reference value="urn:uuid:"/>
               <display value="Meaghan Neary"/>
            </subject>
            <onsetDateTime value="2024-06-25"/>
            <asserter>
               <reference value="urn:uuid:"/>
               <display value="Rotunda Hospital"/>
            </asserter>
         </Condition>
      </resource>
   </entry>
   <entry>
      <fullUrl value="urn:uuid:f29832b3-cc8b-4a94-b2ca-32bfafca1b94"/>
      <resource>
         <Condition>
            <id value="f29832b3-cc8b-4a94-b2ca-32bfafca1b94"/>
            <meta>
               <profile value="http://hl7.org/fhir/uv/ips/StructureDefinition/Condition-uv-ips"/>
            </meta>
            <text>
               <status value="generated"/>
               <div xmlns="http://www.w3.org/1999/xhtml">
                  <table class="hl7__ips">
                     <tr>
                        <td>Chronic kidney disease stage 3</td>
                        <td>
                           <span class="nb">23-Apr-2019</span>
                        </td>
                        <td>active</td>
                     </tr>
                  </table>
               </div>
            </text>
            <category>
               <coding>
                  <system value="http://terminology.hl7.org/CodeSystem/condition-category"/>
                  <code value="problem-list-item"/>
                  <display value="Problem List Item"/>
               </coding>
            </category>
            <code>
               <coding>
                  <system value="http://snomed.info/sct"/>
                  <code value="433144002"/>
                  <display value="Chronic kidney disease stage 3 (disorder)"/>
               </coding>
               <text value="Chronic kidney disease stage 3"/>
            </code>
            <subject>
               <reference value="urn:uuid:"/>
               <display value="Meaghan Neary"/>
            </subject>
            <onsetDateTime value="2019-04-23"/>
            <asserter>
               <reference value="urn:uuid:"/>
               <display value="Rotunda Hospital"/>
            </asserter>
         </Condition>
      </resource>
   </entry>
   <entry>
      <fullUrl value="urn:uuid:7d9fa088-3616-4525-9ba7-6d1285a0ee68"/>
      <resource>
         <Condition>
            <id value="7d9fa088-3616-4525-9ba7-6d1285a0ee68"/>
            <meta>
               <profile value="http://hl7.org/fhir/uv/ips/StructureDefinition/Condition-uv-ips"/>
            </meta>
            <text>
               <status value="generated"/>
               <div xmlns="http://www.w3.org/1999/xhtml">
                  <table class="hl7__ips">
                     <tr>
                        <td>Proteinuria due to type 2 diabetes mellitus</td>
                        <td>
                           <span class="nb">23-Apr-2019</span>
                        </td>
                        <td>active</td>
                     </tr>
                  </table>
               </div>
            </text>
            <category>
               <coding>
                  <system value="http://terminology.hl7.org/CodeSystem/condition-category"/>
                  <code value="problem-list-item"/>
                  <display value="Problem List Item"/>
               </coding>
            </category>
            <code>
               <coding>
                  <system value="http://snomed.info/sct"/>
                  <code value="157141000119108"/>
                  <display value="Proteinuria due to type 2 diabetes mellitus (disorder)"/>
               </coding>
               <text value="Proteinuria due to type 2 diabetes mellitus"/>
            </code>
            <subject>
               <reference value="urn:uuid:"/>
               <display value="Meaghan Neary"/>
            </subject>
            <onsetDateTime value="2019-04-23"/>
            <asserter>
               <reference value="urn:uuid:"/>
               <display value="Rotunda Hospital"/>
            </asserter>
         </Condition>
      </resource>
   </entry>
   <entry>
      <fullUrl value="urn:uuid:fe6d455d-c73a-4c69-a3de-4a923ec8ebd6"/>
      <resource>
         <Condition>
            <id value="fe6d455d-c73a-4c69-a3de-4a923ec8ebd6"/>
            <meta>
               <profile value="http://hl7.org/fhir/uv/ips/StructureDefinition/Condition-uv-ips"/>
            </meta>
            <text>
               <status value="generated"/>
               <div xmlns="http://www.w3.org/1999/xhtml">
                  <table class="hl7__ips">
                     <tr>
                        <td>Chronic kidney disease stage 2</td>
                        <td>
                           <span class="nb">27-Aug-2013</span>
                        </td>
                        <td>active</td>
                     </tr>
                  </table>
               </div>
            </text>
            <category>
               <coding>
                  <system value="http://terminology.hl7.org/CodeSystem/condition-category"/>
                  <code value="problem-list-item"/>
                  <display value="Problem List Item"/>
               </coding>
            </category>
            <code>
               <coding>
                  <system value="http://snomed.info/sct"/>
                  <code value="431856006"/>
                  <display value="Chronic kidney disease stage 2 (disorder)"/>
               </coding>
               <text value="Chronic kidney disease stage 2"/>
            </code>
            <subject>
               <reference value="urn:uuid:"/>
               <display value="Meaghan Neary"/>
            </subject>
            <onsetDateTime value="2013-08-27"/>
            <asserter>
               <reference value="urn:uuid:"/>
               <display value="Rotunda Hospital"/>
            </asserter>
         </Condition>
      </resource>
   </entry>
   <entry>
      <fullUrl value="urn:uuid:320a6d59-0576-4072-9e5c-949069d0e168"/>
      <resource>
         <Condition>
            <id value="320a6d59-0576-4072-9e5c-949069d0e168"/>
            <meta>
               <profile value="http://hl7.org/fhir/uv/ips/StructureDefinition/Condition-uv-ips"/>
            </meta>
            <text>
               <status value="generated"/>
               <div xmlns="http://www.w3.org/1999/xhtml">
                  <table class="hl7__ips">
                     <tr>
                        <td>Microalbuminuria due to type 2 diabetes mellitus</td>
                        <td>
                           <span class="nb">27-Aug-2013</span>
                        </td>
                        <td>active</td>
                     </tr>
                  </table>
               </div>
            </text>
            <category>
               <coding>
                  <system value="http://terminology.hl7.org/CodeSystem/condition-category"/>
                  <code value="problem-list-item"/>
                  <display value="Problem List Item"/>
               </coding>
            </category>
            <code>
               <coding>
                  <system value="http://snomed.info/sct"/>
                  <code value="90781000119102"/>
                  <display value="Microalbuminuria due to type 2 diabetes mellitus (disorder)"/>
               </coding>
               <text value="Microalbuminuria due to type 2 diabetes mellitus"/>
            </code>
            <subject>
               <reference value="urn:uuid:"/>
               <display value="Meaghan Neary"/>
            </subject>
            <onsetDateTime value="2013-08-27"/>
            <asserter>
               <reference value="urn:uuid:"/>
               <display value="Rotunda Hospital"/>
            </asserter>
         </Condition>
      </resource>
   </entry>
   <entry>
      <fullUrl value="urn:uuid:92551e89-13ee-465a-96bf-9576204ca660"/>
      <resource>
         <Condition>
            <id value="92551e89-13ee-465a-96bf-9576204ca660"/>
            <meta>
               <profile value="http://hl7.org/fhir/uv/ips/StructureDefinition/Condition-uv-ips"/>
            </meta>
            <text>
               <status value="generated"/>
               <div xmlns="http://www.w3.org/1999/xhtml">
                  <table class="hl7__ips">
                     <tr>
                        <td>Disorder of kidney due to diabetes mellitus</td>
                        <td>
                           <span class="nb">18-Jul-2006</span>
                        </td>
                        <td>active</td>
                     </tr>
                  </table>
               </div>
            </text>
            <category>
               <coding>
                  <system value="http://terminology.hl7.org/CodeSystem/condition-category"/>
                  <code value="problem-list-item"/>
                  <display value="Problem List Item"/>
               </coding>
            </category>
            <code>
               <coding>
                  <system value="http://snomed.info/sct"/>
                  <code value="127013003"/>
                  <display value="Disorder of kidney due to diabetes mellitus (disorder)"/>
               </coding>
               <text value="Disorder of kidney due to diabetes mellitus"/>
            </code>
            <subject>
               <reference value="urn:uuid:"/>
               <display value="Meaghan Neary"/>
            </subject>
            <onsetDateTime value="2006-07-18"/>
            <asserter>
               <reference value="urn:uuid:"/>
               <display value="Rotunda Hospital"/>
            </asserter>
         </Condition>
      </resource>
   </entry>
   <entry>
      <fullUrl value="urn:uuid:35db787c-be71-4917-b695-2d1797048d59"/>
      <resource>
         <Condition>
            <id value="35db787c-be71-4917-b695-2d1797048d59"/>
            <meta>
               <profile value="http://hl7.org/fhir/uv/ips/StructureDefinition/Condition-uv-ips"/>
            </meta>
            <text>
               <status value="generated"/>
               <div xmlns="http://www.w3.org/1999/xhtml">
                  <table class="hl7__ips">
                     <tr>
                        <td>Chronic kidney disease stage 1</td>
                        <td>
                           <span class="nb">18-Jul-2006</span>
                        </td>
                        <td>active</td>
                     </tr>
                  </table>
               </div>
            </text>
            <category>
               <coding>
                  <system value="http://terminology.hl7.org/CodeSystem/condition-category"/>
                  <code value="problem-list-item"/>
                  <display value="Problem List Item"/>
               </coding>
            </category>
            <code>
               <coding>
                  <system value="http://snomed.info/sct"/>
                  <code value="431855005"/>
                  <display value="Chronic kidney disease stage 1 (disorder)"/>
               </coding>
               <text value="Chronic kidney disease stage 1"/>
            </code>
            <subject>
               <reference value="urn:uuid:"/>
               <display value="Meaghan Neary"/>
            </subject>
            <onsetDateTime value="2006-07-18"/>
            <asserter>
               <reference value="urn:uuid:"/>
               <display value="Rotunda Hospital"/>
            </asserter>
         </Condition>
      </resource>
   </entry>
   <entry>
      <fullUrl value="urn:uuid:d510ba34-1eef-45a5-822f-e8f4faebf772"/>
      <resource>
         <Condition>
            <id value="d510ba34-1eef-45a5-822f-e8f4faebf772"/>
            <meta>
               <profile value="http://hl7.org/fhir/uv/ips/StructureDefinition/Condition-uv-ips"/>
            </meta>
            <text>
               <status value="generated"/>
               <div xmlns="http://www.w3.org/1999/xhtml">
                  <table class="hl7__ips">
                     <tr>
                        <td>Metabolic syndrome X</td>
                        <td>
                           <span class="nb">02-Jun-1998</span>
                        </td>
                        <td>active</td>
                     </tr>
                  </table>
               </div>
            </text>
            <category>
               <coding>
                  <system value="http://terminology.hl7.org/CodeSystem/condition-category"/>
                  <code value="problem-list-item"/>
                  <display value="Problem List Item"/>
               </coding>
            </category>
            <code>
               <coding>
                  <system value="http://snomed.info/sct"/>
                  <code value="237602007"/>
                  <display value="Metabolic syndrome X (disorder)"/>
               </coding>
               <text value="Metabolic syndrome X"/>
            </code>
            <subject>
               <reference value="urn:uuid:"/>
               <display value="Meaghan Neary"/>
            </subject>
            <onsetDateTime value="1998-06-02"/>
            <asserter>
               <reference value="urn:uuid:"/>
               <display value="Rotunda Hospital"/>
            </asserter>
         </Condition>
      </resource>
   </entry>
   <entry>
      <fullUrl value="urn:uuid:39faaf5e-4ba2-40c6-b1df-9ca62edc44a3"/>
      <resource>
         <Condition>
            <id value="39faaf5e-4ba2-40c6-b1df-9ca62edc44a3"/>
            <meta>
               <profile value="http://hl7.org/fhir/uv/ips/StructureDefinition/Condition-uv-ips"/>
            </meta>
            <text>
               <status value="generated"/>
               <div xmlns="http://www.w3.org/1999/xhtml">
                  <table class="hl7__ips">
                     <tr>
                        <td>Anemia</td>
                        <td>
                           <span class="nb">27-May-1997</span>
                        </td>
                        <td>active</td>
                     </tr>
                  </table>
               </div>
            </text>
            <category>
               <coding>
                  <system value="http://terminology.hl7.org/CodeSystem/condition-category"/>
                  <code value="problem-list-item"/>
                  <display value="Problem List Item"/>
               </coding>
            </category>
            <code>
               <coding>
                  <system value="http://snomed.info/sct"/>
                  <code value="271737000"/>
                  <display value="Anemia (disorder)"/>
               </coding>
               <text value="Anemia"/>
            </code>
            <subject>
               <reference value="urn:uuid:"/>
               <display value="Meaghan Neary"/>
            </subject>
            <onsetDateTime value="1997-05-27"/>
            <asserter>
               <reference value="urn:uuid:"/>
               <display value="Rotunda Hospital"/>
            </asserter>
         </Condition>
      </resource>
   </entry>
   <entry>
      <fullUrl value="urn:uuid:ed311ead-e642-4452-b4f4-77bb48abb378"/>
      <resource>
         <Condition>
            <id value="ed311ead-e642-4452-b4f4-77bb48abb378"/>
            <meta>
               <profile value="http://hl7.org/fhir/uv/ips/StructureDefinition/Condition-uv-ips"/>
            </meta>
            <text>
               <status value="generated"/>
               <div xmlns="http://www.w3.org/1999/xhtml">
                  <table class="hl7__ips">
                     <tr>
                        <td>Prediabetes</td>
                        <td>
                           <span class="nb">10-May-1994</span>
                        </td>
                        <td>active</td>
                     </tr>
                  </table>
               </div>
            </text>
            <category>
               <coding>
                  <system value="http://terminology.hl7.org/CodeSystem/condition-category"/>
                  <code value="problem-list-item"/>
                  <display value="Problem List Item"/>
               </coding>
            </category>
            <code>
               <coding>
                  <system value="http://snomed.info/sct"/>
                  <code value="15777000"/>
                  <display value="Prediabetes (disorder)"/>
               </coding>
               <text value="Prediabetes"/>
            </code>
            <subject>
               <reference value="urn:uuid:"/>
               <display value="Meaghan Neary"/>
            </subject>
            <onsetDateTime value="1994-05-10"/>
            <asserter>
               <reference value="urn:uuid:"/>
               <display value="Rotunda Hospital"/>
            </asserter>
         </Condition>
      </resource>
   </entry>
   <entry>
      <fullUrl value="urn:uuid:5a0eb1ed-cfb3-4b86-bf4e-75f9a5317100"/>
      <resource>
         <Condition>
            <id value="5a0eb1ed-cfb3-4b86-bf4e-75f9a5317100"/>
            <meta>
               <profile value="http://hl7.org/fhir/uv/ips/StructureDefinition/Condition-uv-ips"/>
            </meta>
            <text>
               <status value="generated"/>
               <div xmlns="http://www.w3.org/1999/xhtml">
                  <table class="hl7__ips">
                     <tr>
                        <td>Essential hypertension</td>
                        <td>
                           <span class="nb">16-Apr-1991</span>
                        </td>
                        <td>active</td>
                     </tr>
                  </table>
               </div>
            </text>
            <category>
               <coding>
                  <system value="http://terminology.hl7.org/CodeSystem/condition-category"/>
                  <code value="problem-list-item"/>
                  <display value="Problem List Item"/>
               </coding>
            </category>
            <code>
               <coding>
                  <system value="http://snomed.info/sct"/>
                  <code value="59621000"/>
                  <display value="Essential hypertension (disorder)"/>
               </coding>
               <text value="Essential hypertension"/>
            </code>
            <subject>
               <reference value="urn:uuid:"/>
               <display value="Meaghan Neary"/>
            </subject>
            <onsetDateTime value="1991-04-16"/>
            <asserter>
               <reference value="urn:uuid:"/>
               <display value="Rotunda Hospital"/>
            </asserter>
         </Condition>
      </resource>
   </entry>
   <entry>
      <fullUrl value="urn:uuid:d6218712-eca8-4d18-abaf-b2fcdf01e4fa"/>
      <resource>
         <Condition>
            <id value="d6218712-eca8-4d18-abaf-b2fcdf01e4fa"/>
            <meta>
               <profile value="http://hl7.org/fhir/uv/ips/StructureDefinition/Condition-uv-ips"/>
            </meta>
            <text>
               <status value="generated"/>
               <div xmlns="http://www.w3.org/1999/xhtml">
                  <table class="hl7__ips">
                     <tr>
                        <td>
                           <span class="grayedout">Acute viral pharyngitis</span>
                        </td>
                        <td>
                           <span class="nb">11-Jul-2022 - 20-Jul-2022</span>
                        </td>
                        <td>
                           <span class="grayedout">inactive</span>
                        </td>
                     </tr>
                  </table>
               </div>
            </text>
            <category>
               <coding>
                  <system value="http://terminology.hl7.org/CodeSystem/condition-category"/>
                  <code value="problem-list-item"/>
                  <display value="Problem List Item"/>
               </coding>
            </category>
            <code>
               <coding>
                  <system value="http://snomed.info/sct"/>
                  <code value="195662009"/>
                  <display value="Acute viral pharyngitis (disorder)"/>
               </coding>
               <text value="Acute viral pharyngitis"/>
            </code>
            <subject>
               <reference value="urn:uuid:"/>
               <display value="Meaghan Neary"/>
            </subject>
            <onsetDateTime value="2022-07-11"/>
            <abatementDateTime value="2022-07-20"/>
            <asserter>
               <reference value="urn:uuid:"/>
               <display value="Rotunda Hospital"/>
            </asserter>
         </Condition>
      </resource>
   </entry>
   <entry>
      <fullUrl value="urn:uuid:478c4878-22af-4dcf-9e70-6f1a959dc00f"/>
      <resource>
         <Condition>
            <id value="478c4878-22af-4dcf-9e70-6f1a959dc00f"/>
            <meta>
               <profile value="http://hl7.org/fhir/uv/ips/StructureDefinition/Condition-uv-ips"/>
            </meta>
            <text>
               <status value="generated"/>
               <div xmlns="http://www.w3.org/1999/xhtml">
                  <table class="hl7__ips">
                     <tr>
                        <td>
                           <span class="grayedout">Viral sinusitis</span>
                        </td>
                        <td>
                           <span class="nb">12-Sep-2017 - 08-Oct-2017</span>
                        </td>
                        <td>
                           <span class="grayedout">inactive</span>
                        </td>
                     </tr>
                  </table>
               </div>
            </text>
            <category>
               <coding>
                  <system value="http://terminology.hl7.org/CodeSystem/condition-category"/>
                  <code value="problem-list-item"/>
                  <display value="Problem List Item"/>
               </coding>
            </category>
            <code>
               <coding>
                  <system value="http://snomed.info/sct"/>
                  <code value="444814009"/>
                  <display value="Viral sinusitis (disorder)"/>
               </coding>
               <text value="Viral sinusitis"/>
            </code>
            <subject>
               <reference value="urn:uuid:"/>
               <display value="Meaghan Neary"/>
            </subject>
            <onsetDateTime value="2017-09-12"/>
            <abatementDateTime value="2017-10-08"/>
            <asserter>
               <reference value="urn:uuid:"/>
               <display value="Rotunda Hospital"/>
            </asserter>
         </Condition>
      </resource>
   </entry>
   <entry>
      <fullUrl value="urn:uuid:ace9e998-f7b5-4c67-96b0-8d97b16dfb98"/>
      <resource>
         <Condition>
            <id value="ace9e998-f7b5-4c67-96b0-8d97b16dfb98"/>
            <meta>
               <profile value="http://hl7.org/fhir/uv/ips/StructureDefinition/Condition-uv-ips"/>
            </meta>
            <text>
               <status value="generated"/>
               <div xmlns="http://www.w3.org/1999/xhtml">
                  <table class="hl7__ips">
                     <tr>
                        <td>
                           <span class="grayedout">Viral sinusitis</span>
                        </td>
                        <td>
                           <span class="nb">21-Nov-2016 - 09-Dec-2016</span>
                        </td>
                        <td>
                           <span class="grayedout">inactive</span>
                        </td>
                     </tr>
                  </table>
               </div>
            </text>
            <category>
               <coding>
                  <system value="http://terminology.hl7.org/CodeSystem/condition-category"/>
                  <code value="problem-list-item"/>
                  <display value="Problem List Item"/>
               </coding>
            </category>
            <code>
               <coding>
                  <system value="http://snomed.info/sct"/>
                  <code value="444814009"/>
                  <display value="Viral sinusitis (disorder)"/>
               </coding>
               <text value="Viral sinusitis"/>
            </code>
            <subject>
               <reference value="urn:uuid:"/>
               <display value="Meaghan Neary"/>
            </subject>
            <onsetDateTime value="2016-11-21"/>
            <abatementDateTime value="2016-12-09"/>
            <asserter>
               <reference value="urn:uuid:"/>
               <display value="Rotunda Hospital"/>
            </asserter>
         </Condition>
      </resource>
   </entry>
   <entry>
      <fullUrl value="urn:uuid:4d5e8682-6304-4d73-b75a-70e11d9413df"/>
      <resource>
         <Condition>
            <id value="4d5e8682-6304-4d73-b75a-70e11d9413df"/>
            <meta>
               <profile value="http://hl7.org/fhir/uv/ips/StructureDefinition/Condition-uv-ips"/>
            </meta>
            <text>
               <status value="generated"/>
               <div xmlns="http://www.w3.org/1999/xhtml">
                  <table class="hl7__ips">
                     <tr>
                        <td>
                           <span class="grayedout">Fracture of bone</span>
                        </td>
                        <td>
                           <span class="nb">27-Dec-2015 - 19-Apr-2016</span>
                        </td>
                        <td>
                           <span class="grayedout">inactive</span>
                        </td>
                     </tr>
                  </table>
               </div>
            </text>
            <category>
               <coding>
                  <system value="http://terminology.hl7.org/CodeSystem/condition-category"/>
                  <code value="problem-list-item"/>
                  <display value="Problem List Item"/>
               </coding>
            </category>
            <code>
               <coding>
                  <system value="http://snomed.info/sct"/>
                  <code value="125605004"/>
                  <display value="Fracture of bone (disorder)"/>
               </coding>
               <text value="Fracture of bone"/>
            </code>
            <subject>
               <reference value="urn:uuid:"/>
               <display value="Meaghan Neary"/>
            </subject>
            <onsetDateTime value="2015-12-27"/>
            <abatementDateTime value="2016-04-19"/>
            <asserter>
               <reference value="urn:uuid:"/>
               <display value="Rotunda Hospital"/>
            </asserter>
         </Condition>
      </resource>
   </entry>
   <entry>
      <fullUrl value="urn:uuid:bcd3a523-85cb-4839-b517-cdd895f83cc4"/>
      <resource>
         <Condition>
            <id value="bcd3a523-85cb-4839-b517-cdd895f83cc4"/>
            <meta>
               <profile value="http://hl7.org/fhir/uv/ips/StructureDefinition/Condition-uv-ips"/>
            </meta>
            <text>
               <status value="generated"/>
               <div xmlns="http://www.w3.org/1999/xhtml">
                  <table class="hl7__ips">
                     <tr>
                        <td>
                           <span class="grayedout">Fracture subluxation of wrist</span>
                        </td>
                        <td>
                           <span class="nb">27-Dec-2015 - 19-Apr-2016</span>
                        </td>
                        <td>
                           <span class="grayedout">inactive</span>
                        </td>
                     </tr>
                  </table>
               </div>
            </text>
            <category>
               <coding>
                  <system value="http://terminology.hl7.org/CodeSystem/condition-category"/>
                  <code value="problem-list-item"/>
                  <display value="Problem List Item"/>
               </coding>
            </category>
            <code>
               <coding>
                  <system value="http://snomed.info/sct"/>
                  <code value="263102004"/>
                  <display value="Fracture subluxation of wrist (disorder)"/>
               </coding>
               <text value="Fracture subluxation of wrist"/>
            </code>
            <subject>
               <reference value="urn:uuid:"/>
               <display value="Meaghan Neary"/>
            </subject>
            <onsetDateTime value="2015-12-27"/>
            <abatementDateTime value="2016-04-19"/>
            <asserter>
               <reference value="urn:uuid:"/>
               <display value="Rotunda Hospital"/>
            </asserter>
         </Condition>
      </resource>
   </entry>
   <entry>
      <fullUrl value="urn:uuid:4033c019-04f0-4a58-8332-bfb055a56f80"/>
      <resource>
         <Condition>
            <id value="4033c019-04f0-4a58-8332-bfb055a56f80"/>
            <meta>
               <profile value="http://hl7.org/fhir/uv/ips/StructureDefinition/Condition-uv-ips"/>
            </meta>
            <text>
               <status value="generated"/>
               <div xmlns="http://www.w3.org/1999/xhtml">
                  <table class="hl7__ips">
                     <tr>
                        <td>
                           <span class="grayedout">Acute bacterial sinusitis</span>
                        </td>
                        <td>
                           <span class="nb">02-Nov-2015 - 28-Nov-2015</span>
                        </td>
                        <td>
                           <span class="grayedout">inactive</span>
                        </td>
                     </tr>
                  </table>
               </div>
            </text>
            <category>
               <coding>
                  <system value="http://terminology.hl7.org/CodeSystem/condition-category"/>
                  <code value="problem-list-item"/>
                  <display value="Problem List Item"/>
               </coding>
            </category>
            <code>
               <coding>
                  <system value="http://snomed.info/sct"/>
                  <code value="75498004"/>
                  <display value="Acute bacterial sinusitis (disorder)"/>
               </coding>
               <text value="Acute bacterial sinusitis"/>
            </code>
            <subject>
               <reference value="urn:uuid:"/>
               <display value="Meaghan Neary"/>
            </subject>
            <onsetDateTime value="2015-11-02"/>
            <abatementDateTime value="2015-11-28"/>
            <asserter>
               <reference value="urn:uuid:"/>
               <display value="Rotunda Hospital"/>
            </asserter>
         </Condition>
      </resource>
   </entry>
   <entry>
      <fullUrl value="urn:uuid:ed3e51bf-a301-4c45-bdfb-12b722331093"/>
      <resource>
         <Medication>
            <id value="ed3e51bf-a301-4c45-bdfb-12b722331093"/>
            <meta>
               <profile value="http://hl7.eu/fhir/eps/StructureDefinition/Medication-eu-eps"/>
            </meta>
            <text>
               <status value="generated"/>
               <div xmlns="http://www.w3.org/1999/xhtml">Simvastatin 10 mg oral tablet</div>
            </text>
            <code>
               <coding>
                  <system value="http://snomed.info/sct"/>
                  <code value="319996000"/>
                  <display value="Simvastatin 10 mg oral tablet"/>
               </coding>
               <text value="Simvastatin 10 mg oral tablet"/>
            </code>
         </Medication>
      </resource>
   </entry>
   <entry>
      <fullUrl value="urn:uuid:59c9288d-d402-4050-a513-8cee759027f6"/>
      <resource>
         <MedicationStatement>
            <id value="59c9288d-d402-4050-a513-8cee759027f6"/>
            <meta>
               <profile value="http://hl7.eu/fhir/eps/StructureDefinition/MedicationStatement-eu-eps"/>
            </meta>
            <text>
               <status value="generated"/>
               <div xmlns="http://www.w3.org/1999/xhtml">
                  <table class="hl7__ips first25">
                     <tr>
                        <th>Medication</th>
                        <th>Since</th>
                        <th>Form</th>
                        <th>Dosage</th>
                        <th>Reason</th>
                     </tr>
                     <tr>
                        <td>Simvastatin 10 mg oral tablet</td>
                        <td>
                           <span class="nb">2025-07-15</span>
                        </td>
                        <td>-</td>
                        <td>1 tablet (10 mg) by mouth once daily</td>
                        <td>Hyperlipidemia</td>
                     </tr>
                  </table>
               </div>
            </text>
            <status value="active"/>
            <medicationReference>
               <reference value="urn:uuid:ed3e51bf-a301-4c45-bdfb-12b722331093"/>
               <display value="Simvastatin 10 mg oral tablet"/>
            </medicationReference>
            <subject>
               <reference value="urn:uuid:62480d3b-bc3e-44b2-b530-29d3c4027acb"/>
               <display value="Meaghan Neary"/>
            </subject>
            <effectivePeriod>
               <start value="2025-07-15"/>
            </effectivePeriod>
            <reasonCode>
               <coding>
                  <system value="http://snomed.info/sct"/>
                  <code value="55822004"/>
                  <display value="Hyperlipidemia"/>
               </coding>
            </reasonCode>
            <dosage>
               <text value="1 tablet (10 mg) by mouth once daily"/>
               <timing>
                  <repeat>
                     <frequency value="1"/>
                     <period value="1"/>
                     <periodUnit value="d"/>
                  </repeat>
               </timing>
               <asNeededBoolean value="false"/>
               <doseAndRate>
                  <doseQuantity>
                     <value value="1"/>
                     <unit value="{tbl}"/>
                     <code value="{tbl}"/>
                  </doseQuantity>
               </doseAndRate>
            </dosage>
         </MedicationStatement>
      </resource>
   </entry>
   <entry>
      <fullUrl value="urn:uuid:725536c6-9a86-45ad-abad-d49c8a7373e0"/>
      <resource>
         <Medication>
            <id value="725536c6-9a86-45ad-abad-d49c8a7373e0"/>
            <meta>
               <profile value="http://hl7.eu/fhir/eps/StructureDefinition/Medication-eu-eps"/>
            </meta>
            <text>
               <status value="generated"/>
               <div xmlns="http://www.w3.org/1999/xhtml">insulin isophane human 70 UNT/ML / insulin regular human 30 UNT/ML Injectable Suspension [Humulin]</div>
            </text>
            <code>
               <coding>
                  <system value="http://www.nlm.nih.gov/research/umls/rxnorm"/>
                  <code value="106892"/>
                  <display value="insulin isophane  human 70 UNT/ML / insulin  regular  human 30 UNT/ML Injectable Suspension [Humulin]"/>
               </coding>
               <text value="insulin isophane  human 70 UNT/ML / insulin  regular  human 30 UNT/ML Injectable Suspension [Humulin]"/>
            </code>
         </Medication>
      </resource>
   </entry>
   <entry>
      <fullUrl value="urn:uuid:48246013-cc4e-4cdc-9a56-4558607678cc"/>
      <resource>
         <MedicationStatement>
            <id value="48246013-cc4e-4cdc-9a56-4558607678cc"/>
            <meta>
               <profile value="http://hl7.eu/fhir/eps/StructureDefinition/MedicationStatement-eu-eps"/>
            </meta>
            <text>
               <status value="generated"/>
               <div xmlns="http://www.w3.org/1999/xhtml">
                  <table class="hl7__ips first25">
                     <tr>
                        <th>Medication</th>
                        <th>Since</th>
                        <th>Form</th>
                        <th>Dosage</th>
                        <th>Reason</th>
                     </tr>
                     <tr>
                        <td>insulin isophane human 70 UNT/ML / insulin regular human 30 UNT/ML Injectable Suspension [Humulin]</td>
                        <td>
                           <span class="nb">2025-06-16</span>
                        </td>
                        <td>-</td>
                        <td>10 units subcutaneously twice daily before breakfast and dinner</td>
                        <td>Prediabetes</td>
                     </tr>
                  </table>
               </div>
            </text>
            <status value="active"/>
            <medicationReference>
               <reference value="urn:uuid:725536c6-9a86-45ad-abad-d49c8a7373e0"/>
               <display value="insulin isophane  human 70 UNT/ML / insulin  regular  human 30 UNT/ML Injectable Suspension [Humulin]"/>
            </medicationReference>
            <subject>
               <reference value="urn:uuid:62480d3b-bc3e-44b2-b530-29d3c4027acb"/>
               <display value="Meaghan Neary"/>
            </subject>
            <effectivePeriod>
               <start value="2025-06-16"/>
            </effectivePeriod>
            <reasonCode>
               <coding>
                  <system value="http://snomed.info/sct"/>
                  <code value="15777000"/>
                  <display value="Prediabetes"/>
               </coding>
            </reasonCode>
            <dosage>
               <text value="10 units subcutaneously twice daily before breakfast and dinner"/>
               <timing>
                  <repeat>
                     <frequency value="2"/>
                     <period value="1"/>
                     <periodUnit value="d"/>
                  </repeat>
               </timing>
               <asNeededBoolean value="false"/>
               <doseAndRate>
                  <doseQuantity>
                     <value value="10"/>
                     <unit value="U"/>
                     <system value="$ucum"/>
                     <code value="U"/>
                  </doseQuantity>
               </doseAndRate>
            </dosage>
         </MedicationStatement>
      </resource>
   </entry>
   <entry>
      <fullUrl value="urn:uuid:19aa8297-6189-4e53-8a26-76d12d60432b"/>
      <resource>
         <Medication>
            <id value="19aa8297-6189-4e53-8a26-76d12d60432b"/>
            <meta>
               <profile value="http://hl7.eu/fhir/eps/StructureDefinition/Medication-eu-eps"/>
            </meta>
            <text>
               <status value="generated"/>
               <div xmlns="http://www.w3.org/1999/xhtml">Amlodipine (as amlodipine besylate) 2.5 mg oral tablet</div>
            </text>
            <code>
               <coding>
                  <system value="http://snomed.info/sct"/>
                  <code value="1153431000"/>
                  <display value="Amlodipine (as amlodipine besylate) 2.5 mg oral tablet"/>
               </coding>
               <text value="Amlodipine (as amlodipine besylate) 2.5 mg oral tablet"/>
            </code>
         </Medication>
      </resource>
   </entry>
   <entry>
      <fullUrl value="urn:uuid:38f277be-4de0-4612-99ce-420fefbb7691"/>
      <resource>
         <MedicationStatement>
            <id value="38f277be-4de0-4612-99ce-420fefbb7691"/>
            <meta>
               <profile value="http://hl7.eu/fhir/eps/StructureDefinition/MedicationStatement-eu-eps"/>
            </meta>
            <text>
               <status value="generated"/>
               <div xmlns="http://www.w3.org/1999/xhtml">
                  <table class="hl7__ips first25">
                     <tr>
                        <th>Medication</th>
                        <th>Since</th>
                        <th>Form</th>
                        <th>Dosage</th>
                        <th>Reason</th>
                     </tr>
                     <tr>
                        <td>Amlodipine (as amlodipine besylate) 2.5 mg oral tablet</td>
                        <td>
                           <span class="nb">2025-06-16</span>
                        </td>
                        <td>-</td>
                        <td>1 tablet (2.5 mg) by mouth once daily</td>
                        <td>Essential hypertension (disorder)</td>
                     </tr>
                  </table>
               </div>
            </text>
            <status value="active"/>
            <medicationReference>
               <reference value="urn:uuid:19aa8297-6189-4e53-8a26-76d12d60432b"/>
               <display value="Amlodipine (as amlodipine besylate) 2.5 mg oral tablet"/>
            </medicationReference>
            <subject>
               <reference value="urn:uuid:62480d3b-bc3e-44b2-b530-29d3c4027acb"/>
               <display value="Meaghan Neary"/>
            </subject>
            <effectivePeriod>
               <start value="2025-06-16"/>
            </effectivePeriod>
            <reasonCode>
               <coding>
                  <system value="http://snomed.info/sct"/>
                  <code value="59621000"/>
                  <display value="Essential hypertension (disorder)"/>
               </coding>
            </reasonCode>
            <dosage>
               <text value="1 tablet (2.5 mg) by mouth once daily"/>
               <timing>
                  <repeat>
                     <frequency value="1"/>
                     <period value="1"/>
                     <periodUnit value="d"/>
                  </repeat>
               </timing>
               <asNeededBoolean value="false"/>
               <doseAndRate>
                  <doseQuantity>
                     <value value="1"/>
                     <unit value="{tbl}"/>
                     <code value="{tbl}"/>
                  </doseQuantity>
               </doseAndRate>
            </dosage>
         </MedicationStatement>
      </resource>
   </entry>
   <entry>
      <fullUrl value="urn:uuid:e6f6fb0d-e43a-4d8c-a980-245eb12874f2"/>
      <resource>
         <Medication>
            <id value="e6f6fb0d-e43a-4d8c-a980-245eb12874f2"/>
            <meta>
               <profile value="http://hl7.eu/fhir/eps/StructureDefinition/Medication-eu-eps"/>
            </meta>
            <text>
               <status value="generated"/>
               <div xmlns="http://www.w3.org/1999/xhtml">Vitamin B12 5 MG/ML Injectable Solution</div>
            </text>
            <code>
               <coding>
                  <system value="http://www.nlm.nih.gov/research/umls/rxnorm"/>
                  <code value="2001499"/>
                  <display value="Vitamin B12 5 MG/ML Injectable Solution"/>
               </coding>
               <text value="Vitamin B12 5 MG/ML Injectable Solution"/>
            </code>
         </Medication>
      </resource>
   </entry>
   <entry>
      <fullUrl value="urn:uuid:551dc2c7-5bbc-4313-87d7-915beeea5c94"/>
      <resource>
         <MedicationStatement>
            <id value="551dc2c7-5bbc-4313-87d7-915beeea5c94"/>
            <meta>
               <profile value="http://hl7.eu/fhir/eps/StructureDefinition/MedicationStatement-eu-eps"/>
            </meta>
            <text>
               <status value="generated"/>
               <div xmlns="http://www.w3.org/1999/xhtml">
                  <table class="hl7__ips first25">
                     <tr>
                        <th>Medication</th>
                        <th>Since</th>
                        <th>Form</th>
                        <th>Dosage</th>
                        <th>Reason</th>
                     </tr>
                     <tr>
                        <td>Vitamin B12 5 MG/ML Injectable Solution</td>
                        <td>
                           <span class="nb">1997-06-02</span>
                        </td>
                        <td>-</td>
                        <td>5 mg (1 mL) intramuscularly once weekly</td>
                        <td>-</td>
                     </tr>
                  </table>
               </div>
            </text>
            <status value="active"/>
            <medicationReference>
               <reference value="urn:uuid:e6f6fb0d-e43a-4d8c-a980-245eb12874f2"/>
               <display value="Vitamin B12 5 MG/ML Injectable Solution"/>
            </medicationReference>
            <subject>
               <reference value="urn:uuid:62480d3b-bc3e-44b2-b530-29d3c4027acb"/>
               <display value="Meaghan Neary"/>
            </subject>
            <effectivePeriod>
               <start value="1997-06-02"/>
            </effectivePeriod>
            <dosage>
               <text value="5 mg (1 mL) intramuscularly once weekly"/>
               <timing>
                  <repeat>
                     <frequency value="1"/>
                     <period value="1"/>
                     <periodUnit value="wk"/>
                  </repeat>
               </timing>
               <asNeededBoolean value="false"/>
               <doseAndRate>
                  <doseQuantity>
                     <value value="1"/>
                     <unit value="mL"/>
                     <code value="mL"/>
                  </doseQuantity>
               </doseAndRate>
            </dosage>
         </MedicationStatement>
      </resource>
   </entry>
   <entry>
      <fullUrl value="urn:uuid:85fc889e-2f86-43e4-8667-de8fa3935525"/>
      <resource>
         <Immunization>
            <id value="85fc889e-2f86-43e4-8667-de8fa3935525"/>
            <meta>
               <profile value="http://hl7.org/fhir/uv/ips/StructureDefinition/Immunization-uv-ips"/>
            </meta>
            <text>
               <status value="generated"/>
               <div xmlns="http://www.w3.org/1999/xhtml">
                  <table class="hl7__ips">
                     <tr>
                        <td>Influenza virus antigen only vaccine product</td>
                        <td>
                           <span class="nb">28-Apr-2025</span>
                        </td>
                     </tr>
                  </table>
               </div>
            </text>
            <status value="completed"/>
            <vaccineCode>
               <coding>
                  <system value="http://snomed.info/sct"/>
                  <code value="1181000221105"/>
                  <display value="Vaccine product containing Influenza virus antigen"/>
               </coding>
               <coding>
                  <system value="http://www.whocc.no/atc"/>
                  <code value="J07BB02"/>
                  <display value="Influenza, inactivated, split virus"/>
               </coding>
               <text value="Influenza virus antigen only vaccine product"/>
            </vaccineCode>
            <patient>
               <reference value="urn:uuid:62480d3b-bc3e-44b2-b530-29d3c4027acb"/>
               <display value="Meaghan Neary"/>
            </patient>
            <occurrenceDateTime value="2025-04-28"/>
            <lotNumber value="NJ-paacqb3vF"/>
            <expirationDate value="2025-10-20"/>
            <site>
               <coding>
                  <system value="http://snomed.info/sct"/>
                  <code value="244979005"/>
                  <display value="Entire muscle of upper arm"/>
               </coding>
               <text value="Entire muscle of upper arm"/>
            </site>
            <route>
               <coding>
                  <system value="http://snomed.info/sct"/>
                  <code value="78421000"/>
                  <display value="Intramuscular route"/>
               </coding>
               <text value="Intramuscular route"/>
            </route>
         </Immunization>
      </resource>
   </entry>
   <entry>
      <fullUrl value="urn:uuid:85cb1070-a425-44f1-9955-6cddae3139c6"/>
      <resource>
         <Immunization>
            <id value="85cb1070-a425-44f1-9955-6cddae3139c6"/>
            <meta>
               <profile value="http://hl7.org/fhir/uv/ips/StructureDefinition/Immunization-uv-ips"/>
            </meta>
            <text>
               <status value="generated"/>
               <div xmlns="http://www.w3.org/1999/xhtml">
                  <table class="hl7__ips">
                     <tr>
                        <td>Streptococcus pneumoniae Danish serotype 1</td>
                        <td>
                           <span class="nb">21-Oct-2024</span>
                        </td>
                     </tr>
                  </table>
               </div>
            </text>
            <status value="completed"/>
            <vaccineCode>
               <coding>
                  <system value="http://snomed.info/sct"/>
                  <code value="1252709000"/>
                  <display value="Vaccine product containing Streptococcus pneumoniae capsular polysaccharide antigens conjugated"/>
               </coding>
               <coding>
                  <system value="http://www.whocc.no/atc"/>
                  <code value="J07AL01"/>
                  <display value="Pneumococcal polysaccharide vaccines"/>
               </coding>
               <text value="Streptococcus pneumoniae Danish serotype 1"/>
            </vaccineCode>
            <patient>
               <reference value="urn:uuid:62480d3b-bc3e-44b2-b530-29d3c4027acb"/>
               <display value="Meaghan Neary"/>
            </patient>
            <occurrenceDateTime value="2024-10-21"/>
            <lotNumber value="MN-S10M"/>
            <expirationDate value="2025-01-04"/>
            <site>
               <coding>
                  <system value="http://snomed.info/sct"/>
                  <code value="244979005"/>
                  <display value="Entire muscle of upper arm"/>
               </coding>
               <text value="Entire muscle of upper arm"/>
            </site>
            <route>
               <coding>
                  <system value="http://snomed.info/sct"/>
                  <code value="78421000"/>
                  <display value="Intramuscular route"/>
               </coding>
               <text value="Intramuscular route"/>
            </route>
         </Immunization>
      </resource>
   </entry>
   <entry>
      <fullUrl value="urn:uuid:ba7cc130-70eb-4498-9ed3-51556bc586c0"/>
      <resource>
         <Immunization>
            <id value="ba7cc130-70eb-4498-9ed3-51556bc586c0"/>
            <meta>
               <profile value="http://hl7.org/fhir/uv/ips/StructureDefinition/Immunization-uv-ips"/>
            </meta>
            <text>
               <status value="generated"/>
               <div xmlns="http://www.w3.org/1999/xhtml">
                  <table class="hl7__ips">
                     <tr>
                        <td>Streptococcus pneumoniae Danish serotype 1</td>
                        <td>
                           <span class="nb">11-Dec-2023</span>
                        </td>
                     </tr>
                  </table>
               </div>
            </text>
            <status value="completed"/>
            <vaccineCode>
               <coding>
                  <system value="http://snomed.info/sct"/>
                  <code value="51451000087105"/>
                  <display value="Vaccine product containing Streptococcus pneumoniae capsular polysaccharide antigens conjugated"/>
               </coding>
               <coding>
                  <system value="http://www.whocc.no/atc"/>
                  <code value="J07AL02"/>
                  <display value="Pneumococcal conjugate vaccines"/>
               </coding>
               <text value="Streptococcus pneumoniae Danish serotype 1"/>
            </vaccineCode>
            <patient>
               <reference value="urn:uuid:62480d3b-bc3e-44b2-b530-29d3c4027acb"/>
               <display value="Meaghan Neary"/>
            </patient>
            <occurrenceDateTime value="2023-12-11"/>
            <lotNumber value="DL-T1WD"/>
            <expirationDate value="2024-06-08"/>
            <site>
               <coding>
                  <system value="http://snomed.info/sct"/>
                  <code value="244979005"/>
                  <display value="Entire muscle of upper arm"/>
               </coding>
               <text value="Entire muscle of upper arm"/>
            </site>
            <route>
               <coding>
                  <system value="http://snomed.info/sct"/>
                  <code value="78421000"/>
                  <display value="Intramuscular route"/>
               </coding>
               <text value="Intramuscular route"/>
            </route>
         </Immunization>
      </resource>
   </entry>
   <entry>
      <fullUrl value="urn:uuid:00a86d54-4c10-46b4-a5f2-481dcca9f927"/>
      <resource>
         <Immunization>
            <id value="00a86d54-4c10-46b4-a5f2-481dcca9f927"/>
            <meta>
               <profile value="http://hl7.org/fhir/uv/ips/StructureDefinition/Immunization-uv-ips"/>
            </meta>
            <text>
               <status value="generated"/>
               <div xmlns="http://www.w3.org/1999/xhtml">
                  <table class="hl7__ips">
                     <tr>
                        <td>SARS-CoV-2 mRNA vaccine</td>
                        <td>
                           <span class="nb">20-Dec-2021</span>
                        </td>
                     </tr>
                  </table>
               </div>
            </text>
            <status value="completed"/>
            <vaccineCode>
               <coding>
                  <system value="http://snomed.info/sct"/>
                  <code value="1119349007"/>
                  <display value="Vaccine product containing SARS-CoV-2 mRNA"/>
               </coding>
               <coding>
                  <system value="http://www.whocc.no/atc"/>
                  <code value="J07BX03"/>
                  <display value="COVID-19 mRNA vaccines"/>
               </coding>
               <text value="SARS-CoV-2 mRNA vaccine"/>
            </vaccineCode>
            <patient>
               <reference value="urn:uuid:62480d3b-bc3e-44b2-b530-29d3c4027acb"/>
               <display value="Meaghan Neary"/>
            </patient>
            <occurrenceDateTime value="2021-12-20"/>
            <lotNumber value="ND-cKuyAFI9"/>
            <expirationDate value="2022-02-19"/>
            <site>
               <coding>
                  <system value="http://snomed.info/sct"/>
                  <code value="244979005"/>
                  <display value="Entire muscle of upper arm"/>
               </coding>
               <text value="Entire muscle of upper arm"/>
            </site>
            <route>
               <coding>
                  <system value="http://snomed.info/sct"/>
                  <code value="78421000"/>
                  <display value="Intramuscular route"/>
               </coding>
               <text value="Intramuscular route"/>
            </route>
         </Immunization>
      </resource>
   </entry>
   <entry>
      <fullUrl value="urn:uuid:7114f937-f18a-4fb1-a3c8-332ad113256e"/>
      <resource>
         <Immunization>
            <id value="7114f937-f18a-4fb1-a3c8-332ad113256e"/>
            <meta>
               <profile value="http://hl7.org/fhir/uv/ips/StructureDefinition/Immunization-uv-ips"/>
            </meta>
            <text>
               <status value="generated"/>
               <div xmlns="http://www.w3.org/1999/xhtml">
                  <table class="hl7__ips">
                     <tr>
                        <td>Clostridium tetani toxoid antigen adsorbed only vaccine product</td>
                        <td>
                           <span class="nb">30-Sep-2019</span>
                        </td>
                     </tr>
                  </table>
               </div>
            </text>
            <status value="completed"/>
            <vaccineCode>
               <coding>
                  <system value="http://snomed.info/sct"/>
                  <code value="777725002"/>
                  <display value="Vaccine product containing only Clostridium tetani toxoid antigen adsorbed"/>
               </coding>
               <coding>
                  <system value="http://www.whocc.no/atc"/>
                  <code value="J07AM51"/>
                  <display value="Diphtheria-tetanus vaccines, adult type"/>
               </coding>
               <text value="Clostridium tetani toxoid antigen adsorbed only vaccine product"/>
            </vaccineCode>
            <patient>
               <reference value="urn:uuid:62480d3b-bc3e-44b2-b530-29d3c4027acb"/>
               <display value="Meaghan Neary"/>
            </patient>
            <occurrenceDateTime value="2019-09-30"/>
            <lotNumber value="YC-YEsMg"/>
            <expirationDate value="2020-09-29"/>
            <site>
               <coding>
                  <system value="http://snomed.info/sct"/>
                  <code value="244979005"/>
                  <display value="Entire muscle of upper arm"/>
               </coding>
               <text value="Entire muscle of upper arm"/>
            </site>
            <route>
               <coding>
                  <system value="http://snomed.info/sct"/>
                  <code value="78421000"/>
                  <display value="Intramuscular route"/>
               </coding>
               <text value="Intramuscular route"/>
            </route>
         </Immunization>
      </resource>
   </entry>
   <entry>
      <fullUrl value="urn:uuid:00eb3c21-41ce-4ee7-8945-a6cc2c316064"/>
      <resource>
         <Procedure>
            <id value="00eb3c21-41ce-4ee7-8945-a6cc2c316064"/>
            <meta>
               <profile value="http://hl7.org/fhir/uv/ips/StructureDefinition/Procedure-uv-ips"/>
            </meta>
            <text>
               <status value="generated"/>
               <div xmlns="http://www.w3.org/1999/xhtml">
                  <table class="hl7__ips">
                     <tr>
                        <td>Depression screening</td>
                        <td>
                           <span class="nb">20-May-2025</span>
                        </td>
                        <td>-</td>
                     </tr>
                  </table>
               </div>
            </text>
            <status value="completed"/>
            <code>
               <coding>
                  <system value="http://snomed.info/sct"/>
                  <code value="171207006"/>
                  <display value="Depression screening (procedure)"/>
               </coding>
               <text value="Depression screening"/>
            </code>
            <subject>
               <reference value="urn:uuid:"/>
               <display value="Meaghan Neary"/>
            </subject>
            <performedDateTime value="2025-05-20"/>
         </Procedure>
      </resource>
   </entry>
   <entry>
      <fullUrl value="urn:uuid:52ba6ce5-aebf-4800-997d-585016ea4a33"/>
      <resource>
         <Procedure>
            <id value="52ba6ce5-aebf-4800-997d-585016ea4a33"/>
            <meta>
               <profile value="http://hl7.org/fhir/uv/ips/StructureDefinition/Procedure-uv-ips"/>
            </meta>
            <text>
               <status value="generated"/>
               <div xmlns="http://www.w3.org/1999/xhtml">
                  <table class="hl7__ips">
                     <tr>
                        <td>Screening for domestic abuse</td>
                        <td>
                           <span class="nb">20-May-2025</span>
                        </td>
                        <td>-</td>
                     </tr>
                  </table>
               </div>
            </text>
            <status value="completed"/>
            <code>
               <coding>
                  <system value="http://snomed.info/sct"/>
                  <code value="866148006"/>
                  <display value="Screening for domestic abuse (procedure)"/>
               </coding>
               <text value="Screening for domestic abuse"/>
            </code>
            <subject>
               <reference value="urn:uuid:"/>
               <display value="Meaghan Neary"/>
            </subject>
            <performedDateTime value="2025-05-20"/>
         </Procedure>
      </resource>
   </entry>
   <entry>
      <fullUrl value="urn:uuid:fb13f8fc-34af-4334-9bc0-d5a285f3ca02"/>
      <resource>
         <Procedure>
            <id value="fb13f8fc-34af-4334-9bc0-d5a285f3ca02"/>
            <meta>
               <profile value="http://hl7.org/fhir/uv/ips/StructureDefinition/Procedure-uv-ips"/>
            </meta>
            <text>
               <status value="generated"/>
               <div xmlns="http://www.w3.org/1999/xhtml">
                  <table class="hl7__ips">
                     <tr>
                        <td>Depression screening using Patient Health Questionnaire Two-Item score (procedure)</td>
                        <td>
                           <span class="nb">20-May-2025</span>
                        </td>
                        <td>-</td>
                     </tr>
                  </table>
               </div>
            </text>
            <status value="completed"/>
            <code>
               <coding>
                  <system value="http://snomed.info/sct"/>
                  <code value="454711000124102"/>
                  <display value="Depression screening using Patient Health Questionnaire Two-Item score (procedure)"/>
               </coding>
            </code>
            <subject>
               <reference value="urn:uuid:"/>
               <display value="Meaghan Neary"/>
            </subject>
            <performedDateTime value="2025-05-20"/>
         </Procedure>
      </resource>
   </entry>
   <entry>
      <fullUrl value="urn:uuid:1eb3bc60-7a3a-4379-8556-70215531e0a6"/>
      <resource>
         <Procedure>
            <id value="1eb3bc60-7a3a-4379-8556-70215531e0a6"/>
            <meta>
               <profile value="http://hl7.org/fhir/uv/ips/StructureDefinition/Procedure-uv-ips"/>
            </meta>
            <text>
               <status value="generated"/>
               <div xmlns="http://www.w3.org/1999/xhtml">
                  <table class="hl7__ips">
                     <tr>
                        <td>Assessment of health and social care needs</td>
                        <td>
                           <span class="nb">19-May-2025</span>
                        </td>
                        <td>-</td>
                     </tr>
                  </table>
               </div>
            </text>
            <status value="completed"/>
            <code>
               <coding>
                  <system value="http://snomed.info/sct"/>
                  <code value="710824005"/>
                  <display value="Assessment of health and social care needs (procedure)"/>
               </coding>
               <text value="Assessment of health and social care needs"/>
            </code>
            <subject>
               <reference value="urn:uuid:"/>
               <display value="Meaghan Neary"/>
            </subject>
            <performedDateTime value="2025-05-19"/>
         </Procedure>
      </resource>
   </entry>
   <entry>
      <fullUrl value="urn:uuid:922a4677-33b7-4c28-b893-3034a97966cc"/>
      <resource>
         <Procedure>
            <id value="922a4677-33b7-4c28-b893-3034a97966cc"/>
            <meta>
               <profile value="http://hl7.org/fhir/uv/ips/StructureDefinition/Procedure-uv-ips"/>
            </meta>
            <text>
               <status value="generated"/>
               <div xmlns="http://www.w3.org/1999/xhtml">
                  <table class="hl7__ips">
                     <tr>
                        <td>Assessment of anxiety</td>
                        <td>
                           <span class="nb">19-May-2025</span>
                        </td>
                        <td>-</td>
                     </tr>
                  </table>
               </div>
            </text>
            <status value="completed"/>
            <code>
               <coding>
                  <system value="http://snomed.info/sct"/>
                  <code value="710841007"/>
                  <display value="Assessment of anxiety (procedure)"/>
               </coding>
               <text value="Assessment of anxiety"/>
            </code>
            <subject>
               <reference value="urn:uuid:"/>
               <display value="Meaghan Neary"/>
            </subject>
            <performedDateTime value="2025-05-19"/>
         </Procedure>
      </resource>
   </entry>
   <entry>
      <fullUrl value="urn:uuid:19841749-c7e7-4ab5-b0d4-b33bac54eb61"/>
      <resource>
         <Procedure>
            <id value="19841749-c7e7-4ab5-b0d4-b33bac54eb61"/>
            <meta>
               <profile value="http://hl7.org/fhir/uv/ips/StructureDefinition/Procedure-uv-ips"/>
            </meta>
            <text>
               <status value="generated"/>
               <div xmlns="http://www.w3.org/1999/xhtml">
                  <table class="hl7__ips">
                     <tr>
                        <td>Assessment using Morse Fall Scale</td>
                        <td>
                           <span class="nb">19-May-2025</span>
                        </td>
                        <td>-</td>
                     </tr>
                  </table>
               </div>
            </text>
            <status value="completed"/>
            <code>
               <coding>
                  <system value="http://snomed.info/sct"/>
                  <code value="762993000"/>
                  <display value="Assessment using Morse Fall Scale (procedure)"/>
               </coding>
               <text value="Assessment using Morse Fall Scale"/>
            </code>
            <subject>
               <reference value="urn:uuid:"/>
               <display value="Meaghan Neary"/>
            </subject>
            <performedDateTime value="2025-05-19"/>
         </Procedure>
      </resource>
   </entry>
   <entry>
      <fullUrl value="urn:uuid:c1f913f3-ea4e-4ac4-9ee7-80db359862ee"/>
      <resource>
         <Procedure>
            <id value="c1f913f3-ea4e-4ac4-9ee7-80db359862ee"/>
            <meta>
               <profile value="http://hl7.org/fhir/uv/ips/StructureDefinition/Procedure-uv-ips"/>
            </meta>
            <text>
               <status value="generated"/>
               <div xmlns="http://www.w3.org/1999/xhtml">
                  <table class="hl7__ips">
                     <tr>
                        <td>Assessment using AUDIT-C (Alcohol Use Disorders Identification Test - Consumption)</td>
                        <td>
                           <span class="nb">18-Mar-2025</span>
                        </td>
                        <td>-</td>
                     </tr>
                  </table>
               </div>
            </text>
            <status value="completed"/>
            <code>
               <coding>
                  <system value="http://snomed.info/sct"/>
                  <code value="763302001"/>
                  <display value="Assessment using Alcohol Use Disorders Identification Test - Consumption (procedure)"/>
               </coding>
               <text value="Assessment using AUDIT-C (Alcohol Use Disorders Identification Test - Consumption)"/>
            </code>
            <subject>
               <reference value="urn:uuid:"/>
               <display value="Meaghan Neary"/>
            </subject>
            <performedDateTime value="2025-03-18"/>
         </Procedure>
      </resource>
   </entry>
   <entry>
      <fullUrl value="urn:uuid:242893db-4922-4b21-996e-5b5b66d0257a"/>
      <resource>
         <Procedure>
            <id value="242893db-4922-4b21-996e-5b5b66d0257a"/>
            <meta>
               <profile value="http://hl7.org/fhir/uv/ips/StructureDefinition/Procedure-uv-ips"/>
            </meta>
            <text>
               <status value="generated"/>
               <div xmlns="http://www.w3.org/1999/xhtml">
                  <table class="hl7__ips">
                     <tr>
                        <td>Assessment of substance use</td>
                        <td>
                           <span class="nb">18-Mar-2025</span>
                        </td>
                        <td>-</td>
                     </tr>
                  </table>
               </div>
            </text>
            <status value="completed"/>
            <code>
               <coding>
                  <system value="http://snomed.info/sct"/>
                  <code value="428211000124100"/>
                  <display value="Assessment of substance use (procedure)"/>
               </coding>
               <text value="Assessment of substance use"/>
            </code>
            <subject>
               <reference value="urn:uuid:"/>
               <display value="Meaghan Neary"/>
            </subject>
            <performedDateTime value="2025-03-18"/>
         </Procedure>
      </resource>
   </entry>
   <entry>
      <fullUrl value="urn:uuid:d31bb2d5-a970-40cd-b6cf-b8c629d7fdeb"/>
      <resource>
         <Procedure>
            <id value="d31bb2d5-a970-40cd-b6cf-b8c629d7fdeb"/>
            <meta>
               <profile value="http://hl7.org/fhir/uv/ips/StructureDefinition/Procedure-uv-ips"/>
            </meta>
            <text>
               <status value="generated"/>
               <div xmlns="http://www.w3.org/1999/xhtml">
                  <table class="hl7__ips">
                     <tr>
                        <td>Medication reconciliation</td>
                        <td>
                           <span class="nb">17-Mar-2025</span>
                        </td>
                        <td>-</td>
                     </tr>
                  </table>
               </div>
            </text>
            <status value="completed"/>
            <code>
               <coding>
                  <system value="http://snomed.info/sct"/>
                  <code value="430193006"/>
                  <display value="Medication Reconciliation (procedure)"/>
               </coding>
               <text value="Medication reconciliation"/>
            </code>
            <subject>
               <reference value="urn:uuid:"/>
               <display value="Meaghan Neary"/>
            </subject>
            <performedDateTime value="2025-03-17"/>
         </Procedure>
      </resource>
   </entry>
   <entry>
      <fullUrl value="urn:uuid:cb80ce16-c403-426c-9c17-19305d356d54"/>
      <resource>
         <Procedure>
            <id value="cb80ce16-c403-426c-9c17-19305d356d54"/>
            <meta>
               <profile value="http://hl7.org/fhir/uv/ips/StructureDefinition/Procedure-uv-ips"/>
            </meta>
            <text>
               <status value="generated"/>
               <div xmlns="http://www.w3.org/1999/xhtml">
                  <table class="hl7__ips">
                     <tr>
                        <td>Screening for drug abuse</td>
                        <td>
                           <span class="nb">21-May-2024</span>
                        </td>
                        <td>-</td>
                     </tr>
                  </table>
               </div>
            </text>
            <status value="completed"/>
            <code>
               <coding>
                  <system value="http://snomed.info/sct"/>
                  <code value="713106006"/>
                  <display value="Screening for drug abuse (procedure)"/>
               </coding>
               <text value="Screening for drug abuse"/>
            </code>
            <subject>
               <reference value="urn:uuid:"/>
               <display value="Meaghan Neary"/>
            </subject>
            <performedDateTime value="2024-05-21"/>
         </Procedure>
      </resource>
   </entry>
   <entry>
      <fullUrl value="urn:uuid:0842d51b-2b96-400e-9419-aa7ec848919f"/>
      <resource>
         <Procedure>
            <id value="0842d51b-2b96-400e-9419-aa7ec848919f"/>
            <meta>
               <profile value="http://hl7.org/fhir/uv/ips/StructureDefinition/Procedure-uv-ips"/>
            </meta>
            <text>
               <status value="generated"/>
               <div xmlns="http://www.w3.org/1999/xhtml">
                  <table class="hl7__ips">
                     <tr>
                        <td>Pre-discharge assessment</td>
                        <td>
                           <span class="nb">01-Dec-2023</span>
                        </td>
                        <td>-</td>
                     </tr>
                  </table>
               </div>
            </text>
            <status value="completed"/>
            <code>
               <coding>
                  <system value="http://snomed.info/sct"/>
                  <code value="225386006"/>
                  <display value="Pre-discharge assessment (procedure)"/>
               </coding>
               <text value="Pre-discharge assessment"/>
            </code>
            <subject>
               <reference value="urn:uuid:"/>
               <display value="Meaghan Neary"/>
            </subject>
            <performedDateTime value="2023-12-01"/>
         </Procedure>
      </resource>
   </entry>
   <entry>
      <fullUrl value="urn:uuid:df359677-26a5-4a09-88b8-8e8165d5582f"/>
      <resource>
         <Procedure>
            <id value="df359677-26a5-4a09-88b8-8e8165d5582f"/>
            <meta>
               <profile value="http://hl7.org/fhir/uv/ips/StructureDefinition/Procedure-uv-ips"/>
            </meta>
            <text>
               <status value="generated"/>
               <div xmlns="http://www.w3.org/1999/xhtml">
                  <table class="hl7__ips">
                     <tr>
                        <td>Discharge from skilled nursing facility (procedure)</td>
                        <td>
                           <span class="nb">01-Dec-2023</span>
                        </td>
                        <td>-</td>
                     </tr>
                  </table>
               </div>
            </text>
            <status value="completed"/>
            <code>
               <coding>
                  <system value="http://snomed.info/sct"/>
                  <code value="449381000124108"/>
                  <display value="Discharge from skilled nursing facility (procedure)"/>
               </coding>
            </code>
            <subject>
               <reference value="urn:uuid:"/>
               <display value="Meaghan Neary"/>
            </subject>
            <performedDateTime value="2023-12-01"/>
         </Procedure>
      </resource>
   </entry>
   <entry>
      <fullUrl value="urn:uuid:95bb45b6-31e8-4bbe-b142-3a966dd52a4e"/>
      <resource>
         <Procedure>
            <id value="95bb45b6-31e8-4bbe-b142-3a966dd52a4e"/>
            <meta>
               <profile value="http://hl7.org/fhir/uv/ips/StructureDefinition/Procedure-uv-ips"/>
            </meta>
            <text>
               <status value="generated"/>
               <div xmlns="http://www.w3.org/1999/xhtml">
                  <table class="hl7__ips">
                     <tr>
                        <td>Nursing care/supplementary surveillance</td>
                        <td>
                           <span class="nb">30-Nov-2023</span>
                        </td>
                        <td>-</td>
                     </tr>
                  </table>
               </div>
            </text>
            <status value="completed"/>
            <code>
               <coding>
                  <system value="http://snomed.info/sct"/>
                  <code value="410401003"/>
                  <display value="Nursing care/supplementary surveillance (regime/therapy)"/>
               </coding>
               <text value="Nursing care/supplementary surveillance"/>
            </code>
            <subject>
               <reference value="urn:uuid:"/>
               <display value="Meaghan Neary"/>
            </subject>
            <performedDateTime value="2023-11-30"/>
         </Procedure>
      </resource>
   </entry>
   <entry>
      <fullUrl value="urn:uuid:ab5cf4ca-96fd-4154-ad82-e4505cd8fbcd"/>
      <resource>
         <Procedure>
            <id value="ab5cf4ca-96fd-4154-ad82-e4505cd8fbcd"/>
            <meta>
               <profile value="http://hl7.org/fhir/uv/ips/StructureDefinition/Procedure-uv-ips"/>
            </meta>
            <text>
               <status value="generated"/>
               <div xmlns="http://www.w3.org/1999/xhtml">
                  <table class="hl7__ips">
                     <tr>
                        <td>Occupational therapy</td>
                        <td>
                           <span class="nb">29-Nov-2023</span>
                        </td>
                        <td>-</td>
                     </tr>
                  </table>
               </div>
            </text>
            <status value="completed"/>
            <code>
               <coding>
                  <system value="http://snomed.info/sct"/>
                  <code value="84478008"/>
                  <display value="Occupational therapy (regime/therapy)"/>
               </coding>
               <text value="Occupational therapy"/>
            </code>
            <subject>
               <reference value="urn:uuid:"/>
               <display value="Meaghan Neary"/>
            </subject>
            <performedDateTime value="2023-11-29"/>
         </Procedure>
      </resource>
   </entry>
   <entry>
      <fullUrl value="urn:uuid:5e5da5f7-fd0f-4a29-9210-b4fd2ea070f8"/>
      <resource>
         <Procedure>
            <id value="5e5da5f7-fd0f-4a29-9210-b4fd2ea070f8"/>
            <meta>
               <profile value="http://hl7.org/fhir/uv/ips/StructureDefinition/Procedure-uv-ips"/>
            </meta>
            <text>
               <status value="generated"/>
               <div xmlns="http://www.w3.org/1999/xhtml">
                  <table class="hl7__ips">
                     <tr>
                        <td>Professional / ancillary services care</td>
                        <td>
                           <span class="nb">22-Nov-2023</span>
                        </td>
                        <td>-</td>
                     </tr>
                  </table>
               </div>
            </text>
            <status value="completed"/>
            <code>
               <coding>
                  <system value="http://snomed.info/sct"/>
                  <code value="409023009"/>
                  <display value="Professional / ancillary services care (regime/therapy)"/>
               </coding>
               <text value="Professional / ancillary services care"/>
            </code>
            <subject>
               <reference value="urn:uuid:"/>
               <display value="Meaghan Neary"/>
            </subject>
            <performedDateTime value="2023-11-22"/>
         </Procedure>
      </resource>
   </entry>
   <entry>
      <fullUrl value="urn:uuid:d3b543a8-9478-4a37-9e7d-a5733122b387"/>
      <resource>
         <Procedure>
            <id value="d3b543a8-9478-4a37-9e7d-a5733122b387"/>
            <meta>
               <profile value="http://hl7.org/fhir/uv/ips/StructureDefinition/Procedure-uv-ips"/>
            </meta>
            <text>
               <status value="generated"/>
               <div xmlns="http://www.w3.org/1999/xhtml">
                  <table class="hl7__ips">
                     <tr>
                        <td>Physical therapy procedure</td>
                        <td>
                           <span class="nb">18-Nov-2023</span>
                        </td>
                        <td>-</td>
                     </tr>
                  </table>
               </div>
            </text>
            <status value="completed"/>
            <code>
               <coding>
                  <system value="http://snomed.info/sct"/>
                  <code value="91251008"/>
                  <display value="Physical therapy procedure (regime/therapy)"/>
               </coding>
               <text value="Physical therapy procedure"/>
            </code>
            <subject>
               <reference value="urn:uuid:"/>
               <display value="Meaghan Neary"/>
            </subject>
            <performedDateTime value="2023-11-18"/>
         </Procedure>
      </resource>
   </entry>
   <entry>
      <fullUrl value="urn:uuid:cf7099ea-ee87-4dcc-a853-979969eedd0c"/>
      <resource>
         <Procedure>
            <id value="cf7099ea-ee87-4dcc-a853-979969eedd0c"/>
            <meta>
               <profile value="http://hl7.org/fhir/uv/ips/StructureDefinition/Procedure-uv-ips"/>
            </meta>
            <text>
               <status value="generated"/>
               <div xmlns="http://www.w3.org/1999/xhtml">
                  <table class="hl7__ips">
                     <tr>
                        <td>Speech and language therapy regime</td>
                        <td>
                           <span class="nb">31-Oct-2023</span>
                        </td>
                        <td>-</td>
                     </tr>
                  </table>
               </div>
            </text>
            <status value="completed"/>
            <code>
               <coding>
                  <system value="http://snomed.info/sct"/>
                  <code value="311555007"/>
                  <display value="Speech and language therapy regime (regime/therapy)"/>
               </coding>
               <text value="Speech and language therapy regime"/>
            </code>
            <subject>
               <reference value="urn:uuid:"/>
               <display value="Meaghan Neary"/>
            </subject>
            <performedDateTime value="2023-10-31"/>
         </Procedure>
      </resource>
   </entry>
   <entry>
      <fullUrl value="urn:uuid:b80d0e7c-6f91-424e-8a80-994f968ed197"/>
      <resource>
         <Procedure>
            <id value="b80d0e7c-6f91-424e-8a80-994f968ed197"/>
            <meta>
               <profile value="http://hl7.org/fhir/uv/ips/StructureDefinition/Procedure-uv-ips"/>
            </meta>
            <text>
               <status value="generated"/>
               <div xmlns="http://www.w3.org/1999/xhtml">
                  <table class="hl7__ips">
                     <tr>
                        <td>Care regimes assessment</td>
                        <td>
                           <span class="nb">23-Oct-2023</span>
                        </td>
                        <td>-</td>
                     </tr>
                  </table>
               </div>
            </text>
            <status value="completed"/>
            <code>
               <coding>
                  <system value="http://snomed.info/sct"/>
                  <code value="392091000"/>
                  <display value="Care regimes assessment (procedure)"/>
               </coding>
               <text value="Care regimes assessment"/>
            </code>
            <subject>
               <reference value="urn:uuid:"/>
               <display value="Meaghan Neary"/>
            </subject>
            <performedDateTime value="2023-10-23"/>
         </Procedure>
      </resource>
   </entry>
   <entry>
      <fullUrl value="urn:uuid:e261883e-8a8f-4af2-8e6b-055030db1f33"/>
      <resource>
         <Procedure>
            <id value="e261883e-8a8f-4af2-8e6b-055030db1f33"/>
            <meta>
               <profile value="http://hl7.org/fhir/uv/ips/StructureDefinition/Procedure-uv-ips"/>
            </meta>
            <text>
               <status value="generated"/>
               <div xmlns="http://www.w3.org/1999/xhtml">
                  <table class="hl7__ips">
                     <tr>
                        <td>History AND physical examination</td>
                        <td>
                           <span class="nb">02-Oct-2023</span>
                        </td>
                        <td>-</td>
                     </tr>
                  </table>
               </div>
            </text>
            <status value="completed"/>
            <code>
               <coding>
                  <system value="http://snomed.info/sct"/>
                  <code value="63332003"/>
                  <display value="History AND physical examination (procedure)"/>
               </coding>
               <text value="History AND physical examination"/>
            </code>
            <subject>
               <reference value="urn:uuid:"/>
               <display value="Meaghan Neary"/>
            </subject>
            <performedDateTime value="2023-10-02"/>
         </Procedure>
      </resource>
   </entry>
   <entry>
      <fullUrl value="urn:uuid:58672db7-f8b5-4b25-8350-7b4f87c7217b"/>
      <resource>
         <Procedure>
            <id value="58672db7-f8b5-4b25-8350-7b4f87c7217b"/>
            <meta>
               <profile value="http://hl7.org/fhir/uv/ips/StructureDefinition/Procedure-uv-ips"/>
            </meta>
            <text>
               <status value="generated"/>
               <div xmlns="http://www.w3.org/1999/xhtml">
                  <table class="hl7__ips">
                     <tr>
                        <td>Initial patient assessment</td>
                        <td>
                           <span class="nb">02-Oct-2023</span>
                        </td>
                        <td>-</td>
                     </tr>
                  </table>
               </div>
            </text>
            <status value="completed"/>
            <code>
               <coding>
                  <system value="http://snomed.info/sct"/>
                  <code value="315639002"/>
                  <display value="Initial patient assessment (procedure)"/>
               </coding>
               <text value="Initial patient assessment"/>
            </code>
            <subject>
               <reference value="urn:uuid:"/>
               <display value="Meaghan Neary"/>
            </subject>
            <performedDateTime value="2023-10-02"/>
         </Procedure>
      </resource>
   </entry>
   <entry>
      <fullUrl value="urn:uuid:21a394ac-99ec-4ef3-b672-fbac84bc0ec7"/>
      <resource>
         <Procedure>
            <id value="21a394ac-99ec-4ef3-b672-fbac84bc0ec7"/>
            <meta>
               <profile value="http://hl7.org/fhir/uv/ips/StructureDefinition/Procedure-uv-ips"/>
            </meta>
            <text>
               <status value="generated"/>
               <div xmlns="http://www.w3.org/1999/xhtml">
                  <table class="hl7__ips">
                     <tr>
                        <td>Development of individualized plan of care</td>
                        <td>
                           <span class="nb">02-Oct-2023</span>
                        </td>
                        <td>-</td>
                     </tr>
                  </table>
               </div>
            </text>
            <status value="completed"/>
            <code>
               <coding>
                  <system value="http://snomed.info/sct"/>
                  <code value="370789001"/>
                  <display value="Development of individualized plan of care (procedure)"/>
               </coding>
               <text value="Development of individualized plan of care"/>
            </code>
            <subject>
               <reference value="urn:uuid:"/>
               <display value="Meaghan Neary"/>
            </subject>
            <performedDateTime value="2023-10-02"/>
         </Procedure>
      </resource>
   </entry>
   <entry>
      <fullUrl value="urn:uuid:5dba8feb-a37f-485f-986c-8deee51dc868"/>
      <resource>
         <Procedure>
            <id value="5dba8feb-a37f-485f-986c-8deee51dc868"/>
            <meta>
               <profile value="http://hl7.org/fhir/uv/ips/StructureDefinition/Procedure-uv-ips"/>
            </meta>
            <text>
               <status value="generated"/>
               <div xmlns="http://www.w3.org/1999/xhtml">
                  <table class="hl7__ips">
                     <tr>
                        <td>Depression screening using PHQ-9 (Patient Health Questionnaire 9) score</td>
                        <td>
                           <span class="nb">19-Jul-2022</span>
                        </td>
                        <td>-</td>
                     </tr>
                  </table>
               </div>
            </text>
            <status value="completed"/>
            <code>
               <coding>
                  <system value="http://snomed.info/sct"/>
                  <code value="715252007"/>
                  <display value="Depression screening using Patient Health Questionnaire Nine Item score (procedure)"/>
               </coding>
               <text value="Depression screening using PHQ-9 (Patient Health Questionnaire 9) score"/>
            </code>
            <subject>
               <reference value="urn:uuid:"/>
               <display value="Meaghan Neary"/>
            </subject>
            <performedDateTime value="2022-07-19"/>
         </Procedure>
      </resource>
   </entry>
   <entry>
      <fullUrl value="urn:uuid:55d3a38f-51a2-45b3-817e-3e78b5c9936d"/>
      <resource>
         <Procedure>
            <id value="55d3a38f-51a2-45b3-817e-3e78b5c9936d"/>
            <meta>
               <profile value="http://hl7.org/fhir/uv/ips/StructureDefinition/Procedure-uv-ips"/>
            </meta>
            <text>
               <status value="generated"/>
               <div xmlns="http://www.w3.org/1999/xhtml">
                  <table class="hl7__ips">
                     <tr>
                        <td>Radiography of wrist</td>
                        <td>
                           <span class="nb">27-Dec-2015</span>
                        </td>
                        <td>-</td>
                     </tr>
                  </table>
               </div>
            </text>
            <status value="completed"/>
            <code>
               <coding>
                  <system value="http://snomed.info/sct"/>
                  <code value="60027007"/>
                  <display value="Radiography of wrist (procedure)"/>
               </coding>
               <text value="Radiography of wrist"/>
            </code>
            <subject>
               <reference value="urn:uuid:"/>
               <display value="Meaghan Neary"/>
            </subject>
            <performedDateTime value="2015-12-27"/>
         </Procedure>
      </resource>
   </entry>
   <entry>
      <fullUrl value="urn:uuid:e7812b1e-44d1-40d5-9cd2-b0ab75a112ce"/>
      <resource>
         <Procedure>
            <id value="e7812b1e-44d1-40d5-9cd2-b0ab75a112ce"/>
            <meta>
               <profile value="http://hl7.org/fhir/uv/ips/StructureDefinition/Procedure-uv-ips"/>
            </meta>
            <text>
               <status value="generated"/>
               <div xmlns="http://www.w3.org/1999/xhtml">
                  <table class="hl7__ips">
                     <tr>
                        <td>Bone immobilization</td>
                        <td>
                           <span class="nb">27-Dec-2015</span>
                        </td>
                        <td>Fracture subluxation of wrist</td>
                     </tr>
                  </table>
               </div>
            </text>
            <status value="completed"/>
            <code>
               <coding>
                  <system value="http://snomed.info/sct"/>
                  <code value="274474001"/>
                  <display value="Bone immobilization"/>
               </coding>
               <text value="Bone immobilization"/>
            </code>
            <subject>
               <reference value="urn:uuid:"/>
               <display value="Meaghan Neary"/>
            </subject>
            <performedDateTime value="2015-12-27"/>
            <reasonCode>
               <coding>
                  <system value="http://snomed.info/sct"/>
                  <code value="263102004"/>
                  <display value="Fracture subluxation of wrist"/>
               </coding>
            </reasonCode>
         </Procedure>
      </resource>
   </entry>
   <entry>
      <fullUrl value="urn:uuid:98f5e7d7-09cd-45e7-864e-0c69e107d122"/>
      <resource>
         <Procedure>
            <id value="98f5e7d7-09cd-45e7-864e-0c69e107d122"/>
            <meta>
               <profile value="http://hl7.org/fhir/uv/ips/StructureDefinition/Procedure-uv-ips"/>
            </meta>
            <text>
               <status value="generated"/>
               <div xmlns="http://www.w3.org/1999/xhtml">
                  <table class="hl7__ips">
                     <tr>
                        <td>Bone density scan</td>
                        <td>
                           <span class="nb">27-Dec-2015</span>
                        </td>
                        <td>Fracture subluxation of wrist</td>
                     </tr>
                  </table>
               </div>
            </text>
            <status value="completed"/>
            <code>
               <coding>
                  <system value="http://snomed.info/sct"/>
                  <code value="312681000"/>
                  <display value="Bone density scan (procedure)"/>
               </coding>
               <text value="Bone density scan"/>
            </code>
            <subject>
               <reference value="urn:uuid:"/>
               <display value="Meaghan Neary"/>
            </subject>
            <performedDateTime value="2015-12-27"/>
            <reasonCode>
               <coding>
                  <system value="http://snomed.info/sct"/>
                  <code value="263102004"/>
                  <display value="Fracture subluxation of wrist"/>
               </coding>
            </reasonCode>
         </Procedure>
      </resource>
   </entry>
   <entry>
      <fullUrl value="urn:uuid:7a1932c1-3f94-4682-a4d3-0b98d9a65345"/>
      <resource>
         <AllergyIntolerance>
            <id value="7a1932c1-3f94-4682-a4d3-0b98d9a65345"/>
            <meta>
               <profile value="http://hl7.eu/fhir/eps/StructureDefinition/allergyIntolerance-eu-eps"/>
            </meta>
            <text>
               <status value="generated"/>
               <div xmlns="http://www.w3.org/1999/xhtml">
                  <table class="hl7__ips">
                     <tr>
                        <th>Allergy/Intolerance</th>
                        <th>Onset Date</th>
                        <th>Status</th>
                        <th>Type</th>
                        <th>Reaction</th>
                     </tr>
                     <tr>
                        <td/>
                        <td>?</td>
                        <td>active</td>
                        <td>?</td>
                        <td/>
                     </tr>
                  </table>
               </div>
            </text>
            <clinicalStatus>
               <coding>
                  <system value="http://terminology.hl7.org/CodeSystem/allergyintolerance-clinical"/>
                  <code value="active"/>
               </coding>
            </clinicalStatus>
            <verificationStatus>
               <coding>
                  <system value="http://terminology.hl7.org/CodeSystem/allergyintolerance-verification"/>
                  <code value="confirmed"/>
               </coding>
            </verificationStatus>
            <code>
               <text/>
            </code>
            <patient>
               <reference value="urn:uuid:62480d3b-bc3e-44b2-b530-29d3c4027acb"/>
               <display value="Meaghan Neary"/>
            </patient>
            <onsetDateTime>
               <extension url="http://hl7.org/fhir/StructureDefinition/data-absent-reason">
                  <valueCode value="unknown"/>
               </extension>
            </onsetDateTime>
         </AllergyIntolerance>
      </resource>
   </entry>
   <entry>
      <fullUrl value="urn:uuid:7cebd6aa-6731-4bb7-baf5-dff8ec656312"/>
      <resource>
         <CarePlan>
            <id value="7cebd6aa-6731-4bb7-baf5-dff8ec656312"/>
            <text>
               <status value="generated"/>
               <div xmlns="http://www.w3.org/1999/xhtml">
                  <table class="hl7__ips first25">
                     <tr>
                        <th>Active Planned Care / Goals</th>
                        <th>Start Date</th>
                        <th>Reason</th>
                     </tr>
                     <tr>
                        <td>Hyperlipidemia clinical management plan</td>
                        <td>
                           <span class="nb">16-Jul-2024</span>
                        </td>
                        <td>Hyperlipidemia</td>
                     </tr>
                     <tr>
                        <td>
                           <ul>
                              <li>Reduce LDL cholesterol to target level</li>
                              <li>Reduce total cholesterol to target level</li>
                              <li>Reduce triglycerides to target level</li>
                              <li>Increase HDL cholesterol to target level</li>
                           </ul>
                        </td>
                        <td/>
                        <td/>
                     </tr>
                  </table>
               </div>
            </text>
            <status value="active"/>
            <intent value="plan"/>
            <category>
               <coding>
                  <system value="http://terminology.hl7.org/CodeSystem/care-plan-category"/>
                  <code value="assess-plan"/>
                  <display value="Assessment and Plan"/>
               </coding>
            </category>
            <subject>
               <reference value="urn:uuid:62480d3b-bc3e-44b2-b530-29d3c4027acb"/>
               <display value="Meaghan Neary"/>
            </subject>
            <period>
               <start value="2024-07-16"/>
            </period>
            <goal>
               <reference value="urn:uuid:a29db360-d324-4a41-bc30-181437d9dc4f"/>
            </goal>
            <goal>
               <reference value="urn:uuid:663f357c-aec2-41a6-bd3f-32e1d32df7d1"/>
            </goal>
            <goal>
               <reference value="urn:uuid:844cfc91-6e2e-4624-be63-efbe47afd46e"/>
            </goal>
            <goal>
               <reference value="urn:uuid:4d5a3ff8-7ad6-46a0-9f23-fc9e855d97c4"/>
            </goal>
            <activity>
               <detail>
                  <kind value="Appointment"/>
                  <code>
                     <coding>
                        <system value="http://snomed.info/sct"/>
                        <code value="736285004"/>
                        <display value="Hyperlipidemia clinical management plan (record artifact)"/>
                     </coding>
                  </code>
                  <reasonCode>
                     <coding>
                        <system value="http://snomed.info/sct"/>
                        <code value="55822004"/>
                        <display value="Hyperlipidemia"/>
                     </coding>
                  </reasonCode>
                  <status value="unknown"/>
                  <description value="Hyperlipidemia clinical management plan"/>
               </detail>
            </activity>
         </CarePlan>
      </resource>
   </entry>
   <entry>
      <fullUrl value="urn:uuid:f2df7653-b4e3-4527-89b6-2518f7d45a32"/>
      <resource>
         <CarePlan>
            <id value="f2df7653-b4e3-4527-89b6-2518f7d45a32"/>
            <text>
               <status value="generated"/>
               <div xmlns="http://www.w3.org/1999/xhtml">
                  <table class="hl7__ips first25">
                     <tr>
                        <th>Active Planned Care / Goals</th>
                        <th>Start Date</th>
                        <th>Reason</th>
                     </tr>
                     <tr>
                        <td>Diabetes self management plan</td>
                        <td>
                           <span class="nb">10-May-1994</span>
                        </td>
                        <td>Prediabetes</td>
                     </tr>
                     <tr>
                        <td>
                           <ul>
                              <li>Achieve and maintain Hemoglobin A1c below 6.5% through diabetes self-management.</li>
                              <li>Achieve and maintain a healthy body weight as part of diabetes self-management.</li>
                              <li>Maintain blood pressure below 130/80 mmHg through lifestyle modifications.</li>
                              <li>Achieve and maintain LDL cholesterol below 2.6 mmol/L as part of diabetes self-management.</li>
                           </ul>
                        </td>
                        <td/>
                        <td/>
                     </tr>
                  </table>
               </div>
            </text>
            <status value="active"/>
            <intent value="plan"/>
            <category>
               <coding>
                  <system value="http://terminology.hl7.org/CodeSystem/care-plan-category"/>
                  <code value="assess-plan"/>
                  <display value="Assessment and Plan"/>
               </coding>
            </category>
            <subject>
               <reference value="urn:uuid:62480d3b-bc3e-44b2-b530-29d3c4027acb"/>
               <display value="Meaghan Neary"/>
            </subject>
            <period>
               <start value="1994-05-10"/>
            </period>
            <goal>
               <reference value="urn:uuid:2a050a0e-7fb3-424d-9770-5c7f08f273af"/>
            </goal>
            <goal>
               <reference value="urn:uuid:887c726f-39d2-47e7-9415-8e57fa4ff3bc"/>
            </goal>
            <goal>
               <reference value="urn:uuid:d27d2250-2c8a-48d2-b12f-00265a3b6753"/>
            </goal>
            <goal>
               <reference value="urn:uuid:2a0372f8-7f19-448d-a0cb-2b22aa74e7bb"/>
            </goal>
            <activity>
               <detail>
                  <kind value="Appointment"/>
                  <code>
                     <coding>
                        <system value="http://snomed.info/sct"/>
                        <code value="698360004"/>
                        <display value="Diabetes self management plan (qualifier value)"/>
                     </coding>
                  </code>
                  <reasonCode>
                     <coding>
                        <system value="http://snomed.info/sct"/>
                        <code value="15777000"/>
                        <display value="Prediabetes"/>
                     </coding>
                  </reasonCode>
                  <status value="unknown"/>
                  <description value="Diabetes self management plan"/>
               </detail>
            </activity>
         </CarePlan>
      </resource>
   </entry>
   <entry>
      <fullUrl value="urn:uuid:a383ab84-d92d-4815-9b8f-415e73f08cb9"/>
      <resource>
         <CarePlan>
            <id value="a383ab84-d92d-4815-9b8f-415e73f08cb9"/>
            <text>
               <status value="generated"/>
               <div xmlns="http://www.w3.org/1999/xhtml">
                  <table class="hl7__ips first25">
                     <tr>
                        <th>Active Planned Care / Goals</th>
                        <th>Start Date</th>
                        <th>Reason</th>
                     </tr>
                     <tr>
                        <td>Lifestyle education regarding hypertension</td>
                        <td>
                           <span class="nb">16-Apr-1991</span>
                        </td>
                        <td>Essential hypertension (disorder)</td>
                     </tr>
                     <tr>
                        <td>
                           <ul>
                              <li>Maintain blood pressure below 130/80 mmHg to reduce cardiovascular and renal risk.</li>
                              <li>Adopt dietary changes, increase physical activity, and reduce sodium intake to support blood pressure control.</li>
                           </ul>
                        </td>
                        <td/>
                        <td/>
                     </tr>
                  </table>
               </div>
            </text>
            <status value="active"/>
            <intent value="plan"/>
            <category>
               <coding>
                  <system value="http://terminology.hl7.org/CodeSystem/care-plan-category"/>
                  <code value="assess-plan"/>
                  <display value="Assessment and Plan"/>
               </coding>
            </category>
            <subject>
               <reference value="urn:uuid:62480d3b-bc3e-44b2-b530-29d3c4027acb"/>
               <display value="Meaghan Neary"/>
            </subject>
            <period>
               <start value="1991-04-16"/>
            </period>
            <goal>
               <reference value="urn:uuid:71799598-f0ef-4af3-9e3b-31195ec7e5bf"/>
            </goal>
            <goal>
               <reference value="urn:uuid:403bf4fa-fe9c-4139-a2f8-b102283c27d1"/>
            </goal>
            <activity>
               <detail>
                  <kind value="Appointment"/>
                  <code>
                     <coding>
                        <system value="http://snomed.info/sct"/>
                        <code value="443402002"/>
                        <display value="Lifestyle education regarding hypertension (procedure)"/>
                     </coding>
                  </code>
                  <reasonCode>
                     <coding>
                        <system value="http://snomed.info/sct"/>
                        <code value="59621000"/>
                        <display value="Essential hypertension (disorder)"/>
                     </coding>
                  </reasonCode>
                  <status value="unknown"/>
                  <description value="Lifestyle education regarding hypertension"/>
               </detail>
            </activity>
         </CarePlan>
      </resource>
   </entry>
   <entry>
      <fullUrl value="urn:uuid:de30efcd-3993-4ff3-97c1-7598b4de94c7"/>
      <resource>
         <ImmunizationRecommendation>
            <id value="de30efcd-3993-4ff3-97c1-7598b4de94c7"/>
            <text>
               <status value="generated"/>
               <div xmlns="http://www.w3.org/1999/xhtml">
                  <table class="hl7__ips">
                     <tr>
                        <td>Vaccine product containing only Influenza virus antigen (medicinal product)</td>
                        <td>
                           <span class="nb">01-Oct-2025</span>
                        </td>
                        <td>Annual seasonal influenza vaccination</td>
                     </tr>
                  </table>
               </div>
            </text>
            <patient>
               <reference value="urn:uuid:62480d3b-bc3e-44b2-b530-29d3c4027acb"/>
               <display value="Meaghan Neary"/>
            </patient>
            <date value="2025-10-22"/>
            <recommendation>
               <vaccineCode>
                  <coding>
                     <system value="http://snomed.info/sct"/>
                     <code value="1181000221105"/>
                     <display value="Vaccine product containing only Influenza virus antigen (medicinal product)"/>
                  </coding>
               </vaccineCode>
               <targetDisease>
                  <coding>
                     <system value="http://snomed.info/sct"/>
                     <code value="6142004"/>
                     <display value="Influenza (disorder)"/>
                  </coding>
               </targetDisease>
               <forecastStatus>
                  <coding>
                     <system value="http://terminology.hl7.org/CodeSystem/immunization-recommendation-status"/>
                     <code value="due"/>
                     <display value="Due"/>
                  </coding>
               </forecastStatus>
               <dateCriterion>
                  <code>
                     <coding>
                        <system value="http://loinc.org"/>
                        <code value="30980-7"/>
                        <display value="Date vaccine due"/>
                     </coding>
                  </code>
                  <value value="2025-10-01"/>
               </dateCriterion>
               <series value="Annual seasonal influenza vaccination"/>
            </recommendation>
         </ImmunizationRecommendation>
      </resource>
   </entry>
   <entry>
      <fullUrl value="urn:uuid:4ae546db-baef-4085-b9c8-70837c0ad6af"/>
      <resource>
         <Observation>
            <id value="4ae546db-baef-4085-b9c8-70837c0ad6af"/>
            <meta>
               <profile value="http://hl7.org/fhir/StructureDefinition/vitalsigns"/>
            </meta>
            <text>
               <status value="generated"/>
               <div xmlns="http://www.w3.org/1999/xhtml">
                  <table class="hl7__ips">
                     <tr>
                        <th>Vital Sign</th>
                        <th>Date</th>
                        <th>Measurement</th>
                     </tr>
                     <tr>
                        <td>Body Height</td>
                        <td>16-Jun-2025</td>
                        <td>169.5 cm</td>
                     </tr>
                  </table>
               </div>
            </text>
            <status value="final"/>
            <category>
               <coding>
                  <system value="http://terminology.hl7.org/CodeSystem/observation-category"/>
                  <code value="vital-signs"/>
                  <display value="Vital Signs"/>
               </coding>
            </category>
            <code>
               <coding>
                  <system value="http://loinc.org"/>
                  <code value="$8302-2"/>
                  <display value="Body Height"/>
               </coding>
            </code>
            <subject>
               <reference value="urn:uuid:62480d3b-bc3e-44b2-b530-29d3c4027acb"/>
               <display value="Meaghan Neary"/>
            </subject>
            <effectiveDateTime value="2025-06-16"/>
            <valueQuantity>
               <value value="169.5"/>
               <unit value="cm"/>
               <code value="cm"/>
            </valueQuantity>
         </Observation>
      </resource>
   </entry>
   <entry>
      <fullUrl value="urn:uuid:60db4dd2-2971-4bc0-b176-0dba7c49b621"/>
      <resource>
         <Observation>
            <id value="60db4dd2-2971-4bc0-b176-0dba7c49b621"/>
            <meta>
               <profile value="http://hl7.org/fhir/StructureDefinition/vitalsigns"/>
            </meta>
            <text>
               <status value="generated"/>
               <div xmlns="http://www.w3.org/1999/xhtml">
                  <table class="hl7__ips">
                     <tr>
                        <th>Vital Sign</th>
                        <th>Date</th>
                        <th>Measurement</th>
                     </tr>
                     <tr>
                        <td>Pain severity - 0-10 verbal numeric rating [Score] - Reported</td>
                        <td>16-Jun-2025</td>
                        <td>1 {score}</td>
                     </tr>
                  </table>
               </div>
            </text>
            <status value="final"/>
            <category>
               <coding>
                  <system value="http://terminology.hl7.org/CodeSystem/observation-category"/>
                  <code value="vital-signs"/>
                  <display value="Vital Signs"/>
               </coding>
            </category>
            <code>
               <coding>
                  <system value="http://loinc.org"/>
                  <code value="$72514-3"/>
                  <display value="Pain severity - 0-10 verbal numeric rating [Score] - Reported"/>
               </coding>
            </code>
            <subject>
               <reference value="urn:uuid:62480d3b-bc3e-44b2-b530-29d3c4027acb"/>
               <display value="Meaghan Neary"/>
            </subject>
            <effectiveDateTime value="2025-06-16"/>
            <valueQuantity>
               <value value="1"/>
               <unit value="{score}"/>
               <code value="{score}"/>
            </valueQuantity>
         </Observation>
      </resource>
   </entry>
   <entry>
      <fullUrl value="urn:uuid:24c3c298-7864-48f1-a90f-550f049b5bd0"/>
      <resource>
         <Observation>
            <id value="24c3c298-7864-48f1-a90f-550f049b5bd0"/>
            <meta>
               <profile value="http://hl7.org/fhir/StructureDefinition/vitalsigns"/>
            </meta>
            <text>
               <status value="generated"/>
               <div xmlns="http://www.w3.org/1999/xhtml">
                  <table class="hl7__ips">
                     <tr>
                        <th>Vital Sign</th>
                        <th>Date</th>
                        <th>Measurement</th>
                     </tr>
                     <tr>
                        <td>Body Weight</td>
                        <td>16-Jun-2025</td>
                        <td>80.6 kg</td>
                     </tr>
                  </table>
               </div>
            </text>
            <status value="final"/>
            <category>
               <coding>
                  <system value="http://terminology.hl7.org/CodeSystem/observation-category"/>
                  <code value="vital-signs"/>
                  <display value="Vital Signs"/>
               </coding>
            </category>
            <code>
               <coding>
                  <system value="http://loinc.org"/>
                  <code value="$29463-7"/>
                  <display value="Body Weight"/>
               </coding>
            </code>
            <subject>
               <reference value="urn:uuid:62480d3b-bc3e-44b2-b530-29d3c4027acb"/>
               <display value="Meaghan Neary"/>
            </subject>
            <effectiveDateTime value="2025-06-16"/>
            <valueQuantity>
               <value value="80.6"/>
               <unit value="kg"/>
               <code value="kg"/>
            </valueQuantity>
         </Observation>
      </resource>
   </entry>
   <entry>
      <fullUrl value="urn:uuid:b3dc33f3-e456-4b8e-bea1-7e3a2ff490fa"/>
      <resource>
         <Observation>
            <id value="b3dc33f3-e456-4b8e-bea1-7e3a2ff490fa"/>
            <meta>
               <profile value="http://hl7.org/fhir/StructureDefinition/vitalsigns"/>
            </meta>
            <text>
               <status value="generated"/>
               <div xmlns="http://www.w3.org/1999/xhtml">
                  <table class="hl7__ips">
                     <tr>
                        <th>Vital Sign</th>
                        <th>Date</th>
                        <th>Measurement</th>
                     </tr>
                     <tr>
                        <td>Body mass index (BMI) [Ratio]</td>
                        <td>16-Jun-2025</td>
                        <td>28.1 kg/m2</td>
                     </tr>
                  </table>
               </div>
            </text>
            <status value="final"/>
            <category>
               <coding>
                  <system value="http://terminology.hl7.org/CodeSystem/observation-category"/>
                  <code value="vital-signs"/>
                  <display value="Vital Signs"/>
               </coding>
            </category>
            <code>
               <coding>
                  <system value="http://loinc.org"/>
                  <code value="$39156-5"/>
                  <display value="Body mass index (BMI) [Ratio]"/>
               </coding>
            </code>
            <subject>
               <reference value="urn:uuid:62480d3b-bc3e-44b2-b530-29d3c4027acb"/>
               <display value="Meaghan Neary"/>
            </subject>
            <effectiveDateTime value="2025-06-16"/>
            <valueQuantity>
               <value value="28.1"/>
               <unit value="kg/m2"/>
               <code value="kg/m2"/>
            </valueQuantity>
         </Observation>
      </resource>
   </entry>
   <entry>
      <fullUrl value="urn:uuid:3273a658-7eb1-479c-8721-6411ea0f4fa8"/>
      <resource>
         <Observation>
            <id value="3273a658-7eb1-479c-8721-6411ea0f4fa8"/>
            <meta>
               <profile value="http://hl7.org/fhir/StructureDefinition/vitalsigns"/>
            </meta>
            <text>
               <status value="generated"/>
               <div xmlns="http://www.w3.org/1999/xhtml">
                  <table class="hl7__ips">
                     <tr>
                        <th>Vital Sign</th>
                        <th>Date</th>
                        <th>Measurement</th>
                     </tr>
                     <tr>
                        <td>Diastolic Blood Pressure</td>
                        <td>16-Jun-2025</td>
                        <td>91 mm[Hg]</td>
                     </tr>
                  </table>
               </div>
            </text>
            <status value="final"/>
            <category>
               <coding>
                  <system value="http://terminology.hl7.org/CodeSystem/observation-category"/>
                  <code value="vital-signs"/>
                  <display value="Vital Signs"/>
               </coding>
            </category>
            <code>
               <coding>
                  <system value="http://loinc.org"/>
                  <code value="$8462-4"/>
                  <display value="Diastolic Blood Pressure"/>
               </coding>
            </code>
            <subject>
               <reference value="urn:uuid:62480d3b-bc3e-44b2-b530-29d3c4027acb"/>
               <display value="Meaghan Neary"/>
            </subject>
            <effectiveDateTime value="2025-06-16"/>
            <valueQuantity>
               <value value="91"/>
               <unit value="mm[Hg]"/>
               <code value="mm[Hg]"/>
            </valueQuantity>
         </Observation>
      </resource>
   </entry>
   <entry>
      <fullUrl value="urn:uuid:baa57112-8286-4852-ad9d-e7f89d6a0861"/>
      <resource>
         <Observation>
            <id value="baa57112-8286-4852-ad9d-e7f89d6a0861"/>
            <meta>
               <profile value="http://hl7.org/fhir/StructureDefinition/vitalsigns"/>
            </meta>
            <text>
               <status value="generated"/>
               <div xmlns="http://www.w3.org/1999/xhtml">
                  <table class="hl7__ips">
                     <tr>
                        <th>Vital Sign</th>
                        <th>Date</th>
                        <th>Measurement</th>
                     </tr>
                     <tr>
                        <td>Systolic Blood Pressure</td>
                        <td>16-Jun-2025</td>
                        <td>111 mm[Hg]</td>
                     </tr>
                  </table>
               </div>
            </text>
            <status value="final"/>
            <category>
               <coding>
                  <system value="http://terminology.hl7.org/CodeSystem/observation-category"/>
                  <code value="vital-signs"/>
                  <display value="Vital Signs"/>
               </coding>
            </category>
            <code>
               <coding>
                  <system value="http://loinc.org"/>
                  <code value="$8480-6"/>
                  <display value="Systolic Blood Pressure"/>
               </coding>
            </code>
            <subject>
               <reference value="urn:uuid:62480d3b-bc3e-44b2-b530-29d3c4027acb"/>
               <display value="Meaghan Neary"/>
            </subject>
            <effectiveDateTime value="2025-06-16"/>
            <valueQuantity>
               <value value="111"/>
               <unit value="mm[Hg]"/>
               <code value="mm[Hg]"/>
            </valueQuantity>
         </Observation>
      </resource>
   </entry>
   <entry>
      <fullUrl value="urn:uuid:ee8f17ee-558e-4ccb-bd70-5bec899cc976"/>
      <resource>
         <Observation>
            <id value="ee8f17ee-558e-4ccb-bd70-5bec899cc976"/>
            <meta>
               <profile value="http://hl7.org/fhir/StructureDefinition/vitalsigns"/>
            </meta>
            <text>
               <status value="generated"/>
               <div xmlns="http://www.w3.org/1999/xhtml">
                  <table class="hl7__ips">
                     <tr>
                        <th>Vital Sign</th>
                        <th>Date</th>
                        <th>Measurement</th>
                     </tr>
                     <tr>
                        <td>Heart rate</td>
                        <td>16-Jun-2025</td>
                        <td>79 /min</td>
                     </tr>
                  </table>
               </div>
            </text>
            <status value="final"/>
            <category>
               <coding>
                  <system value="http://terminology.hl7.org/CodeSystem/observation-category"/>
                  <code value="vital-signs"/>
                  <display value="Vital Signs"/>
               </coding>
            </category>
            <code>
               <coding>
                  <system value="http://loinc.org"/>
                  <code value="$8867-4"/>
                  <display value="Heart rate"/>
               </coding>
            </code>
            <subject>
               <reference value="urn:uuid:62480d3b-bc3e-44b2-b530-29d3c4027acb"/>
               <display value="Meaghan Neary"/>
            </subject>
            <effectiveDateTime value="2025-06-16"/>
            <valueQuantity>
               <value value="79"/>
               <unit value="/min"/>
               <code value="/min"/>
            </valueQuantity>
         </Observation>
      </resource>
   </entry>
   <entry>
      <fullUrl value="urn:uuid:0d3c3534-339e-4cc2-809b-693141acbbc4"/>
      <resource>
         <Observation>
            <id value="0d3c3534-339e-4cc2-809b-693141acbbc4"/>
            <meta>
               <profile value="http://hl7.org/fhir/StructureDefinition/vitalsigns"/>
            </meta>
            <text>
               <status value="generated"/>
               <div xmlns="http://www.w3.org/1999/xhtml">
                  <table class="hl7__ips">
                     <tr>
                        <th>Vital Sign</th>
                        <th>Date</th>
                        <th>Measurement</th>
                     </tr>
                     <tr>
                        <td>Respiratory rate</td>
                        <td>16-Jun-2025</td>
                        <td>14 /min</td>
                     </tr>
                  </table>
               </div>
            </text>
            <status value="final"/>
            <category>
               <coding>
                  <system value="http://terminology.hl7.org/CodeSystem/observation-category"/>
                  <code value="vital-signs"/>
                  <display value="Vital Signs"/>
               </coding>
            </category>
            <code>
               <coding>
                  <system value="http://loinc.org"/>
                  <code value="$9279-1"/>
                  <display value="Respiratory rate"/>
               </coding>
            </code>
            <subject>
               <reference value="urn:uuid:62480d3b-bc3e-44b2-b530-29d3c4027acb"/>
               <display value="Meaghan Neary"/>
            </subject>
            <effectiveDateTime value="2025-06-16"/>
            <valueQuantity>
               <value value="14"/>
               <unit value="/min"/>
               <code value="/min"/>
            </valueQuantity>
         </Observation>
      </resource>
   </entry>
   <entry>
      <fullUrl value="urn:uuid:2d222e56-da97-467b-8345-3cc7aa422923"/>
      <resource>
         <Observation>
            <id value="2d222e56-da97-467b-8345-3cc7aa422923"/>
            <meta>
               <profile value="http://hl7.org/fhir/StructureDefinition/vitalsigns"/>
            </meta>
            <text>
               <status value="generated"/>
               <div xmlns="http://www.w3.org/1999/xhtml">
                  <table class="hl7__ips">
                     <tr>
                        <th>Vital Sign</th>
                        <th>Date</th>
                        <th>Measurement</th>
                     </tr>
                     <tr>
                        <td>Body Height</td>
                        <td>19-May-2025</td>
                        <td>169.5 cm</td>
                     </tr>
                  </table>
               </div>
            </text>
            <status value="final"/>
            <category>
               <coding>
                  <system value="http://terminology.hl7.org/CodeSystem/observation-category"/>
                  <code value="vital-signs"/>
                  <display value="Vital Signs"/>
               </coding>
            </category>
            <code>
               <coding>
                  <system value="http://loinc.org"/>
                  <code value="$8302-2"/>
                  <display value="Body Height"/>
               </coding>
            </code>
            <subject>
               <reference value="urn:uuid:62480d3b-bc3e-44b2-b530-29d3c4027acb"/>
               <display value="Meaghan Neary"/>
            </subject>
            <effectiveDateTime value="2025-05-19"/>
            <valueQuantity>
               <value value="169.5"/>
               <unit value="cm"/>
               <code value="cm"/>
            </valueQuantity>
         </Observation>
      </resource>
   </entry>
   <entry>
      <fullUrl value="urn:uuid:d14a0f72-3bd8-47d0-badc-e39652eec919"/>
      <resource>
         <Observation>
            <id value="d14a0f72-3bd8-47d0-badc-e39652eec919"/>
            <meta>
               <profile value="http://hl7.org/fhir/StructureDefinition/vitalsigns"/>
            </meta>
            <text>
               <status value="generated"/>
               <div xmlns="http://www.w3.org/1999/xhtml">
                  <table class="hl7__ips">
                     <tr>
                        <th>Vital Sign</th>
                        <th>Date</th>
                        <th>Measurement</th>
                     </tr>
                     <tr>
                        <td>Pain severity - 0-10 verbal numeric rating [Score] - Reported</td>
                        <td>19-May-2025</td>
                        <td>2 {score}</td>
                     </tr>
                  </table>
               </div>
            </text>
            <status value="final"/>
            <category>
               <coding>
                  <system value="http://terminology.hl7.org/CodeSystem/observation-category"/>
                  <code value="vital-signs"/>
                  <display value="Vital Signs"/>
               </coding>
            </category>
            <code>
               <coding>
                  <system value="http://loinc.org"/>
                  <code value="$72514-3"/>
                  <display value="Pain severity - 0-10 verbal numeric rating [Score] - Reported"/>
               </coding>
            </code>
            <subject>
               <reference value="urn:uuid:62480d3b-bc3e-44b2-b530-29d3c4027acb"/>
               <display value="Meaghan Neary"/>
            </subject>
            <effectiveDateTime value="2025-05-19"/>
            <valueQuantity>
               <value value="2"/>
               <unit value="{score}"/>
               <code value="{score}"/>
            </valueQuantity>
         </Observation>
      </resource>
   </entry>
   <entry>
      <fullUrl value="urn:uuid:d3f062fc-eba9-4d53-885e-ab9ee2023b48"/>
      <resource>
         <Observation>
            <id value="d3f062fc-eba9-4d53-885e-ab9ee2023b48"/>
            <meta>
               <profile value="http://hl7.org/fhir/StructureDefinition/vitalsigns"/>
            </meta>
            <text>
               <status value="generated"/>
               <div xmlns="http://www.w3.org/1999/xhtml">
                  <table class="hl7__ips">
                     <tr>
                        <th>Vital Sign</th>
                        <th>Date</th>
                        <th>Measurement</th>
                     </tr>
                     <tr>
                        <td>Body Weight</td>
                        <td>19-May-2025</td>
                        <td>80.6 kg</td>
                     </tr>
                  </table>
               </div>
            </text>
            <status value="final"/>
            <category>
               <coding>
                  <system value="http://terminology.hl7.org/CodeSystem/observation-category"/>
                  <code value="vital-signs"/>
                  <display value="Vital Signs"/>
               </coding>
            </category>
            <code>
               <coding>
                  <system value="http://loinc.org"/>
                  <code value="$29463-7"/>
                  <display value="Body Weight"/>
               </coding>
            </code>
            <subject>
               <reference value="urn:uuid:62480d3b-bc3e-44b2-b530-29d3c4027acb"/>
               <display value="Meaghan Neary"/>
            </subject>
            <effectiveDateTime value="2025-05-19"/>
            <valueQuantity>
               <value value="80.6"/>
               <unit value="kg"/>
               <code value="kg"/>
            </valueQuantity>
         </Observation>
      </resource>
   </entry>
   <entry>
      <fullUrl value="urn:uuid:fa55a61b-25da-4cc3-ac49-98c71a77a4f1"/>
      <resource>
         <Observation>
            <id value="fa55a61b-25da-4cc3-ac49-98c71a77a4f1"/>
            <meta>
               <profile value="http://hl7.org/fhir/StructureDefinition/vitalsigns"/>
            </meta>
            <text>
               <status value="generated"/>
               <div xmlns="http://www.w3.org/1999/xhtml">
                  <table class="hl7__ips">
                     <tr>
                        <th>Vital Sign</th>
                        <th>Date</th>
                        <th>Measurement</th>
                     </tr>
                     <tr>
                        <td>Body mass index (BMI) [Ratio]</td>
                        <td>19-May-2025</td>
                        <td>28.1 kg/m2</td>
                     </tr>
                  </table>
               </div>
            </text>
            <status value="final"/>
            <category>
               <coding>
                  <system value="http://terminology.hl7.org/CodeSystem/observation-category"/>
                  <code value="vital-signs"/>
                  <display value="Vital Signs"/>
               </coding>
            </category>
            <code>
               <coding>
                  <system value="http://loinc.org"/>
                  <code value="$39156-5"/>
                  <display value="Body mass index (BMI) [Ratio]"/>
               </coding>
            </code>
            <subject>
               <reference value="urn:uuid:62480d3b-bc3e-44b2-b530-29d3c4027acb"/>
               <display value="Meaghan Neary"/>
            </subject>
            <effectiveDateTime value="2025-05-19"/>
            <valueQuantity>
               <value value="28.1"/>
               <unit value="kg/m2"/>
               <code value="kg/m2"/>
            </valueQuantity>
         </Observation>
      </resource>
   </entry>
   <entry>
      <fullUrl value="urn:uuid:f81347c6-73de-4ce1-ad3e-dc48d02e2c31"/>
      <resource>
         <Observation>
            <id value="f81347c6-73de-4ce1-ad3e-dc48d02e2c31"/>
            <meta>
               <profile value="http://hl7.org/fhir/StructureDefinition/vitalsigns"/>
            </meta>
            <text>
               <status value="generated"/>
               <div xmlns="http://www.w3.org/1999/xhtml">
                  <table class="hl7__ips">
                     <tr>
                        <th>Vital Sign</th>
                        <th>Date</th>
                        <th>Measurement</th>
                     </tr>
                     <tr>
                        <td>Diastolic Blood Pressure</td>
                        <td>19-May-2025</td>
                        <td>89 mm[Hg]</td>
                     </tr>
                  </table>
               </div>
            </text>
            <status value="final"/>
            <category>
               <coding>
                  <system value="http://terminology.hl7.org/CodeSystem/observation-category"/>
                  <code value="vital-signs"/>
                  <display value="Vital Signs"/>
               </coding>
            </category>
            <code>
               <coding>
                  <system value="http://loinc.org"/>
                  <code value="$8462-4"/>
                  <display value="Diastolic Blood Pressure"/>
               </coding>
            </code>
            <subject>
               <reference value="urn:uuid:62480d3b-bc3e-44b2-b530-29d3c4027acb"/>
               <display value="Meaghan Neary"/>
            </subject>
            <effectiveDateTime value="2025-05-19"/>
            <valueQuantity>
               <value value="89"/>
               <unit value="mm[Hg]"/>
               <code value="mm[Hg]"/>
            </valueQuantity>
         </Observation>
      </resource>
   </entry>
   <entry>
      <fullUrl value="urn:uuid:ce13097c-f2bb-4397-85de-0edd03241850"/>
      <resource>
         <Observation>
            <id value="ce13097c-f2bb-4397-85de-0edd03241850"/>
            <meta>
               <profile value="http://hl7.org/fhir/StructureDefinition/vitalsigns"/>
            </meta>
            <text>
               <status value="generated"/>
               <div xmlns="http://www.w3.org/1999/xhtml">
                  <table class="hl7__ips">
                     <tr>
                        <th>Vital Sign</th>
                        <th>Date</th>
                        <th>Measurement</th>
                     </tr>
                     <tr>
                        <td>Systolic Blood Pressure</td>
                        <td>19-May-2025</td>
                        <td>110 mm[Hg]</td>
                     </tr>
                  </table>
               </div>
            </text>
            <status value="final"/>
            <category>
               <coding>
                  <system value="http://terminology.hl7.org/CodeSystem/observation-category"/>
                  <code value="vital-signs"/>
                  <display value="Vital Signs"/>
               </coding>
            </category>
            <code>
               <coding>
                  <system value="http://loinc.org"/>
                  <code value="$8480-6"/>
                  <display value="Systolic Blood Pressure"/>
               </coding>
            </code>
            <subject>
               <reference value="urn:uuid:62480d3b-bc3e-44b2-b530-29d3c4027acb"/>
               <display value="Meaghan Neary"/>
            </subject>
            <effectiveDateTime value="2025-05-19"/>
            <valueQuantity>
               <value value="110"/>
               <unit value="mm[Hg]"/>
               <code value="mm[Hg]"/>
            </valueQuantity>
         </Observation>
      </resource>
   </entry>
   <entry>
      <fullUrl value="urn:uuid:d718152b-6c05-4b50-87e7-9a9250736ba8"/>
      <resource>
         <Observation>
            <id value="d718152b-6c05-4b50-87e7-9a9250736ba8"/>
            <meta>
               <profile value="http://hl7.org/fhir/StructureDefinition/vitalsigns"/>
            </meta>
            <text>
               <status value="generated"/>
               <div xmlns="http://www.w3.org/1999/xhtml">
                  <table class="hl7__ips">
                     <tr>
                        <th>Vital Sign</th>
                        <th>Date</th>
                        <th>Measurement</th>
                     </tr>
                     <tr>
                        <td>Heart rate</td>
                        <td>19-May-2025</td>
                        <td>65 /min</td>
                     </tr>
                  </table>
               </div>
            </text>
            <status value="final"/>
            <category>
               <coding>
                  <system value="http://terminology.hl7.org/CodeSystem/observation-category"/>
                  <code value="vital-signs"/>
                  <display value="Vital Signs"/>
               </coding>
            </category>
            <code>
               <coding>
                  <system value="http://loinc.org"/>
                  <code value="$8867-4"/>
                  <display value="Heart rate"/>
               </coding>
            </code>
            <subject>
               <reference value="urn:uuid:62480d3b-bc3e-44b2-b530-29d3c4027acb"/>
               <display value="Meaghan Neary"/>
            </subject>
            <effectiveDateTime value="2025-05-19"/>
            <valueQuantity>
               <value value="65"/>
               <unit value="/min"/>
               <code value="/min"/>
            </valueQuantity>
         </Observation>
      </resource>
   </entry>
   <entry>
      <fullUrl value="urn:uuid:7ab56c1a-3272-4715-8da3-87860de51b54"/>
      <resource>
         <Observation>
            <id value="7ab56c1a-3272-4715-8da3-87860de51b54"/>
            <meta>
               <profile value="http://hl7.org/fhir/StructureDefinition/vitalsigns"/>
            </meta>
            <text>
               <status value="generated"/>
               <div xmlns="http://www.w3.org/1999/xhtml">
                  <table class="hl7__ips">
                     <tr>
                        <th>Vital Sign</th>
                        <th>Date</th>
                        <th>Measurement</th>
                     </tr>
                     <tr>
                        <td>Respiratory rate</td>
                        <td>19-May-2025</td>
                        <td>14 /min</td>
                     </tr>
                  </table>
               </div>
            </text>
            <status value="final"/>
            <category>
               <coding>
                  <system value="http://terminology.hl7.org/CodeSystem/observation-category"/>
                  <code value="vital-signs"/>
                  <display value="Vital Signs"/>
               </coding>
            </category>
            <code>
               <coding>
                  <system value="http://loinc.org"/>
                  <code value="$9279-1"/>
                  <display value="Respiratory rate"/>
               </coding>
            </code>
            <subject>
               <reference value="urn:uuid:62480d3b-bc3e-44b2-b530-29d3c4027acb"/>
               <display value="Meaghan Neary"/>
            </subject>
            <effectiveDateTime value="2025-05-19"/>
            <valueQuantity>
               <value value="14"/>
               <unit value="/min"/>
               <code value="/min"/>
            </valueQuantity>
         </Observation>
      </resource>
   </entry>
   <entry>
      <fullUrl value="urn:uuid:6dd671d2-7432-44f8-bbb1-56f922f3f5db"/>
      <resource>
         <Observation>
            <id value="6dd671d2-7432-44f8-bbb1-56f922f3f5db"/>
            <meta>
               <profile value="http://hl7.eu/fhir/laboratory/StructureDefinition/Observation-resultslab-eu-lab"/>
            </meta>
            <text>
               <status value="generated"/>
               <div xmlns="http://www.w3.org/1999/xhtml">
                  <table class="hl7__eu__lab__report">
                     <tr>
                        <th>Test</th>
                        <th>16-Jul-2025</th>
                        <th>Reference Range</th>
                        <th>Unit</th>
                     </tr>
                     <tr>
                        <td>Glucose [Mass/volume] in Blood</td>
                        <td>75.1</td>
                        <td>70 - 100</td>
                        <td/>
                        <td>mg/dL</td>
                     </tr>
                  </table>
               </div>
            </text>
            <status value="final"/>
            <category>
               <coding>
                  <system value="http://terminology.hl7.org/CodeSystem/observation-category"/>
                  <code value="laboratory"/>
               </coding>
            </category>
            <code>
               <coding>
                  <system value="http://loinc.org"/>
                  <code value="2339-0"/>
                  <display value="Glucose [Mass/volume] in Blood"/>
               </coding>
               <text value="Glucose [Mass/volume] in Blood"/>
            </code>
            <subject>
               <reference value="urn:uuid:62480d3b-bc3e-44b2-b530-29d3c4027acb"/>
               <display value="Meaghan Neary"/>
            </subject>
            <effectiveDateTime value="2025-07-15T22:11:04Z"/>
            <performer>
               <display value="The Central European Lab"/>
            </performer>
            <valueQuantity>
               <value value="75.1"/>
               <unit value="mg/dL"/>
               <system value="http://unitsofmeasure.org"/>
               <code value="mg/dL"/>
            </valueQuantity>
            <referenceRange>
               <low>
                  <value value="70"/>
                  <system value="http://unitsofmeasure.org"/>
                  <code value="mg/dL"/>
               </low>
            </referenceRange>
            <referenceRange>
               <high>
                  <value value="100"/>
                  <system value="http://unitsofmeasure.org"/>
                  <code value="mg/dL"/>
               </high>
            </referenceRange>
         </Observation>
      </resource>
   </entry>
   <entry>
      <fullUrl value="urn:uuid:990cd759-f00e-48de-92e8-b044095c16a6"/>
      <resource>
         <Observation>
            <id value="990cd759-f00e-48de-92e8-b044095c16a6"/>
            <meta>
               <profile value="http://hl7.eu/fhir/laboratory/StructureDefinition/Observation-resultslab-eu-lab"/>
            </meta>
            <text>
               <status value="generated"/>
               <div xmlns="http://www.w3.org/1999/xhtml">
                  <table class="hl7__eu__lab__report">
                     <tr>
                        <th>Test</th>
                        <th>16-Jul-2025</th>
                        <th>Reference Range</th>
                        <th>Unit</th>
                     </tr>
                     <tr>
                        <td>Urea nitrogen [Mass/volume] in Blood</td>
                        <td>18.0</td>
                        <td>7 - 43</td>
                        <td/>
                        <td>mg/dL</td>
                     </tr>
                  </table>
               </div>
            </text>
            <status value="final"/>
            <category>
               <coding>
                  <system value="http://terminology.hl7.org/CodeSystem/observation-category"/>
                  <code value="laboratory"/>
               </coding>
            </category>
            <code>
               <coding>
                  <system value="http://loinc.org"/>
                  <code value="6299-2"/>
                  <display value="Urea nitrogen [Mass/volume] in Blood"/>
               </coding>
               <text value="Urea nitrogen [Mass/volume] in Blood"/>
            </code>
            <subject>
               <reference value="urn:uuid:62480d3b-bc3e-44b2-b530-29d3c4027acb"/>
               <display value="Meaghan Neary"/>
            </subject>
            <effectiveDateTime value="2025-07-15T22:11:04Z"/>
            <performer>
               <display value="The Central European Lab"/>
            </performer>
            <valueQuantity>
               <value value="18"/>
               <unit value="mg/dL"/>
               <system value="http://unitsofmeasure.org"/>
               <code value="mg/dL"/>
            </valueQuantity>
            <referenceRange>
               <low>
                  <value value="7"/>
                  <system value="http://unitsofmeasure.org"/>
                  <code value="mg/dL"/>
               </low>
            </referenceRange>
            <referenceRange>
               <high>
                  <value value="43"/>
                  <system value="http://unitsofmeasure.org"/>
                  <code value="mg/dL"/>
               </high>
            </referenceRange>
         </Observation>
      </resource>
   </entry>
   <entry>
      <fullUrl value="urn:uuid:2ef252e6-6437-4ed0-a287-40b702e94392"/>
      <resource>
         <Observation>
            <id value="2ef252e6-6437-4ed0-a287-40b702e94392"/>
            <meta>
               <profile value="http://hl7.eu/fhir/laboratory/StructureDefinition/Observation-resultslab-eu-lab"/>
            </meta>
            <text>
               <status value="generated"/>
               <div xmlns="http://www.w3.org/1999/xhtml">
                  <table class="hl7__eu__lab__report">
                     <tr>
                        <th>Test</th>
                        <th>16-Jul-2025</th>
                        <th>Reference Range</th>
                        <th>Unit</th>
                     </tr>
                     <tr>
                        <td>Creatinine [Mass/volume] in Blood</td>
                        <td>2.9</td>
                        <td>0.6 - 1.1</td>
                        <td>H</td>
                        <td>mg/dL</td>
                     </tr>
                  </table>
               </div>
            </text>
            <status value="final"/>
            <category>
               <coding>
                  <system value="http://terminology.hl7.org/CodeSystem/observation-category"/>
                  <code value="laboratory"/>
               </coding>
            </category>
            <code>
               <coding>
                  <system value="http://loinc.org"/>
                  <code value="38483-4"/>
                  <display value="Creatinine [Mass/volume] in Blood"/>
               </coding>
               <text value="Creatinine [Mass/volume] in Blood"/>
            </code>
            <subject>
               <reference value="urn:uuid:62480d3b-bc3e-44b2-b530-29d3c4027acb"/>
               <display value="Meaghan Neary"/>
            </subject>
            <effectiveDateTime value="2025-07-15T22:11:04Z"/>
            <performer>
               <display value="The Central European Lab"/>
            </performer>
            <valueQuantity>
               <value value="2.9"/>
               <unit value="mg/dL"/>
               <system value="http://unitsofmeasure.org"/>
               <code value="mg/dL"/>
            </valueQuantity>
            <interpretation>
               <coding>
                  <system value="http://terminology.hl7.org/CodeSystem/v3-ObservationInterpretation"/>
                  <code value="H"/>
                  <display value="High"/>
               </coding>
            </interpretation>
            <referenceRange>
               <low>
                  <value value="0.6"/>
                  <system value="http://unitsofmeasure.org"/>
                  <code value="mg/dL"/>
               </low>
            </referenceRange>
            <referenceRange>
               <high>
                  <value value="1.1"/>
                  <system value="http://unitsofmeasure.org"/>
                  <code value="mg/dL"/>
               </high>
            </referenceRange>
         </Observation>
      </resource>
   </entry>
   <entry>
      <fullUrl value="urn:uuid:02088bcc-80d5-4657-b7cd-f663d05c4bac"/>
      <resource>
         <Observation>
            <id value="02088bcc-80d5-4657-b7cd-f663d05c4bac"/>
            <meta>
               <profile value="http://hl7.eu/fhir/laboratory/StructureDefinition/Observation-resultslab-eu-lab"/>
            </meta>
            <text>
               <status value="generated"/>
               <div xmlns="http://www.w3.org/1999/xhtml">
                  <table class="hl7__eu__lab__report">
                     <tr>
                        <th>Test</th>
                        <th>16-Jul-2025</th>
                        <th>Reference Range</th>
                        <th>Unit</th>
                     </tr>
                     <tr>
                        <td>Calcium [Mass/volume] in Blood</td>
                        <td>9.8</td>
                        <td>8.5 - 10.5</td>
                        <td/>
                        <td>mg/dL</td>
                     </tr>
                  </table>
               </div>
            </text>
            <status value="final"/>
            <category>
               <coding>
                  <system value="http://terminology.hl7.org/CodeSystem/observation-category"/>
                  <code value="laboratory"/>
               </coding>
            </category>
            <code>
               <coding>
                  <system value="http://loinc.org"/>
                  <code value="49765-1"/>
                  <display value="Calcium [Mass/volume] in Blood"/>
               </coding>
               <text value="Calcium [Mass/volume] in Blood"/>
            </code>
            <subject>
               <reference value="urn:uuid:62480d3b-bc3e-44b2-b530-29d3c4027acb"/>
               <display value="Meaghan Neary"/>
            </subject>
            <effectiveDateTime value="2025-07-15T22:11:04Z"/>
            <performer>
               <display value="The Central European Lab"/>
            </performer>
            <valueQuantity>
               <value value="9.8"/>
               <unit value="mg/dL"/>
               <system value="http://unitsofmeasure.org"/>
               <code value="mg/dL"/>
            </valueQuantity>
            <referenceRange>
               <low>
                  <value value="8.5"/>
                  <system value="http://unitsofmeasure.org"/>
                  <code value="mg/dL"/>
               </low>
            </referenceRange>
            <referenceRange>
               <high>
                  <value value="10.5"/>
                  <system value="http://unitsofmeasure.org"/>
                  <code value="mg/dL"/>
               </high>
            </referenceRange>
         </Observation>
      </resource>
   </entry>
   <entry>
      <fullUrl value="urn:uuid:13c9572b-f0ff-47ef-bdb1-0af5a6c1d676"/>
      <resource>
         <Observation>
            <id value="13c9572b-f0ff-47ef-bdb1-0af5a6c1d676"/>
            <meta>
               <profile value="http://hl7.eu/fhir/laboratory/StructureDefinition/Observation-resultslab-eu-lab"/>
            </meta>
            <text>
               <status value="generated"/>
               <div xmlns="http://www.w3.org/1999/xhtml">
                  <table class="hl7__eu__lab__report">
                     <tr>
                        <th>Test</th>
                        <th>16-Jul-2025</th>
                        <th>Reference Range</th>
                        <th>Unit</th>
                     </tr>
                     <tr>
                        <td>Sodium [Moles/volume] in Blood</td>
                        <td>137.5</td>
                        <td>135 - 145</td>
                        <td/>
                        <td>mmol/L</td>
                     </tr>
                  </table>
               </div>
            </text>
            <status value="final"/>
            <category>
               <coding>
                  <system value="http://terminology.hl7.org/CodeSystem/observation-category"/>
                  <code value="laboratory"/>
               </coding>
            </category>
            <code>
               <coding>
                  <system value="http://loinc.org"/>
                  <code value="2947-0"/>
                  <display value="Sodium [Moles/volume] in Blood"/>
               </coding>
               <text value="Sodium [Moles/volume] in Blood"/>
            </code>
            <subject>
               <reference value="urn:uuid:62480d3b-bc3e-44b2-b530-29d3c4027acb"/>
               <display value="Meaghan Neary"/>
            </subject>
            <effectiveDateTime value="2025-07-15T22:11:04Z"/>
            <performer>
               <display value="The Central European Lab"/>
            </performer>
            <valueQuantity>
               <value value="137.5"/>
               <unit value="mmol/L"/>
               <system value="http://unitsofmeasure.org"/>
               <code value="mmol/L"/>
            </valueQuantity>
            <referenceRange>
               <low>
                  <value value="135"/>
                  <system value="http://unitsofmeasure.org"/>
                  <code value="mmol/L"/>
               </low>
            </referenceRange>
            <referenceRange>
               <high>
                  <value value="145"/>
                  <system value="http://unitsofmeasure.org"/>
                  <code value="mmol/L"/>
               </high>
            </referenceRange>
         </Observation>
      </resource>
   </entry>
   <entry>
      <fullUrl value="urn:uuid:4430985e-8124-454f-be77-368d95e2835d"/>
      <resource>
         <Observation>
            <id value="4430985e-8124-454f-be77-368d95e2835d"/>
            <meta>
               <profile value="http://hl7.eu/fhir/laboratory/StructureDefinition/Observation-resultslab-eu-lab"/>
            </meta>
            <text>
               <status value="generated"/>
               <div xmlns="http://www.w3.org/1999/xhtml">
                  <table class="hl7__eu__lab__report">
                     <tr>
                        <th>Test</th>
                        <th>16-Jul-2025</th>
                        <th>Reference Range</th>
                        <th>Unit</th>
                     </tr>
                     <tr>
                        <td>Potassium [Moles/volume] in Blood</td>
                        <td>4.6</td>
                        <td>3.5 - 5.1</td>
                        <td/>
                        <td>mmol/L</td>
                     </tr>
                  </table>
               </div>
            </text>
            <status value="final"/>
            <category>
               <coding>
                  <system value="http://terminology.hl7.org/CodeSystem/observation-category"/>
                  <code value="laboratory"/>
               </coding>
            </category>
            <code>
               <coding>
                  <system value="http://loinc.org"/>
                  <code value="6298-4"/>
                  <display value="Potassium [Moles/volume] in Blood"/>
               </coding>
               <text value="Potassium [Moles/volume] in Blood"/>
            </code>
            <subject>
               <reference value="urn:uuid:62480d3b-bc3e-44b2-b530-29d3c4027acb"/>
               <display value="Meaghan Neary"/>
            </subject>
            <effectiveDateTime value="2025-07-15T22:11:04Z"/>
            <performer>
               <display value="The Central European Lab"/>
            </performer>
            <valueQuantity>
               <value value="4.6"/>
               <unit value="mmol/L"/>
               <system value="http://unitsofmeasure.org"/>
               <code value="mmol/L"/>
            </valueQuantity>
            <referenceRange>
               <low>
                  <value value="3.5"/>
                  <system value="http://unitsofmeasure.org"/>
                  <code value="mmol/L"/>
               </low>
            </referenceRange>
            <referenceRange>
               <high>
                  <value value="5.1"/>
                  <system value="http://unitsofmeasure.org"/>
                  <code value="mmol/L"/>
               </high>
            </referenceRange>
         </Observation>
      </resource>
   </entry>
   <entry>
      <fullUrl value="urn:uuid:a92c2b35-53e2-46fb-9e9e-1c655a3d19c0"/>
      <resource>
         <Observation>
            <id value="a92c2b35-53e2-46fb-9e9e-1c655a3d19c0"/>
            <meta>
               <profile value="http://hl7.eu/fhir/laboratory/StructureDefinition/Observation-resultslab-eu-lab"/>
            </meta>
            <text>
               <status value="generated"/>
               <div xmlns="http://www.w3.org/1999/xhtml">
                  <table class="hl7__eu__lab__report">
                     <tr>
                        <th>Test</th>
                        <th>16-Jul-2025</th>
                        <th>Reference Range</th>
                        <th>Unit</th>
                     </tr>
                     <tr>
                        <td>Chloride [Moles/volume] in Blood</td>
                        <td>105.3</td>
                        <td>98 - 108</td>
                        <td/>
                        <td>mmol/L</td>
                     </tr>
                  </table>
               </div>
            </text>
            <status value="final"/>
            <category>
               <coding>
                  <system value="http://terminology.hl7.org/CodeSystem/observation-category"/>
                  <code value="laboratory"/>
               </coding>
            </category>
            <code>
               <coding>
                  <system value="http://loinc.org"/>
                  <code value="2069-3"/>
                  <display value="Chloride [Moles/volume] in Blood"/>
               </coding>
               <text value="Chloride [Moles/volume] in Blood"/>
            </code>
            <subject>
               <reference value="urn:uuid:62480d3b-bc3e-44b2-b530-29d3c4027acb"/>
               <display value="Meaghan Neary"/>
            </subject>
            <effectiveDateTime value="2025-07-15T22:11:04Z"/>
            <performer>
               <display value="The Central European Lab"/>
            </performer>
            <valueQuantity>
               <value value="105.3"/>
               <unit value="mmol/L"/>
               <system value="http://unitsofmeasure.org"/>
               <code value="mmol/L"/>
            </valueQuantity>
            <referenceRange>
               <low>
                  <value value="98"/>
                  <system value="http://unitsofmeasure.org"/>
                  <code value="mmol/L"/>
               </low>
            </referenceRange>
            <referenceRange>
               <high>
                  <value value="108"/>
                  <system value="http://unitsofmeasure.org"/>
                  <code value="mmol/L"/>
               </high>
            </referenceRange>
         </Observation>
      </resource>
   </entry>
   <entry>
      <fullUrl value="urn:uuid:f8d29d4f-290a-4258-9fdd-9c6291cf38df"/>
      <resource>
         <Observation>
            <id value="f8d29d4f-290a-4258-9fdd-9c6291cf38df"/>
            <meta>
               <profile value="http://hl7.eu/fhir/laboratory/StructureDefinition/Observation-resultslab-eu-lab"/>
            </meta>
            <text>
               <status value="generated"/>
               <div xmlns="http://www.w3.org/1999/xhtml">
                  <table class="hl7__eu__lab__report">
                     <tr>
                        <th>Test</th>
                        <th>16-Jul-2025</th>
                        <th>Reference Range</th>
                        <th>Unit</th>
                     </tr>
                     <tr>
                        <td>Carbon dioxide, total [Moles/volume] in Blood</td>
                        <td>25.3</td>
                        <td>22 - 29</td>
                        <td/>
                        <td>mmol/L</td>
                     </tr>
                  </table>
               </div>
            </text>
            <status value="final"/>
            <category>
               <coding>
                  <system value="http://terminology.hl7.org/CodeSystem/observation-category"/>
                  <code value="laboratory"/>
               </coding>
            </category>
            <code>
               <coding>
                  <system value="http://loinc.org"/>
                  <code value="20565-8"/>
                  <display value="Carbon dioxide, total [Moles/volume] in Blood"/>
               </coding>
               <text value="Carbon dioxide, total [Moles/volume] in Blood"/>
            </code>
            <subject>
               <reference value="urn:uuid:62480d3b-bc3e-44b2-b530-29d3c4027acb"/>
               <display value="Meaghan Neary"/>
            </subject>
            <effectiveDateTime value="2025-07-15T22:11:04Z"/>
            <performer>
               <display value="The Central European Lab"/>
            </performer>
            <valueQuantity>
               <value value="25.3"/>
               <unit value="mmol/L"/>
               <system value="http://unitsofmeasure.org"/>
               <code value="mmol/L"/>
            </valueQuantity>
            <referenceRange>
               <low>
                  <value value="22"/>
                  <system value="http://unitsofmeasure.org"/>
                  <code value="mmol/L"/>
               </low>
            </referenceRange>
            <referenceRange>
               <high>
                  <value value="29"/>
                  <system value="http://unitsofmeasure.org"/>
                  <code value="mmol/L"/>
               </high>
            </referenceRange>
         </Observation>
      </resource>
   </entry>
   <entry>
      <fullUrl value="urn:uuid:9dc369e2-a704-47e9-9d7b-5163e7a952a5"/>
      <resource>
         <Observation>
            <id value="9dc369e2-a704-47e9-9d7b-5163e7a952a5"/>
            <meta>
               <profile value="http://hl7.eu/fhir/laboratory/StructureDefinition/Observation-resultslab-eu-lab"/>
            </meta>
            <text>
               <status value="generated"/>
               <div xmlns="http://www.w3.org/1999/xhtml">
                  <table class="hl7__eu__lab__report">
                     <tr>
                        <th>Test</th>
                        <th>16-Jul-2025</th>
                        <th>Reference Range</th>
                        <th>Unit</th>
                     </tr>
                     <tr>
                        <td>Protein [Mass/volume] in Serum or Plasma</td>
                        <td>6.7</td>
                        <td>6 - 8.3</td>
                        <td/>
                        <td>g/dL</td>
                     </tr>
                  </table>
               </div>
            </text>
            <status value="final"/>
            <category>
               <coding>
                  <system value="http://terminology.hl7.org/CodeSystem/observation-category"/>
                  <code value="laboratory"/>
               </coding>
            </category>
            <code>
               <coding>
                  <system value="http://loinc.org"/>
                  <code value="2885-2"/>
                  <display value="Protein [Mass/volume] in Serum or Plasma"/>
               </coding>
               <text value="Protein [Mass/volume] in Serum or Plasma"/>
            </code>
            <subject>
               <reference value="urn:uuid:62480d3b-bc3e-44b2-b530-29d3c4027acb"/>
               <display value="Meaghan Neary"/>
            </subject>
            <effectiveDateTime value="2025-07-15T22:11:04Z"/>
            <performer>
               <display value="The Central European Lab"/>
            </performer>
            <valueQuantity>
               <value value="6.7"/>
               <unit value="g/dL"/>
               <system value="http://unitsofmeasure.org"/>
               <code value="g/dL"/>
            </valueQuantity>
            <referenceRange>
               <low>
                  <value value="6"/>
                  <system value="http://unitsofmeasure.org"/>
                  <code value="g/dL"/>
               </low>
            </referenceRange>
            <referenceRange>
               <high>
                  <value value="8.3"/>
                  <system value="http://unitsofmeasure.org"/>
                  <code value="g/dL"/>
               </high>
            </referenceRange>
         </Observation>
      </resource>
   </entry>
   <entry>
      <fullUrl value="urn:uuid:5016659a-1e30-4320-bdc2-59fe5abbbea3"/>
      <resource>
         <Observation>
            <id value="5016659a-1e30-4320-bdc2-59fe5abbbea3"/>
            <meta>
               <profile value="http://hl7.eu/fhir/laboratory/StructureDefinition/Observation-resultslab-eu-lab"/>
            </meta>
            <text>
               <status value="generated"/>
               <div xmlns="http://www.w3.org/1999/xhtml">
                  <table class="hl7__eu__lab__report">
                     <tr>
                        <th>Test</th>
                        <th>16-Jul-2025</th>
                        <th>Reference Range</th>
                        <th>Unit</th>
                     </tr>
                     <tr>
                        <td>Albumin [Mass/volume] in Serum or Plasma</td>
                        <td>5.2</td>
                        <td>3.5 - 5.5</td>
                        <td/>
                        <td>g/dL</td>
                     </tr>
                  </table>
               </div>
            </text>
            <status value="final"/>
            <category>
               <coding>
                  <system value="http://terminology.hl7.org/CodeSystem/observation-category"/>
                  <code value="laboratory"/>
               </coding>
            </category>
            <code>
               <coding>
                  <system value="http://loinc.org"/>
                  <code value="1751-7"/>
                  <display value="Albumin [Mass/volume] in Serum or Plasma"/>
               </coding>
               <text value="Albumin [Mass/volume] in Serum or Plasma"/>
            </code>
            <subject>
               <reference value="urn:uuid:62480d3b-bc3e-44b2-b530-29d3c4027acb"/>
               <display value="Meaghan Neary"/>
            </subject>
            <effectiveDateTime value="2025-07-15T22:11:04Z"/>
            <performer>
               <display value="The Central European Lab"/>
            </performer>
            <valueQuantity>
               <value value="5.2"/>
               <unit value="g/dL"/>
               <system value="http://unitsofmeasure.org"/>
               <code value="g/dL"/>
            </valueQuantity>
            <referenceRange>
               <low>
                  <value value="3.5"/>
                  <system value="http://unitsofmeasure.org"/>
                  <code value="g/dL"/>
               </low>
            </referenceRange>
            <referenceRange>
               <high>
                  <value value="5.5"/>
                  <system value="http://unitsofmeasure.org"/>
                  <code value="g/dL"/>
               </high>
            </referenceRange>
         </Observation>
      </resource>
   </entry>
   <entry>
      <fullUrl value="urn:uuid:3506b0dc-269e-41f6-a566-c21812b2c1d6"/>
      <resource>
         <Observation>
            <id value="3506b0dc-269e-41f6-a566-c21812b2c1d6"/>
            <meta>
               <profile value="http://hl7.eu/fhir/laboratory/StructureDefinition/Observation-resultslab-eu-lab"/>
            </meta>
            <text>
               <status value="generated"/>
               <div xmlns="http://www.w3.org/1999/xhtml">
                  <table class="hl7__eu__lab__report">
                     <tr>
                        <th>Test</th>
                        <th>16-Jul-2025</th>
                        <th>Reference Range</th>
                        <th>Unit</th>
                     </tr>
                     <tr>
                        <td>Globulin [Mass/volume] in Serum by calculation</td>
                        <td>3.2</td>
                        <td>2 - 3.5</td>
                        <td/>
                        <td>g/L</td>
                     </tr>
                  </table>
               </div>
            </text>
            <status value="final"/>
            <category>
               <coding>
                  <system value="http://terminology.hl7.org/CodeSystem/observation-category"/>
                  <code value="laboratory"/>
               </coding>
            </category>
            <code>
               <coding>
                  <system value="http://loinc.org"/>
                  <code value="10834-0"/>
                  <display value="Globulin [Mass/volume] in Serum by calculation"/>
               </coding>
               <text value="Globulin [Mass/volume] in Serum by calculation"/>
            </code>
            <subject>
               <reference value="urn:uuid:62480d3b-bc3e-44b2-b530-29d3c4027acb"/>
               <display value="Meaghan Neary"/>
            </subject>
            <effectiveDateTime value="2025-07-15T22:11:04Z"/>
            <performer>
               <display value="The Central European Lab"/>
            </performer>
            <valueQuantity>
               <value value="3.2"/>
               <unit value="g/L"/>
               <system value="http://unitsofmeasure.org"/>
               <code value="g/L"/>
            </valueQuantity>
            <referenceRange>
               <low>
                  <value value="2"/>
                  <system value="http://unitsofmeasure.org"/>
                  <code value="g/L"/>
               </low>
            </referenceRange>
            <referenceRange>
               <high>
                  <value value="3.5"/>
                  <system value="http://unitsofmeasure.org"/>
                  <code value="g/L"/>
               </high>
            </referenceRange>
         </Observation>
      </resource>
   </entry>
   <entry>
      <fullUrl value="urn:uuid:fbdd6c19-6840-425f-9df4-d4828f31fe52"/>
      <resource>
         <Observation>
            <id value="fbdd6c19-6840-425f-9df4-d4828f31fe52"/>
            <meta>
               <profile value="http://hl7.eu/fhir/laboratory/StructureDefinition/Observation-resultslab-eu-lab"/>
            </meta>
            <text>
               <status value="generated"/>
               <div xmlns="http://www.w3.org/1999/xhtml">
                  <table class="hl7__eu__lab__report">
                     <tr>
                        <th>Test</th>
                        <th>16-Jul-2025</th>
                        <th>Reference Range</th>
                        <th>Unit</th>
                     </tr>
                     <tr>
                        <td>Bilirubin.total [Mass/volume] in Serum or Plasma</td>
                        <td>0.1</td>
                        <td>0.3 - 1.2</td>
                        <td>L</td>
                        <td>mg/dL</td>
                     </tr>
                  </table>
               </div>
            </text>
            <status value="final"/>
            <category>
               <coding>
                  <system value="http://terminology.hl7.org/CodeSystem/observation-category"/>
                  <code value="laboratory"/>
               </coding>
            </category>
            <code>
               <coding>
                  <system value="http://loinc.org"/>
                  <code value="1975-2"/>
                  <display value="Bilirubin.total [Mass/volume] in Serum or Plasma"/>
               </coding>
               <text value="Bilirubin.total [Mass/volume] in Serum or Plasma"/>
            </code>
            <subject>
               <reference value="urn:uuid:62480d3b-bc3e-44b2-b530-29d3c4027acb"/>
               <display value="Meaghan Neary"/>
            </subject>
            <effectiveDateTime value="2025-07-15T22:11:04Z"/>
            <performer>
               <display value="The Central European Lab"/>
            </performer>
            <valueQuantity>
               <value value="0.1"/>
               <unit value="mg/dL"/>
               <system value="http://unitsofmeasure.org"/>
               <code value="mg/dL"/>
            </valueQuantity>
            <interpretation>
               <coding>
                  <system value="http://terminology.hl7.org/CodeSystem/v3-ObservationInterpretation"/>
                  <code value="L"/>
                  <display value="Low"/>
               </coding>
            </interpretation>
            <referenceRange>
               <low>
                  <value value="0.3"/>
                  <system value="http://unitsofmeasure.org"/>
                  <code value="mg/dL"/>
               </low>
            </referenceRange>
            <referenceRange>
               <high>
                  <value value="1.2"/>
                  <system value="http://unitsofmeasure.org"/>
                  <code value="mg/dL"/>
               </high>
            </referenceRange>
         </Observation>
      </resource>
   </entry>
   <entry>
      <fullUrl value="urn:uuid:3e7408ee-8fb6-463d-ba6e-e37aedaf4020"/>
      <resource>
         <Observation>
            <id value="3e7408ee-8fb6-463d-ba6e-e37aedaf4020"/>
            <meta>
               <profile value="http://hl7.eu/fhir/laboratory/StructureDefinition/Observation-resultslab-eu-lab"/>
            </meta>
            <text>
               <status value="generated"/>
               <div xmlns="http://www.w3.org/1999/xhtml">
                  <table class="hl7__eu__lab__report">
                     <tr>
                        <th>Test</th>
                        <th>16-Jul-2025</th>
                        <th>Reference Range</th>
                        <th>Unit</th>
                     </tr>
                     <tr>
                        <td>Alkaline phosphatase [Enzymatic activity/volume] in Serum or Plasma</td>
                        <td>80.2</td>
                        <td>44 - 130</td>
                        <td/>
                        <td>U/L</td>
                     </tr>
                  </table>
               </div>
            </text>
            <status value="final"/>
            <category>
               <coding>
                  <system value="http://terminology.hl7.org/CodeSystem/observation-category"/>
                  <code value="laboratory"/>
               </coding>
            </category>
            <code>
               <coding>
                  <system value="http://loinc.org"/>
                  <code value="6768-6"/>
                  <display value="Alkaline phosphatase [Enzymatic activity/volume] in Serum or Plasma"/>
               </coding>
               <text value="Alkaline phosphatase [Enzymatic activity/volume] in Serum or Plasma"/>
            </code>
            <subject>
               <reference value="urn:uuid:62480d3b-bc3e-44b2-b530-29d3c4027acb"/>
               <display value="Meaghan Neary"/>
            </subject>
            <effectiveDateTime value="2025-07-15T22:11:04Z"/>
            <performer>
               <display value="The Central European Lab"/>
            </performer>
            <valueQuantity>
               <value value="80.2"/>
               <unit value="U/L"/>
               <system value="http://unitsofmeasure.org"/>
               <code value="U/L"/>
            </valueQuantity>
            <referenceRange>
               <low>
                  <value value="44"/>
                  <system value="http://unitsofmeasure.org"/>
                  <code value="U/L"/>
               </low>
            </referenceRange>
            <referenceRange>
               <high>
                  <value value="130"/>
                  <system value="http://unitsofmeasure.org"/>
                  <code value="U/L"/>
               </high>
            </referenceRange>
         </Observation>
      </resource>
   </entry>
   <entry>
      <fullUrl value="urn:uuid:4f1d9078-98f2-4dfd-8b98-e5269c1e531a"/>
      <resource>
         <Observation>
            <id value="4f1d9078-98f2-4dfd-8b98-e5269c1e531a"/>
            <meta>
               <profile value="http://hl7.eu/fhir/laboratory/StructureDefinition/Observation-resultslab-eu-lab"/>
            </meta>
            <text>
               <status value="generated"/>
               <div xmlns="http://www.w3.org/1999/xhtml">
                  <table class="hl7__eu__lab__report">
                     <tr>
                        <th>Test</th>
                        <th>16-Jul-2025</th>
                        <th>Reference Range</th>
                        <th>Unit</th>
                     </tr>
                     <tr>
                        <td>Alanine aminotransferase [Enzymatic activity/volume] in Serum or Plasma</td>
                        <td>53.4</td>
                        <td>0 - 55</td>
                        <td/>
                        <td>U/L</td>
                     </tr>
                  </table>
               </div>
            </text>
            <status value="final"/>
            <category>
               <coding>
                  <system value="http://terminology.hl7.org/CodeSystem/observation-category"/>
                  <code value="laboratory"/>
               </coding>
            </category>
            <code>
               <coding>
                  <system value="http://loinc.org"/>
                  <code value="1742-6"/>
                  <display value="Alanine aminotransferase [Enzymatic activity/volume] in Serum or Plasma"/>
               </coding>
               <text value="Alanine aminotransferase [Enzymatic activity/volume] in Serum or Plasma"/>
            </code>
            <subject>
               <reference value="urn:uuid:62480d3b-bc3e-44b2-b530-29d3c4027acb"/>
               <display value="Meaghan Neary"/>
            </subject>
            <effectiveDateTime value="2025-07-15T22:11:04Z"/>
            <performer>
               <display value="The Central European Lab"/>
            </performer>
            <valueQuantity>
               <value value="53.4"/>
               <unit value="U/L"/>
               <system value="http://unitsofmeasure.org"/>
               <code value="U/L"/>
            </valueQuantity>
            <referenceRange>
               <low>
                  <value value="0"/>
                  <system value="http://unitsofmeasure.org"/>
                  <code value="U/L"/>
               </low>
            </referenceRange>
            <referenceRange>
               <high>
                  <value value="55"/>
                  <system value="http://unitsofmeasure.org"/>
                  <code value="U/L"/>
               </high>
            </referenceRange>
         </Observation>
      </resource>
   </entry>
   <entry>
      <fullUrl value="urn:uuid:b855fca9-702d-463c-94bd-6b9c0b0c2b31"/>
      <resource>
         <Observation>
            <id value="b855fca9-702d-463c-94bd-6b9c0b0c2b31"/>
            <meta>
               <profile value="http://hl7.eu/fhir/laboratory/StructureDefinition/Observation-resultslab-eu-lab"/>
            </meta>
            <text>
               <status value="generated"/>
               <div xmlns="http://www.w3.org/1999/xhtml">
                  <table class="hl7__eu__lab__report">
                     <tr>
                        <th>Test</th>
                        <th>16-Jul-2025</th>
                        <th>Reference Range</th>
                        <th>Unit</th>
                     </tr>
                     <tr>
                        <td>Aspartate aminotransferase [Enzymatic activity/volume] in Serum or Plasma</td>
                        <td>10.6</td>
                        <td>10 - 40</td>
                        <td/>
                        <td>U/L</td>
                     </tr>
                  </table>
               </div>
            </text>
            <status value="final"/>
            <category>
               <coding>
                  <system value="http://terminology.hl7.org/CodeSystem/observation-category"/>
                  <code value="laboratory"/>
               </coding>
            </category>
            <code>
               <coding>
                  <system value="http://loinc.org"/>
                  <code value="1920-8"/>
                  <display value="Aspartate aminotransferase [Enzymatic activity/volume] in Serum or Plasma"/>
               </coding>
               <text value="Aspartate aminotransferase [Enzymatic activity/volume] in Serum or Plasma"/>
            </code>
            <subject>
               <reference value="urn:uuid:62480d3b-bc3e-44b2-b530-29d3c4027acb"/>
               <display value="Meaghan Neary"/>
            </subject>
            <effectiveDateTime value="2025-07-15T22:11:04Z"/>
            <performer>
               <display value="The Central European Lab"/>
            </performer>
            <valueQuantity>
               <value value="10.6"/>
               <unit value="U/L"/>
               <system value="http://unitsofmeasure.org"/>
               <code value="U/L"/>
            </valueQuantity>
            <referenceRange>
               <low>
                  <value value="10"/>
                  <system value="http://unitsofmeasure.org"/>
                  <code value="U/L"/>
               </low>
            </referenceRange>
            <referenceRange>
               <high>
                  <value value="40"/>
                  <system value="http://unitsofmeasure.org"/>
                  <code value="U/L"/>
               </high>
            </referenceRange>
         </Observation>
      </resource>
   </entry>
   <entry>
      <fullUrl value="urn:uuid:8aa94eb0-e771-49a9-b0a9-e67d87048b48"/>
      <resource>
         <Observation>
            <id value="8aa94eb0-e771-49a9-b0a9-e67d87048b48"/>
            <meta>
               <profile value="http://hl7.eu/fhir/laboratory/StructureDefinition/Observation-resultslab-eu-lab"/>
            </meta>
            <text>
               <status value="generated"/>
               <div xmlns="http://www.w3.org/1999/xhtml">
                  <table class="hl7__eu__lab__report">
                     <tr>
                        <th>Test</th>
                        <th>16-Jul-2025</th>
                        <th>Reference Range</th>
                        <th>Unit</th>
                     </tr>
                     <tr>
                        <td>Cholesterol [Mass/volume] in Serum or Plasma</td>
                        <td>199.1</td>
                        <td>125 - 239</td>
                        <td/>
                        <td>mg/dL</td>
                     </tr>
                  </table>
               </div>
            </text>
            <status value="final"/>
            <category>
               <coding>
                  <system value="http://terminology.hl7.org/CodeSystem/observation-category"/>
                  <code value="laboratory"/>
               </coding>
            </category>
            <code>
               <coding>
                  <system value="http://loinc.org"/>
                  <code value="2093-3"/>
                  <display value="Cholesterol [Mass/volume] in Serum or Plasma"/>
               </coding>
               <text value="Cholesterol [Mass/volume] in Serum or Plasma"/>
            </code>
            <subject>
               <reference value="urn:uuid:62480d3b-bc3e-44b2-b530-29d3c4027acb"/>
               <display value="Meaghan Neary"/>
            </subject>
            <effectiveDateTime value="2025-07-15T22:11:04Z"/>
            <performer>
               <display value="The Central European Lab"/>
            </performer>
            <valueQuantity>
               <value value="199.1"/>
               <unit value="mg/dL"/>
               <system value="http://unitsofmeasure.org"/>
               <code value="mg/dL"/>
            </valueQuantity>
            <referenceRange>
               <low>
                  <value value="125"/>
                  <system value="http://unitsofmeasure.org"/>
                  <code value="mg/dL"/>
               </low>
            </referenceRange>
            <referenceRange>
               <high>
                  <value value="239"/>
                  <system value="http://unitsofmeasure.org"/>
                  <code value="mg/dL"/>
               </high>
            </referenceRange>
         </Observation>
      </resource>
   </entry>
   <entry>
      <fullUrl value="urn:uuid:37cb845d-7b5f-493b-a09a-04f2b423c8c5"/>
      <resource>
         <Observation>
            <id value="37cb845d-7b5f-493b-a09a-04f2b423c8c5"/>
            <meta>
               <profile value="http://hl7.eu/fhir/laboratory/StructureDefinition/Observation-resultslab-eu-lab"/>
            </meta>
            <text>
               <status value="generated"/>
               <div xmlns="http://www.w3.org/1999/xhtml">
                  <table class="hl7__eu__lab__report">
                     <tr>
                        <th>Test</th>
                        <th>16-Jul-2025</th>
                        <th>Reference Range</th>
                        <th>Unit</th>
                     </tr>
                     <tr>
                        <td>Triglyceride [Mass/volume] in Serum or Plasma</td>
                        <td>113.4</td>
                        <td>mg/dL</td>
                     </tr>
                  </table>
               </div>
            </text>
            <status value="final"/>
            <category>
               <coding>
                  <system value="http://terminology.hl7.org/CodeSystem/observation-category"/>
                  <code value="laboratory"/>
               </coding>
            </category>
            <code>
               <coding>
                  <system value="http://loinc.org"/>
                  <code value="2571-8"/>
                  <display value="Triglyceride [Mass/volume] in Serum or Plasma"/>
               </coding>
               <text value="Triglyceride [Mass/volume] in Serum or Plasma"/>
            </code>
            <subject>
               <reference value="urn:uuid:62480d3b-bc3e-44b2-b530-29d3c4027acb"/>
               <display value="Meaghan Neary"/>
            </subject>
            <effectiveDateTime value="2025-07-15T22:11:04Z"/>
            <performer>
               <display value="The Central European Lab"/>
            </performer>
            <valueQuantity>
               <value value="113.4"/>
               <unit value="mg/dL"/>
               <system value="http://unitsofmeasure.org"/>
               <code value="mg/dL"/>
            </valueQuantity>
         </Observation>
      </resource>
   </entry>
   <entry>
      <fullUrl value="urn:uuid:8830ea51-77f3-43e7-9673-b740bdcbb509"/>
      <resource>
         <Observation>
            <id value="8830ea51-77f3-43e7-9673-b740bdcbb509"/>
            <meta>
               <profile value="http://hl7.eu/fhir/laboratory/StructureDefinition/Observation-resultslab-eu-lab"/>
            </meta>
            <text>
               <status value="generated"/>
               <div xmlns="http://www.w3.org/1999/xhtml">
                  <table class="hl7__eu__lab__report">
                     <tr>
                        <th>Test</th>
                        <th>16-Jul-2025</th>
                        <th>Reference Range</th>
                        <th>Unit</th>
                     </tr>
                     <tr>
                        <td>Cholesterol in LDL [Mass/volume] in Serum or Plasma by Direct assay</td>
                        <td>142.4</td>
                        <td>0 - 130</td>
                        <td>H</td>
                        <td>mg/dL</td>
                     </tr>
                  </table>
               </div>
            </text>
            <status value="final"/>
            <category>
               <coding>
                  <system value="http://terminology.hl7.org/CodeSystem/observation-category"/>
                  <code value="laboratory"/>
               </coding>
            </category>
            <code>
               <coding>
                  <system value="http://loinc.org"/>
                  <code value="18262-6"/>
                  <display value="Cholesterol in LDL [Mass/volume] in Serum or Plasma by Direct assay"/>
               </coding>
               <text value="Cholesterol in LDL [Mass/volume] in Serum or Plasma by Direct assay"/>
            </code>
            <subject>
               <reference value="urn:uuid:62480d3b-bc3e-44b2-b530-29d3c4027acb"/>
               <display value="Meaghan Neary"/>
            </subject>
            <effectiveDateTime value="2025-07-15T22:11:04Z"/>
            <performer>
               <display value="The Central European Lab"/>
            </performer>
            <valueQuantity>
               <value value="142.4"/>
               <unit value="mg/dL"/>
               <system value="http://unitsofmeasure.org"/>
               <code value="mg/dL"/>
            </valueQuantity>
            <interpretation>
               <coding>
                  <system value="http://terminology.hl7.org/CodeSystem/v3-ObservationInterpretation"/>
                  <code value="H"/>
                  <display value="High"/>
               </coding>
            </interpretation>
            <referenceRange>
               <low>
                  <value value="0"/>
                  <system value="http://unitsofmeasure.org"/>
                  <code value="mg/dL"/>
               </low>
            </referenceRange>
            <referenceRange>
               <high>
                  <value value="130"/>
                  <system value="http://unitsofmeasure.org"/>
                  <code value="mg/dL"/>
               </high>
            </referenceRange>
         </Observation>
      </resource>
   </entry>
   <entry>
      <fullUrl value="urn:uuid:4cd1af7e-8d83-4790-b69a-3a5b75bde724"/>
      <resource>
         <Observation>
            <id value="4cd1af7e-8d83-4790-b69a-3a5b75bde724"/>
            <meta>
               <profile value="http://hl7.eu/fhir/laboratory/StructureDefinition/Observation-resultslab-eu-lab"/>
            </meta>
            <text>
               <status value="generated"/>
               <div xmlns="http://www.w3.org/1999/xhtml">
                  <table class="hl7__eu__lab__report">
                     <tr>
                        <th>Test</th>
                        <th>16-Jul-2025</th>
                        <th>Reference Range</th>
                        <th>Unit</th>
                     </tr>
                     <tr>
                        <td>Cholesterol in HDL [Mass/volume] in Serum or Plasma</td>
                        <td>74.2</td>
                        <td>50 - 100</td>
                        <td/>
                        <td>mg/dL</td>
                     </tr>
                  </table>
               </div>
            </text>
            <status value="final"/>
            <category>
               <coding>
                  <system value="http://terminology.hl7.org/CodeSystem/observation-category"/>
                  <code value="laboratory"/>
               </coding>
            </category>
            <code>
               <coding>
                  <system value="http://loinc.org"/>
                  <code value="2085-9"/>
                  <display value="Cholesterol in HDL [Mass/volume] in Serum or Plasma"/>
               </coding>
               <text value="Cholesterol in HDL [Mass/volume] in Serum or Plasma"/>
            </code>
            <subject>
               <reference value="urn:uuid:62480d3b-bc3e-44b2-b530-29d3c4027acb"/>
               <display value="Meaghan Neary"/>
            </subject>
            <effectiveDateTime value="2025-07-15T22:11:04Z"/>
            <performer>
               <display value="The Central European Lab"/>
            </performer>
            <valueQuantity>
               <value value="74.2"/>
               <unit value="mg/dL"/>
               <system value="http://unitsofmeasure.org"/>
               <code value="mg/dL"/>
            </valueQuantity>
            <referenceRange>
               <low>
                  <value value="50"/>
                  <system value="http://unitsofmeasure.org"/>
                  <code value="mg/dL"/>
               </low>
            </referenceRange>
            <referenceRange>
               <high>
                  <value value="100"/>
                  <system value="http://unitsofmeasure.org"/>
                  <code value="mg/dL"/>
               </high>
            </referenceRange>
         </Observation>
      </resource>
   </entry>
   <entry>
      <fullUrl value="urn:uuid:99865356-3147-4c79-8fbf-7f7488bc81de"/>
      <resource>
         <DeviceUseStatement>
            <id value="99865356-3147-4c79-8fbf-7f7488bc81de"/>
            <meta>
               <profile value="http://hl7.eu/fhir/eps/StructureDefinition/deviceUseStatement-eu-eps"/>
            </meta>
            <text>
               <status value="generated"/>
               <div xmlns="http://www.w3.org/1999/xhtml">
                  <table class="hl7__ips">
                     <tr>
                        <td>Blood glucose meter (physical object)</td>
                        <td>
                           <span class="nb">09-May-1994</span>
                        </td>
                     </tr>
                  </table>
               </div>
            </text>
            <status value="active"/>
            <subject>
               <reference value="urn:uuid:62480d3b-bc3e-44b2-b530-29d3c4027acb"/>
               <display value="Meaghan Neary"/>
            </subject>
            <timingPeriod>
               <start value="1994-05-09"/>
            </timingPeriod>
            <device>
               <reference value="urn:uuid:95f88dbc-f11a-4585-99b6-af83fc03b649"/>
               <display value="Blood glucose meter (physical object)"/>
            </device>
         </DeviceUseStatement>
      </resource>
   </entry>
   <entry>
      <fullUrl value="urn:uuid:95f88dbc-f11a-4585-99b6-af83fc03b649"/>
      <resource>
         <Device>
            <id value="95f88dbc-f11a-4585-99b6-af83fc03b649"/>
            <meta>
               <profile value="http://hl7.eu/fhir/eps/StructureDefinition/device-eu-eps"/>
            </meta>
            <udiCarrier id="(01)85449348988650(11)940419(17)190504(10)235887680234(21)8357"/>
            <status value="active"/>
            <type>
               <coding>
                  <system value="http://snomed.info/sct"/>
                  <code value="337414009"/>
                  <display value="Blood glucose meter (physical object)"/>
               </coding>
            </type>
            <patient>
               <reference value="urn:uuid:62480d3b-bc3e-44b2-b530-29d3c4027acb"/>
               <display value="Meaghan Neary"/>
            </patient>
         </Device>
      </resource>
   </entry>
   <entry>
      <fullUrl value="urn:uuid:e1e167ce-0769-4e4e-85b4-3f8d55541214"/>
      <resource>
         <Device>
            <id value="e1e167ce-0769-4e4e-85b4-3f8d55541214"/>
            <text>
               <status value="generated"/>
               <div xmlns="http://www.w3.org/1999/xhtml">SYNDERAI Synthetic Generator v5.0</div>
            </text>
            <status value="active&#34;"/>
            <distinctIdentifier value="synderai-generator-50"/>
            <manufacturer value="SYNDERAI Project"/>
            <deviceName>
               <name value="SYNDERAI Synthetic Generator"/>
               <type value="manufacturer-name"/>
            </deviceName>
            <version>
               <value value="5.0"/>
            </version>
         </Device>
      </resource>
   </entry>
   <entry>
      <fullUrl value="urn:uuid:409e480d-696a-4f1d-8279-8827d85e56cd"/>
      <resource>
         <Provenance>
            <id value="409e480d-696a-4f1d-8279-8827d85e56cd"/>
            <text>
               <status value="generated"/>
               <div xmlns="http://www.w3.org/1999/xhtml">Provenance for SYNDERAI Synthetic Example Data Resource</div>
            </text>
            <target>
               <reference value="Patient/62480d3b-bc3e-44b2-b530-29d3c4027acb"/>
            </target>
            <target>
               <reference value="Bundle/9f427350-800e-4665-b479-54c3dc978dbd"/>
            </target>
            <target>
               <reference value="Composition/f54ed6ec-b66f-4a19-a457-7dc41db27d52"/>
            </target>
            <target>
               <reference value="PractitionerRole/8c473960-0099-46ab-a4e1-71bb0fc52514"/>
            </target>
            <target>
               <reference value="Organization/62088d92-b336-44eb-b1dc-a30b8080d6e6"/>
            </target>
            <target>
               <reference value="Practitioner/4777f485-22c6-469a-b68d-07ac062b9878"/>
            </target>
            <recorded value="2025-07-15T22:11:04Z"/>
            <policy value="https://synderai.net/synderai-synthetic-data-policy"/>
            <reason>
               <text value="Interoperability Testing and Training (non-clinical use)"/>
            </reason>
            <activity>
               <text value="Synthetic Example Data Generation"/>
            </activity>
            <agent>
               <type>
                  <text value="author"/>
               </type>
               <who>
                  <reference value="Device/e1e167ce-0769-4e4e-85b4-3f8d55541214"/>
               </who>
            </agent>
         </Provenance>
      </resource>
   </entry>
</Bundle>