{
  "resourceType": "Bundle",
  "id": "a937ad37-5374-480a-a751-90400104f3bf",
  "meta": {
    "profile": [
      "http://hl7.eu/fhir/eps/StructureDefinition/bundle-eu-eps"
    ]
  },
  "identifier": {
    "assigner": {
      "display": "HL7 Europe"
    },
    "system": "urn:oid:2.16.840.1.113883.2.51.999",
    "value": "d3fdea6f-108b-418c-9f85-fc295748e12b"
  },
  "entry": [
    {
      "fullUrl": "urn:uuid:c49ec868-0669-4f14-b456-a6fd1be7881c",
      "resource": {
        "resourceType": "Composition",
        "id": "c49ec868-0669-4f14-b456-a6fd1be7881c",
        "meta": {
          "security": [
            {
              "system": "http://terminology.hl7.org/CodeSystem/v3-ActReason",
              "code": "HTEST"
            },
            {
              "system": "http://terminology.hl7.org/CodeSystem/v3-ActReason",
              "code": "TRAIN"
            }
          ],
          "tag": [
            {
              "system": "https://synderai.net/fhir/CodeSystem/tags",
              "code": "synthetic",
              "display": "SYNDERAI Synthetic data"
            }
          ],
          "profile": [
            "http://hl7.eu/fhir/eps/StructureDefinition/composition-eu-eps"
          ]
        },
        "identifier": {
          "assigner": {
            "display": "HL7 Europe"
          },
          "system": "urn:oid:2.16.840.1.113883.2.51.999",
          "value": "c7f87a60-c490-42af-a9c9-ea4653f5ff39"
        },
        "type": {
          "coding": [
            {
              "system": "http://loinc.org",
              "code": "60591-5",
              "display": "Patient summary Document"
            }
          ],
          "text": "Patient summary Document"
        },
        "author": [
          {
            "reference": "urn:uuid:b1110358-d226-46af-897d-f00d69727735"
          }
        ],
        "section": [
          {
            "text": {
              "status": "generated",
              "div": "<div xmlns=\"http://www.w3.org/1999/xhtml\"><table class=\"hl7__ips\"><tr><th>Condition</th><th>Onset Date</th><th>Status</th></tr><tr><td>Metabolic syndrome X</td><td><span class=\"nb\">10-Dec-2019</span></td><td>active</td></tr><tr><td>Prediabetes</td><td><span class=\"nb\">30-Oct-2012</span></td><td>active</td></tr><tr><td>Essential hypertension</td><td><span class=\"nb\">02-Oct-2007</span></td><td>active</td></tr></table></div>"
            },
            "entry": [
              {
                "reference": "urn:uuid:67185ffc-d7d1-47ff-a5c7-18799c78e164"
              },
              {
                "reference": "urn:uuid:228469aa-2949-49dc-907d-c287b71773f8"
              },
              {
                "reference": "urn:uuid:6b29e003-0f86-4240-8f2c-179376d65387"
              }
            ],
            "code": {
              "coding": [
                {
                  "system": "http://loinc.org",
                  "code": "11450-4",
                  "display": "Problem list - Reported"
                }
              ]
            },
            "title": "Problem list"
          },
          {
            "text": {
              "status": "generated",
              "div": "<div xmlns=\"http://www.w3.org/1999/xhtml\"><table class=\"hl7__ips\"><tr><th>Medication</th><th>Since</th><th>Form</th><th>Dosage</th><th>Reason</th></tr><tr><td>Lisinopril 10 mg oral tablet</td><td><span class=\"nb\">2025-01-07</span></td><td>-</td><td>1 tablet (10 mg) by mouth once daily</td><td>Essential hypertension (disorder)</td></tr></table></div>"
            },
            "entry": [
              {
                "reference": "urn:uuid:b92bf60f-d86f-471a-984b-57f940a71395"
              }
            ],
            "code": {
              "coding": [
                {
                  "system": "http://loinc.org",
                  "code": "10160-0",
                  "display": "History of Medication use Narrative"
                }
              ]
            },
            "title": "Medication list"
          },
          {
            "text": {
              "status": "generated",
              "div": "<div xmlns=\"http://www.w3.org/1999/xhtml\"><table class=\"hl7__ips\"><tr><th>Vaccine</th><th>Date</th></tr><tr><td>Influenza virus antigen only vaccine product</td><td><span class=\"nb\">07-Jan-2025</span></td></tr><tr><td>Clostridium tetani toxoid antigen adsorbed only vaccine product</td><td><span class=\"nb\">21-Dec-2021</span></td></tr><tr><td>Live attenuated Human alphaherpesvirus 3 only vaccine product</td><td><span class=\"nb\">21-Dec-2021</span></td></tr><tr><td>SARS-CoV-2 mRNA vaccine</td><td><span class=\"nb\">27-Apr-2021</span></td></tr></table></div>"
            },
            "entry": [
              {
                "reference": "urn:uuid:2344e317-e22f-4c1e-8f44-73280ef0e7ef"
              },
              {
                "reference": "urn:uuid:adfba1d9-7ba8-4ed4-9785-c15d1760bed8"
              },
              {
                "reference": "urn:uuid:eb54e157-b108-4a85-88b4-c1f713ad569e"
              },
              {
                "reference": "urn:uuid:585699ec-4f04-4038-a368-276328700c2c"
              }
            ],
            "code": {
              "coding": [
                {
                  "system": "http://loinc.org",
                  "code": "11369-6",
                  "display": "History of Immunization note"
                }
              ]
            },
            "title": "Immunizations list"
          },
          {
            "text": {
              "status": "generated",
              "div": "<div xmlns=\"http://www.w3.org/1999/xhtml\"><table class=\"hl7__ips\"><tr><th>Procedure</th><th>Date</th><th>Reason</th></tr><tr><td>Radiography of ankle</td><td><span class=\"nb\">22-Jun-2019</span></td><td>-</td></tr><tr><td>Bone immobilization</td><td><span class=\"nb\">22-Jun-2019</span></td><td>Fracture of ankle</td></tr><tr><td>Medication reconciliation</td><td><span class=\"nb\">17-Oct-2017</span></td><td>-</td></tr><tr><td>Assessment of health and social care needs</td><td><span class=\"nb\">17-Oct-2017</span></td><td>-</td></tr><tr><td>Assessment of anxiety</td><td><span class=\"nb\">17-Oct-2017</span></td><td>-</td></tr><tr><td>Screening for drug abuse</td><td><span class=\"nb\">17-Oct-2017</span></td><td>-</td></tr><tr><td>Assessment of substance use</td><td><span class=\"nb\">17-Oct-2017</span></td><td>-</td></tr></table></div>"
            },
            "entry": [
              {
                "reference": "urn:uuid:d5858c0e-adae-4326-a638-7d876190014c"
              },
              {
                "reference": "urn:uuid:4f73ac41-e947-4fcb-badd-c18a7c5cb4ae"
              },
              {
                "reference": "urn:uuid:96eeb964-9937-45f5-ade9-2aa4e07f2166"
              },
              {
                "reference": "urn:uuid:29f4ab28-d7ff-4812-9ad2-760db769445c"
              },
              {
                "reference": "urn:uuid:e23dc117-2d2b-4e1d-97e6-ea73c86f0082"
              },
              {
                "reference": "urn:uuid:af78bfb7-802d-4276-b54f-52171cf85de0"
              },
              {
                "reference": "urn:uuid:e01ee05c-4460-48de-9423-71d407fa772a"
              }
            ],
            "code": {
              "coding": [
                {
                  "system": "http://loinc.org",
                  "code": "47519-4",
                  "display": "History of Procedures Document"
                }
              ]
            },
            "title": "Procedure History list"
          },
          {
            "text": {
              "status": "generated",
              "div": "<div xmlns=\"http://www.w3.org/1999/xhtml\"><table class=\"hl7__ips\"><tr><th>Allergy/Intolerance</th><th>Onset Date</th><th>Status</th><th>Type</th><th>Reaction</th></tr><tr><td></td><td>?</td><td>active</td><td>?</td><td></td></tr></table></div>"
            },
            "entry": [
              {
                "reference": "urn:uuid:158c231a-c9f8-48e4-b39b-d72a505f4a8f"
              }
            ],
            "code": {
              "coding": [
                {
                  "system": "http://loinc.org",
                  "code": "48765-2",
                  "display": "Allergies and adverse reactions Document"
                }
              ]
            },
            "title": "Allergies and Intolerances"
          },
          {
            "text": {
              "status": "generated",
              "div": "<div xmlns=\"http://www.w3.org/1999/xhtml\"><table class=\"hl7__ips\"><tr><th>Active Planned Care / Goals</th><th>Start Date</th><th>Reason</th></tr><tr><td>Diabetes self management plan</td><td><span class=\"nb\">30-Oct-2012</span></td><td>Prediabetes</td></tr><tr><td><ul><li>Achieve and maintain a healthy body weight to reduce risk of progression to diabetes.</li><li>Maintain hemoglobin A1c below 6.5% to prevent progression to diabetes.</li><li>Maintain blood pressure below 130/80 mmHg to reduce cardiovascular and diabetes risk.</li><li>Engage in at least 150 minutes of moderate-intensity physical activity per week.</li></ul></td><td></td><td></td></tr><tr><td>Lifestyle education regarding hypertension</td><td><span class=\"nb\">02-Oct-2007</span></td><td>Essential hypertension (disorder)</td></tr><tr><td><ul><li>Reduce and maintain blood pressure below 130/80 mmHg through lifestyle modifications.</li><li>Lose at least 5% of baseline body weight to aid in hypertension management.</li><li>Engage in at least 150 minutes of moderate-intensity aerobic physical activity per week.</li><li>Limit dietary sodium intake to less than 2.3 grams per day.</li></ul></td><td></td><td></td></tr></table></div>"
            },
            "entry": [
              {
                "reference": "urn:uuid:b7f3577f-5fca-431c-b98e-038d81b4b16d"
              },
              {
                "reference": "urn:uuid:33674d6d-d911-4d60-affc-0c577b7087fd"
              }
            ],
            "code": {
              "coding": [
                {
                  "system": "http://loinc.org",
                  "code": "18776-5",
                  "display": "Plan of care note"
                }
              ]
            },
            "title": "Care Plan"
          },
          {
            "text": {
              "status": "generated",
              "div": "<div xmlns=\"http://www.w3.org/1999/xhtml\"><table class=\"hl7__ips\"><tr><th>Vital Signs</th><th>2025-01-07</th><th>2024-01-02</th></tr><tr><td>Body Height</td><td>162.4 cm</td><td>162.4 cm</td></tr><tr><td>Pain severity - 0-10 verbal numeric rating [Score] - Reported</td><td>1 {score}</td><td>2 {score}</td></tr><tr><td>Body Weight</td><td>72.6 kg</td><td>72.6 kg</td></tr><tr><td>Body mass index (BMI) [Ratio]</td><td>27.5 kg/m2</td><td>27.5 kg/m2</td></tr><tr><td>Diastolic Blood Pressure</td><td>103 mm[Hg]</td><td>101 mm[Hg]</td></tr><tr><td>Systolic Blood Pressure</td><td>140 mm[Hg]</td><td>140 mm[Hg]</td></tr><tr><td>Heart rate</td><td>72 /min</td><td>99 /min</td></tr><tr><td>Respiratory rate</td><td>14 /min</td><td>15 /min</td></tr></table></div>"
            },
            "entry": [
              {
                "reference": "urn:uuid:06d066db-9604-4c7d-a3dc-d7a531967cc9"
              },
              {
                "reference": "urn:uuid:f315fd1b-3671-4d0c-80b5-da6ad9bcaa3b"
              },
              {
                "reference": "urn:uuid:ac561df9-17af-4b4e-8240-d8fec10c353a"
              },
              {
                "reference": "urn:uuid:76a278e3-9631-4cea-8b09-d6ff5875dc39"
              },
              {
                "reference": "urn:uuid:c0b113ba-c77b-4f2d-85a2-80a151b72ef8"
              },
              {
                "reference": "urn:uuid:07e25c50-b8c1-4b1f-af4c-fba4a7be6e4d"
              },
              {
                "reference": "urn:uuid:a8ae12cb-8ab5-4631-bf75-ed2f077d21ab"
              },
              {
                "reference": "urn:uuid:07f5dd4b-ffc9-4906-b8b3-ac1cfb8e3a20"
              },
              {
                "reference": "urn:uuid:1231bc70-f4a3-482e-b7de-5157a23c2bc2"
              },
              {
                "reference": "urn:uuid:d567d1d8-d2a7-47e5-b257-4cb5c5202b67"
              },
              {
                "reference": "urn:uuid:d7cbf8a9-0575-456a-975b-c9f930d963aa"
              },
              {
                "reference": "urn:uuid:46d7c514-c053-4544-9967-8b82c0422246"
              },
              {
                "reference": "urn:uuid:52543ec2-0dea-4389-bccc-4090f908493d"
              },
              {
                "reference": "urn:uuid:cfac3fb8-773c-44a9-9be1-9bc9035b0146"
              },
              {
                "reference": "urn:uuid:c47cdcb4-0545-49ea-b290-b7c4fecfc1b5"
              },
              {
                "reference": "urn:uuid:ba5ebb8a-dfa3-4f94-ba60-c1949f881602"
              }
            ],
            "code": {
              "coding": [
                {
                  "system": "http://loinc.org",
                  "code": "8716-3",
                  "display": "Vital signs note"
                }
              ]
            },
            "title": "Vital Signs"
          },
          {
            "text": {
              "status": "generated",
              "div": "<div xmlns=\"http://www.w3.org/1999/xhtml\"><table class=\"hl7__ips\"><table class=\"hl7__ips\"><thead><tr><th>Recent Lab Observations</th><th>07-JAN-2025</th><th>Reference&#xA0;Range</th><th>Unit</th></tr></thead><tbody><tr><td>Hemoglobin A1c/Hemoglobin.total in Blood</td><td><strong>6.2 H</strong></td><td>4.8 - 5.7</td><td>%</td></tr><tr><td>Glucose [Mass/volume] in Blood</td><td>76.8</td><td>70 - 99</td><td>mg/dL</td></tr><tr><td>Urea nitrogen [Mass/volume] in Blood</td><td>10.1</td><td>7 - 20</td><td>mg/dL</td></tr><tr><td>Creatinine [Mass/volume] in Blood</td><td>0.7</td><td>0.6 - 1.1</td><td>mg/dL</td></tr><tr><td>Calcium [Mass/volume] in Blood</td><td>9.8</td><td>8.5 - 10.5</td><td>mg/dL</td></tr><tr><td>Sodium [Moles/volume] in Blood</td><td>142.9</td><td>135 - 145</td><td>mmol/L</td></tr><tr><td>Potassium [Moles/volume] in Blood</td><td>4.1</td><td>3.5 - 5.3</td><td>mmol/L</td></tr><tr><td>Chloride [Moles/volume] in Blood</td><td>109.6</td><td>98 - 114</td><td>mmol/L</td></tr><tr><td>Carbon dioxide, total [Moles/volume] in Blood</td><td>23.5</td><td>22 - 29</td><td>mmol/L</td></tr><tr><td>Leukocytes [#/volume] in Blood by Automated count</td><td>5.2</td><td>3.4 - 10.6</td><td>10*3/uL</td></tr><tr><td>Erythrocytes [#/volume] in Blood by Automated count</td><td><strong>4.0 L</strong></td><td>4.2 - 5.2</td><td>10*6/uL</td></tr><tr><td>Hemoglobin [Mass/volume] in Blood</td><td>15.5</td><td>12 - 16</td><td>g/dL</td></tr><tr><td>Hematocrit [Volume Fraction] of Blood by Automated count</td><td>42.6</td><td>37 - 46</td><td>%</td></tr><tr><td>MCV [Entitic volume] by Automated count</td><td>83.4</td><td>80 - 105</td><td>fL</td></tr><tr><td>MCH [Entitic mass] by Automated count</td><td>30.9</td><td>27 - 34</td><td>pg</td></tr><tr><td>MCHC [Mass/volume] by Automated count</td><td>34.5</td><td>31 - 35</td><td>g/dL</td></tr><tr><td>Erythrocyte distribution width [Entitic volume] by Automated count</td><td>44.2</td><td>36 - 46</td><td>fL</td></tr><tr><td>Platelets [#/volume] in Blood by Automated count</td><td>343.7</td><td>150 - 415</td><td>10*3/uL</td></tr><tr><td>Platelet distribution width [Entitic volume] in Blood by Automated count</td><td><strong>451.4 H</strong></td><td>11.6 - 17.4</td><td>fL</td></tr><tr><td>Platelet mean volume [Entitic volume] in Blood by Automated count</td><td>10.8</td><td>7.2 - 13.8</td><td>fL</td></tr></tbody></table></table></div>"
            },
            "entry": [
              {
                "reference": "urn:uuid:c5e4d5b3-254f-46df-9cde-5787b1b7c829"
              },
              {
                "reference": "urn:uuid:cf07e7cb-976a-40ce-9875-f0f9be9b3c3d"
              },
              {
                "reference": "urn:uuid:7fd9717f-53ef-4e40-88cd-75b1dffa4f58"
              },
              {
                "reference": "urn:uuid:24fe7492-be04-428a-bae7-f87010b46cfa"
              },
              {
                "reference": "urn:uuid:b6e963ef-0e38-494e-95b9-72518c92e674"
              },
              {
                "reference": "urn:uuid:02b0872c-f3db-4a03-bb68-ec298805ae18"
              },
              {
                "reference": "urn:uuid:2d800695-c090-41c0-aed1-1c491d55642d"
              },
              {
                "reference": "urn:uuid:fbc18f3e-f53d-498c-996b-80856e322fe4"
              },
              {
                "reference": "urn:uuid:cc9435ae-82c8-4499-9f54-2772f8c91301"
              },
              {
                "reference": "urn:uuid:b7573c00-6a51-4ff7-8792-0699998fe7be"
              },
              {
                "reference": "urn:uuid:33d729ff-dd85-46be-a89d-0e42892b67f1"
              },
              {
                "reference": "urn:uuid:cc9d9adc-ed07-42dd-a3e6-8d134d58a586"
              },
              {
                "reference": "urn:uuid:c6c7d418-c0af-45be-8ca1-4eb6f24dbea2"
              },
              {
                "reference": "urn:uuid:333a3204-0afa-42fa-8d85-e4a606ce290d"
              },
              {
                "reference": "urn:uuid:4b53de49-7873-4391-8e39-bbc371e75a79"
              },
              {
                "reference": "urn:uuid:369830fb-931a-471e-9029-8c017ad25d26"
              },
              {
                "reference": "urn:uuid:1be394a5-8bd2-4303-93cb-2f92e49a7d7c"
              },
              {
                "reference": "urn:uuid:d1d1ff35-b606-4d22-947d-158badac2067"
              },
              {
                "reference": "urn:uuid:d56800ef-c242-49e3-9b29-6c1075ef5afa"
              },
              {
                "reference": "urn:uuid:ddb23633-731f-48c0-8f0a-da773236c04c"
              }
            ],
            "code": {
              "coding": [
                {
                  "system": "http://loinc.org",
                  "code": "30954-2",
                  "display": "Relevant diagnostic tests/laboratory data note"
                }
              ]
            },
            "title": "Relevant diagnostic tests/laboratory data"
          },
          {
            "text": {
              "status": "generated",
              "div": "<div xmlns=\"http://www.w3.org/1999/xhtml\"><table class=\"hl7__ips\"><tr><th>Device</th><th>Date (since)</th></tr><tr><td>Blood glucose meter (physical object)</td><td><span class=\"nb\">30-Oct-2012</span></td></tr></table></div>"
            },
            "entry": [
              {
                "reference": "urn:uuid:fd485db4-1cb1-45ef-b4c9-ece1c54eaa78"
              }
            ],
            "code": {
              "coding": [
                {
                  "system": "http://loinc.org",
                  "code": "46264-8",
                  "display": "History of medical device use"
                }
              ]
            },
            "title": "Device Use"
          }
        ],
        "title": "European Patient Summary",
        "status": "final",
        "subject": {
          "reference": "urn:uuid:6bd1a3af-d4b1-4d91-bc18-9912ca859c55",
          "display": "Aniela Sacharczuk"
        },
        "custodian": {
          "reference": "urn:uuid:281b41a8-7720-40df-b1f6-2b07fdb67cda"
        },
        "date": "2025-01-07",
        "confidentiality": "N"
      }
    },
    {
      "fullUrl": "urn:uuid:6bd1a3af-d4b1-4d91-bc18-9912ca859c55",
      "resource": {
        "resourceType": "Patient",
        "id": "6bd1a3af-d4b1-4d91-bc18-9912ca859c55",
        "meta": {
          "security": [
            {
              "system": "http://terminology.hl7.org/CodeSystem/v3-ActReason",
              "code": "HTEST"
            },
            {
              "system": "http://terminology.hl7.org/CodeSystem/v3-ActReason",
              "code": "TRAIN"
            }
          ],
          "tag": [
            {
              "system": "https://synderai.net/fhir/CodeSystem/tags",
              "code": "synthetic",
              "display": "SYNDERAI Synthetic data"
            }
          ],
          "profile": [
            "http://hl7.eu/fhir/eps/StructureDefinition/patient-eu-eps"
          ]
        },
        "identifier": [
          {
            "type": {
              "coding": [
                {
                  "code": "PT",
                  "system": "http://terminology.hl7.org/CodeSystem/v2-0203"
                }
              ]
            },
            "system": "http://ec.europa.eu/identifier/eci",
            "value": "3843-787162-7"
          },
          {
            "type": {
              "coding": [
                {
                  "code": "MR",
                  "system": "http://terminology.hl7.org/CodeSystem/v2-0203"
                }
              ]
            },
            "system": "http://local.setting.eu/identifier",
            "value": "cd2e7aac-e2c0-8306-b862-9ed4c443c8b5"
          }
        ],
        "name": [
          {
            "family": "Sacharczuk"
          },
          {
            "given": [
              "Aniela"
            ]
          },
          {
            "text": "Aniela Sacharczuk"
          }
        ],
        "address": [
          {
            "line": [
              "plac Szpitalna 13"
            ],
            "use": "home",
            "type": "physical",
            "postalCode": "27-600",
            "city": "Sandomierz",
            "country": "Poland"
          }
        ],
        "telecom": [
          {
            "system": "phone",
            "value": "+48 536 227 035"
          }
        ],
        "extension": [
          {
            "url": "http://hl7.org/fhir/StructureDefinition/patient-nationality",
            "valueCodeableConcept": {
              "coding": [
                {
                  "code": "PL",
                  "system": "http://hl7.org/fhir/ValueSet/country"
                }
              ]
            }
          }
        ],
        "text": {
          "status": "generated",
          "div": "<div xmlns=\"http://www.w3.org/1999/xhtml\"><table class=\"hl7__ips\"><tr><td>Aniela Sacharczuk</td><td>female</td><td>02-Nov-1970</td></tr></table></div>"
        },
        "gender": "female",
        "birthDate": "1970-11-02"
      }
    },
    {
      "fullUrl": "urn:uuid:b1110358-d226-46af-897d-f00d69727735",
      "resource": {
        "resourceType": "PractitionerRole",
        "id": "b1110358-d226-46af-897d-f00d69727735",
        "meta": {
          "profile": [
            "http://hl7.eu/fhir/base/StructureDefinition/practitionerRole-eu"
          ]
        },
        "text": {
          "status": "generated",
          "div": "<div xmlns=\"http://www.w3.org/1999/xhtml\"><table class=\"hl7__ips\">Provider Role Id b1110358-d226-46af-897d-f00d69727735</table></div>"
        },
        "practitioner": {
          "reference": "urn:uuid:dacb5c5a-c217-4fab-8a7d-6e1e532b5d68"
        },
        "organization": {
          "reference": "urn:uuid:281b41a8-7720-40df-b1f6-2b07fdb67cda"
        }
      }
    },
    {
      "fullUrl": "urn:uuid:dacb5c5a-c217-4fab-8a7d-6e1e532b5d68",
      "resource": {
        "resourceType": "Practitioner",
        "id": "dacb5c5a-c217-4fab-8a7d-6e1e532b5d68",
        "meta": {
          "profile": [
            "http://hl7.eu/fhir/base/StructureDefinition/practitioner-eu"
          ]
        },
        "name": [
          {
            "prefix": [
              "Dr."
            ],
            "given": [
              "Hel"
            ],
            "family": "Ping"
          }
        ],
        "text": {
          "status": "generated",
          "div": "<div xmlns=\"http://www.w3.org/1999/xhtml\"><table class=\"hl7__ips\">Dr. Hel Ping</table></div>"
        }
      }
    },
    {
      "fullUrl": "urn:uuid:281b41a8-7720-40df-b1f6-2b07fdb67cda",
      "resource": {
        "resourceType": "Organization",
        "id": "281b41a8-7720-40df-b1f6-2b07fdb67cda",
        "meta": {
          "profile": [
            "http://hl7.eu/fhir/base/StructureDefinition/organization-eu"
          ]
        },
        "identifier": [
          {
            "assigner": {
              "display": "HL7 Europe"
            },
            "system": "urn:oid:2.16.840.1.113883.2.51.999",
            "value": "64dcbc30-680d-402c-945f-ca939935c495"
          }
        ],
        "address": [
          {
            "line": [
              "Józefa Piłsudskiego 17"
            ],
            "city": "Gorzyce",
            "postalCode": "39-432",
            "country": "Poland"
          }
        ],
        "text": {
          "status": "generated",
          "div": "<div xmlns=\"http://www.w3.org/1999/xhtml\"><table class=\"hl7__ips\">Ośrodek Zdrowia</table></div>"
        },
        "name": "Ośrodek Zdrowia"
      }
    },
    {
      "fullUrl": "urn:uuid:67185ffc-d7d1-47ff-a5c7-18799c78e164",
      "resource": {
        "resourceType": "Condition",
        "id": "67185ffc-d7d1-47ff-a5c7-18799c78e164",
        "meta": {
          "profile": [
            "http://hl7.org/fhir/uv/ips/StructureDefinition/Condition-uv-ips"
          ]
        },
        "category": [
          {
            "coding": [
              {
                "code": "problem-list-item",
                "system": "http://terminology.hl7.org/CodeSystem/condition-category",
                "display": "Problem List Item"
              }
            ]
          }
        ],
        "code": {
          "coding": [
            {
              "code": "237602007",
              "system": "http://snomed.info/sct",
              "display": "Metabolic syndrome X (disorder)"
            }
          ],
          "text": "Metabolic syndrome X"
        },
        "text": {
          "status": "generated",
          "div": "<div xmlns=\"http://www.w3.org/1999/xhtml\"><table class=\"hl7__ips\"><tr><td>Metabolic syndrome X</td><td><span class=\"nb\">10-Dec-2019</span></td><td>active</td></tr></table></div>"
        },
        "onsetDateTime": "2019-12-10",
        "subject": {
          "reference": "urn:uuid:",
          "display": "Aniela Sacharczuk"
        },
        "asserter": {
          "reference": "urn:uuid:",
          "display": "Ośrodek Zdrowia"
        }
      }
    },
    {
      "fullUrl": "urn:uuid:228469aa-2949-49dc-907d-c287b71773f8",
      "resource": {
        "resourceType": "Condition",
        "id": "228469aa-2949-49dc-907d-c287b71773f8",
        "meta": {
          "profile": [
            "http://hl7.org/fhir/uv/ips/StructureDefinition/Condition-uv-ips"
          ]
        },
        "category": [
          {
            "coding": [
              {
                "code": "problem-list-item",
                "system": "http://terminology.hl7.org/CodeSystem/condition-category",
                "display": "Problem List Item"
              }
            ]
          }
        ],
        "code": {
          "coding": [
            {
              "code": "15777000",
              "system": "http://snomed.info/sct",
              "display": "Prediabetes (disorder)"
            }
          ],
          "text": "Prediabetes"
        },
        "text": {
          "status": "generated",
          "div": "<div xmlns=\"http://www.w3.org/1999/xhtml\"><table class=\"hl7__ips\"><tr><td>Prediabetes</td><td><span class=\"nb\">30-Oct-2012</span></td><td>active</td></tr></table></div>"
        },
        "onsetDateTime": "2012-10-30",
        "subject": {
          "reference": "urn:uuid:",
          "display": "Aniela Sacharczuk"
        },
        "asserter": {
          "reference": "urn:uuid:",
          "display": "Ośrodek Zdrowia"
        }
      }
    },
    {
      "fullUrl": "urn:uuid:6b29e003-0f86-4240-8f2c-179376d65387",
      "resource": {
        "resourceType": "Condition",
        "id": "6b29e003-0f86-4240-8f2c-179376d65387",
        "meta": {
          "profile": [
            "http://hl7.org/fhir/uv/ips/StructureDefinition/Condition-uv-ips"
          ]
        },
        "category": [
          {
            "coding": [
              {
                "code": "problem-list-item",
                "system": "http://terminology.hl7.org/CodeSystem/condition-category",
                "display": "Problem List Item"
              }
            ]
          }
        ],
        "code": {
          "coding": [
            {
              "code": "59621000",
              "system": "http://snomed.info/sct",
              "display": "Essential hypertension (disorder)"
            }
          ],
          "text": "Essential hypertension"
        },
        "text": {
          "status": "generated",
          "div": "<div xmlns=\"http://www.w3.org/1999/xhtml\"><table class=\"hl7__ips\"><tr><td>Essential hypertension</td><td><span class=\"nb\">02-Oct-2007</span></td><td>active</td></tr></table></div>"
        },
        "onsetDateTime": "2007-10-02",
        "subject": {
          "reference": "urn:uuid:",
          "display": "Aniela Sacharczuk"
        },
        "asserter": {
          "reference": "urn:uuid:",
          "display": "Ośrodek Zdrowia"
        }
      }
    },
    {
      "fullUrl": "urn:uuid:ae555f2e-62a0-4f77-8dfe-8ebdc635576a",
      "resource": {
        "resourceType": "Condition",
        "id": "ae555f2e-62a0-4f77-8dfe-8ebdc635576a",
        "meta": {
          "profile": [
            "http://hl7.org/fhir/uv/ips/StructureDefinition/Condition-uv-ips"
          ]
        },
        "category": [
          {
            "coding": [
              {
                "code": "problem-list-item",
                "system": "http://terminology.hl7.org/CodeSystem/condition-category",
                "display": "Problem List Item"
              }
            ]
          }
        ],
        "code": {
          "coding": [
            {
              "code": "444814009",
              "system": "http://snomed.info/sct",
              "display": "Viral sinusitis (disorder)"
            }
          ],
          "text": "Viral sinusitis"
        },
        "text": {
          "status": "generated",
          "div": "<div xmlns=\"http://www.w3.org/1999/xhtml\"><table class=\"hl7__ips\"><tr><td><span class=\"grayedout\">Viral sinusitis</span></td><td><span class=\"nb\">26-Mar-2023 - 18-Apr-2023</span></td><td><span class=\"grayedout\">inactive</span></td></tr></table></div>"
        },
        "onsetDateTime": "2023-03-26",
        "abatementDateTime": "2023-04-18",
        "subject": {
          "reference": "urn:uuid:",
          "display": "Aniela Sacharczuk"
        },
        "asserter": {
          "reference": "urn:uuid:",
          "display": "Ośrodek Zdrowia"
        }
      }
    },
    {
      "fullUrl": "urn:uuid:3af4647e-bb6f-463c-983a-13cbc900b496",
      "resource": {
        "resourceType": "Condition",
        "id": "3af4647e-bb6f-463c-983a-13cbc900b496",
        "meta": {
          "profile": [
            "http://hl7.org/fhir/uv/ips/StructureDefinition/Condition-uv-ips"
          ]
        },
        "category": [
          {
            "coding": [
              {
                "code": "problem-list-item",
                "system": "http://terminology.hl7.org/CodeSystem/condition-category",
                "display": "Problem List Item"
              }
            ]
          }
        ],
        "code": {
          "coding": [
            {
              "code": "195662009",
              "system": "http://snomed.info/sct",
              "display": "Acute viral pharyngitis (disorder)"
            }
          ],
          "text": "Acute viral pharyngitis"
        },
        "text": {
          "status": "generated",
          "div": "<div xmlns=\"http://www.w3.org/1999/xhtml\"><table class=\"hl7__ips\"><tr><td><span class=\"grayedout\">Acute viral pharyngitis</span></td><td><span class=\"nb\">23-Sep-2022 - 04-Oct-2022</span></td><td><span class=\"grayedout\">inactive</span></td></tr></table></div>"
        },
        "onsetDateTime": "2022-09-23",
        "abatementDateTime": "2022-10-04",
        "subject": {
          "reference": "urn:uuid:",
          "display": "Aniela Sacharczuk"
        },
        "asserter": {
          "reference": "urn:uuid:",
          "display": "Ośrodek Zdrowia"
        }
      }
    },
    {
      "fullUrl": "urn:uuid:901610aa-be2c-4a0b-9dc5-6e75bba21751",
      "resource": {
        "resourceType": "Condition",
        "id": "901610aa-be2c-4a0b-9dc5-6e75bba21751",
        "meta": {
          "profile": [
            "http://hl7.org/fhir/uv/ips/StructureDefinition/Condition-uv-ips"
          ]
        },
        "category": [
          {
            "coding": [
              {
                "code": "problem-list-item",
                "system": "http://terminology.hl7.org/CodeSystem/condition-category",
                "display": "Problem List Item"
              }
            ]
          }
        ],
        "code": {
          "coding": [
            {
              "code": "16114001",
              "system": "http://snomed.info/sct",
              "display": "Fracture of ankle (disorder)"
            }
          ],
          "text": "Fracture of ankle"
        },
        "text": {
          "status": "generated",
          "div": "<div xmlns=\"http://www.w3.org/1999/xhtml\"><table class=\"hl7__ips\"><tr><td><span class=\"grayedout\">Fracture of ankle</span></td><td><span class=\"nb\">22-Jun-2019 - 04-Sep-2019</span></td><td><span class=\"grayedout\">inactive</span></td></tr></table></div>"
        },
        "onsetDateTime": "2019-06-22",
        "abatementDateTime": "2019-09-04",
        "subject": {
          "reference": "urn:uuid:",
          "display": "Aniela Sacharczuk"
        },
        "asserter": {
          "reference": "urn:uuid:",
          "display": "Ośrodek Zdrowia"
        }
      }
    },
    {
      "fullUrl": "urn:uuid:a78e8147-fdf9-4515-99fa-007209836117",
      "resource": {
        "resourceType": "Condition",
        "id": "a78e8147-fdf9-4515-99fa-007209836117",
        "meta": {
          "profile": [
            "http://hl7.org/fhir/uv/ips/StructureDefinition/Condition-uv-ips"
          ]
        },
        "category": [
          {
            "coding": [
              {
                "code": "problem-list-item",
                "system": "http://terminology.hl7.org/CodeSystem/condition-category",
                "display": "Problem List Item"
              }
            ]
          }
        ],
        "code": {
          "coding": [
            {
              "code": "125605004",
              "system": "http://snomed.info/sct",
              "display": "Fracture of bone (disorder)"
            }
          ],
          "text": "Fracture of bone"
        },
        "text": {
          "status": "generated",
          "div": "<div xmlns=\"http://www.w3.org/1999/xhtml\"><table class=\"hl7__ips\"><tr><td><span class=\"grayedout\">Fracture of bone</span></td><td><span class=\"nb\">22-Jun-2019 - 04-Sep-2019</span></td><td><span class=\"grayedout\">inactive</span></td></tr></table></div>"
        },
        "onsetDateTime": "2019-06-22",
        "abatementDateTime": "2019-09-04",
        "subject": {
          "reference": "urn:uuid:",
          "display": "Aniela Sacharczuk"
        },
        "asserter": {
          "reference": "urn:uuid:",
          "display": "Ośrodek Zdrowia"
        }
      }
    },
    {
      "fullUrl": "urn:uuid:4aebcca3-687d-4842-ba5c-6a85d8f69685",
      "resource": {
        "resourceType": "Condition",
        "id": "4aebcca3-687d-4842-ba5c-6a85d8f69685",
        "meta": {
          "profile": [
            "http://hl7.org/fhir/uv/ips/StructureDefinition/Condition-uv-ips"
          ]
        },
        "category": [
          {
            "coding": [
              {
                "code": "problem-list-item",
                "system": "http://terminology.hl7.org/CodeSystem/condition-category",
                "display": "Problem List Item"
              }
            ]
          }
        ],
        "code": {
          "coding": [
            {
              "code": "444814009",
              "system": "http://snomed.info/sct",
              "display": "Viral sinusitis (disorder)"
            }
          ],
          "text": "Viral sinusitis"
        },
        "text": {
          "status": "generated",
          "div": "<div xmlns=\"http://www.w3.org/1999/xhtml\"><table class=\"hl7__ips\"><tr><td><span class=\"grayedout\">Viral sinusitis</span></td><td><span class=\"nb\">23-Mar-2019 - 08-Apr-2019</span></td><td><span class=\"grayedout\">inactive</span></td></tr></table></div>"
        },
        "onsetDateTime": "2019-03-23",
        "abatementDateTime": "2019-04-08",
        "subject": {
          "reference": "urn:uuid:",
          "display": "Aniela Sacharczuk"
        },
        "asserter": {
          "reference": "urn:uuid:",
          "display": "Ośrodek Zdrowia"
        }
      }
    },
    {
      "fullUrl": "urn:uuid:5c304906-9695-436d-807f-a2173e4a9fb3",
      "resource": {
        "resourceType": "Condition",
        "id": "5c304906-9695-436d-807f-a2173e4a9fb3",
        "meta": {
          "profile": [
            "http://hl7.org/fhir/uv/ips/StructureDefinition/Condition-uv-ips"
          ]
        },
        "category": [
          {
            "coding": [
              {
                "code": "problem-list-item",
                "system": "http://terminology.hl7.org/CodeSystem/condition-category",
                "display": "Problem List Item"
              }
            ]
          }
        ],
        "code": {
          "coding": [
            {
              "code": "10509002",
              "system": "http://snomed.info/sct",
              "display": "Acute bronchitis (disorder)"
            }
          ],
          "text": "Acute bronchitis"
        },
        "text": {
          "status": "generated",
          "div": "<div xmlns=\"http://www.w3.org/1999/xhtml\"><table class=\"hl7__ips\"><tr><td><span class=\"grayedout\">Acute bronchitis</span></td><td><span class=\"nb\">08-Oct-2017 - 21-Oct-2017</span></td><td><span class=\"grayedout\">inactive</span></td></tr></table></div>"
        },
        "onsetDateTime": "2017-10-08",
        "abatementDateTime": "2017-10-21",
        "subject": {
          "reference": "urn:uuid:",
          "display": "Aniela Sacharczuk"
        },
        "asserter": {
          "reference": "urn:uuid:",
          "display": "Ośrodek Zdrowia"
        }
      }
    },
    {
      "fullUrl": "urn:uuid:26710abd-9a67-435e-b74e-79e6f69b325a",
      "resource": {
        "resourceType": "Condition",
        "id": "26710abd-9a67-435e-b74e-79e6f69b325a",
        "meta": {
          "profile": [
            "http://hl7.org/fhir/uv/ips/StructureDefinition/Condition-uv-ips"
          ]
        },
        "category": [
          {
            "coding": [
              {
                "code": "problem-list-item",
                "system": "http://terminology.hl7.org/CodeSystem/condition-category",
                "display": "Problem List Item"
              }
            ]
          }
        ],
        "code": {
          "coding": [
            {
              "code": "444814009",
              "system": "http://snomed.info/sct",
              "display": "Viral sinusitis (disorder)"
            }
          ],
          "text": "Viral sinusitis"
        },
        "text": {
          "status": "generated",
          "div": "<div xmlns=\"http://www.w3.org/1999/xhtml\"><table class=\"hl7__ips\"><tr><td><span class=\"grayedout\">Viral sinusitis</span></td><td><span class=\"nb\">04-Nov-2016 - 26-Nov-2016</span></td><td><span class=\"grayedout\">inactive</span></td></tr></table></div>"
        },
        "onsetDateTime": "2016-11-04",
        "abatementDateTime": "2016-11-26",
        "subject": {
          "reference": "urn:uuid:",
          "display": "Aniela Sacharczuk"
        },
        "asserter": {
          "reference": "urn:uuid:",
          "display": "Ośrodek Zdrowia"
        }
      }
    },
    {
      "fullUrl": "urn:uuid:22724385-54b2-4dcb-b957-4f012dcfca7f",
      "resource": {
        "resourceType": "Condition",
        "id": "22724385-54b2-4dcb-b957-4f012dcfca7f",
        "meta": {
          "profile": [
            "http://hl7.org/fhir/uv/ips/StructureDefinition/Condition-uv-ips"
          ]
        },
        "category": [
          {
            "coding": [
              {
                "code": "problem-list-item",
                "system": "http://terminology.hl7.org/CodeSystem/condition-category",
                "display": "Problem List Item"
              }
            ]
          }
        ],
        "code": {
          "coding": [
            {
              "code": "10509002",
              "system": "http://snomed.info/sct",
              "display": "Acute bronchitis (disorder)"
            }
          ],
          "text": "Acute bronchitis"
        },
        "text": {
          "status": "generated",
          "div": "<div xmlns=\"http://www.w3.org/1999/xhtml\"><table class=\"hl7__ips\"><tr><td><span class=\"grayedout\">Acute bronchitis</span></td><td><span class=\"nb\">15-Aug-2015 - 01-Sep-2015</span></td><td><span class=\"grayedout\">inactive</span></td></tr></table></div>"
        },
        "onsetDateTime": "2015-08-15",
        "abatementDateTime": "2015-09-01",
        "subject": {
          "reference": "urn:uuid:",
          "display": "Aniela Sacharczuk"
        },
        "asserter": {
          "reference": "urn:uuid:",
          "display": "Ośrodek Zdrowia"
        }
      }
    },
    {
      "fullUrl": "urn:uuid:855f0bb5-89c3-4b80-a19f-4b2578b0fc53",
      "resource": {
        "resourceType": "Medication",
        "id": "855f0bb5-89c3-4b80-a19f-4b2578b0fc53",
        "meta": {
          "profile": [
            "http://hl7.eu/fhir/eps/StructureDefinition/Medication-eu-eps"
          ]
        },
        "code": {
          "coding": [
            {
              "code": "318859000",
              "system": "http://snomed.info/sct",
              "display": "Lisinopril 10 mg oral tablet"
            }
          ],
          "text": "Lisinopril 10 mg oral tablet"
        },
        "text": {
          "status": "generated",
          "div": "<div xmlns=\"http://www.w3.org/1999/xhtml\">Lisinopril 10 mg oral tablet</div>"
        }
      }
    },
    {
      "fullUrl": "urn:uuid:b92bf60f-d86f-471a-984b-57f940a71395",
      "resource": {
        "resourceType": "MedicationStatement",
        "id": "b92bf60f-d86f-471a-984b-57f940a71395",
        "meta": {
          "profile": [
            "http://hl7.eu/fhir/eps/StructureDefinition/MedicationStatement-eu-eps"
          ]
        },
        "effectivePeriod": {
          "start": "2025-01-07"
        },
        "dosage": [
          {
            "doseAndRate": [
              {
                "doseQuantity": {
                  "value": 1,
                  "unit": "{tbl}",
                  "code": "{tbl}"
                }
              }
            ],
            "timing": {
              "repeat": {
                "frequency": 1,
                "period": 1,
                "periodUnit": "d"
              }
            },
            "text": "1 tablet (10 mg) by mouth once daily",
            "asNeededBoolean": false
          }
        ],
        "reasonCode": [
          {
            "coding": [
              {
                "code": "59621000",
                "system": "http://snomed.info/sct",
                "display": "Essential hypertension (disorder)"
              }
            ]
          }
        ],
        "text": {
          "status": "generated",
          "div": "<div xmlns=\"http://www.w3.org/1999/xhtml\"><table class=\"hl7__ips first25\"><tr><th>Medication</th><th>Since</th><th>Form</th><th>Dosage</th><th>Reason</th></tr><tr><td>Lisinopril 10 mg oral tablet</td><td><span class=\"nb\">2025-01-07</span></td><td>-</td><td>1 tablet (10 mg) by mouth once daily</td><td>Essential hypertension (disorder)</td></tr></table></div>"
        },
        "status": "active",
        "medicationReference": {
          "reference": "urn:uuid:855f0bb5-89c3-4b80-a19f-4b2578b0fc53",
          "display": "Lisinopril 10 mg oral tablet"
        },
        "subject": {
          "reference": "urn:uuid:6bd1a3af-d4b1-4d91-bc18-9912ca859c55",
          "display": "Aniela Sacharczuk"
        }
      }
    },
    {
      "fullUrl": "urn:uuid:2344e317-e22f-4c1e-8f44-73280ef0e7ef",
      "resource": {
        "resourceType": "Immunization",
        "id": "2344e317-e22f-4c1e-8f44-73280ef0e7ef",
        "meta": {
          "profile": [
            "http://hl7.org/fhir/uv/ips/StructureDefinition/Immunization-uv-ips"
          ]
        },
        "vaccineCode": {
          "coding": [
            {
              "code": "1181000221105",
              "system": "http://snomed.info/sct",
              "display": "Vaccine product containing Influenza virus antigen"
            },
            {
              "code": "J07BB02",
              "system": "http://www.whocc.no/atc",
              "display": "Influenza, inactivated, split virus"
            }
          ],
          "text": "Influenza virus antigen only vaccine product"
        },
        "site": {
          "coding": [
            {
              "code": "244979005",
              "system": "http://snomed.info/sct",
              "display": "Entire muscle of upper arm"
            }
          ],
          "text": "Entire muscle of upper arm"
        },
        "route": {
          "coding": [
            {
              "code": "78421000",
              "system": "http://snomed.info/sct",
              "display": "Intramuscular route"
            }
          ],
          "text": "Intramuscular route"
        },
        "text": {
          "status": "generated",
          "div": "<div xmlns=\"http://www.w3.org/1999/xhtml\"><table class=\"hl7__ips\"><tr><td>Influenza virus antigen only vaccine product</td><td><span class=\"nb\">07-Jan-2025</span></td></tr></table></div>"
        },
        "status": "completed",
        "patient": {
          "reference": "urn:uuid:6bd1a3af-d4b1-4d91-bc18-9912ca859c55",
          "display": "Aniela Sacharczuk"
        },
        "occurrenceDateTime": "2025-01-07",
        "lotNumber": "BI-i7RPa",
        "expirationDate": "2025-08-04"
      }
    },
    {
      "fullUrl": "urn:uuid:adfba1d9-7ba8-4ed4-9785-c15d1760bed8",
      "resource": {
        "resourceType": "Immunization",
        "id": "adfba1d9-7ba8-4ed4-9785-c15d1760bed8",
        "meta": {
          "profile": [
            "http://hl7.org/fhir/uv/ips/StructureDefinition/Immunization-uv-ips"
          ]
        },
        "vaccineCode": {
          "coding": [
            {
              "code": "777725002",
              "system": "http://snomed.info/sct",
              "display": "Vaccine product containing only Clostridium tetani toxoid antigen adsorbed"
            },
            {
              "code": "J07AM51",
              "system": "http://www.whocc.no/atc",
              "display": "Diphtheria-tetanus vaccines, adult type"
            }
          ],
          "text": "Clostridium tetani toxoid antigen adsorbed only vaccine product"
        },
        "site": {
          "coding": [
            {
              "code": "244979005",
              "system": "http://snomed.info/sct",
              "display": "Entire muscle of upper arm"
            }
          ],
          "text": "Entire muscle of upper arm"
        },
        "route": {
          "coding": [
            {
              "code": "78421000",
              "system": "http://snomed.info/sct",
              "display": "Intramuscular route"
            }
          ],
          "text": "Intramuscular route"
        },
        "text": {
          "status": "generated",
          "div": "<div xmlns=\"http://www.w3.org/1999/xhtml\"><table class=\"hl7__ips\"><tr><td>Clostridium tetani toxoid antigen adsorbed only vaccine product</td><td><span class=\"nb\">21-Dec-2021</span></td></tr></table></div>"
        },
        "status": "completed",
        "patient": {
          "reference": "urn:uuid:6bd1a3af-d4b1-4d91-bc18-9912ca859c55",
          "display": "Aniela Sacharczuk"
        },
        "occurrenceDateTime": "2021-12-21",
        "lotNumber": "UE-H4Wv3F",
        "expirationDate": "2022-07-21"
      }
    },
    {
      "fullUrl": "urn:uuid:eb54e157-b108-4a85-88b4-c1f713ad569e",
      "resource": {
        "resourceType": "Immunization",
        "id": "eb54e157-b108-4a85-88b4-c1f713ad569e",
        "meta": {
          "profile": [
            "http://hl7.org/fhir/uv/ips/StructureDefinition/Immunization-uv-ips"
          ]
        },
        "vaccineCode": {
          "coding": [
            {
              "code": "2221000221107",
              "system": "http://snomed.info/sct",
              "display": "Live attenuated Varicella-zoster vaccine"
            },
            {
              "code": "J07BK02",
              "system": "http://www.whocc.no/atc",
              "display": "Varicella-zoster vaccines"
            }
          ],
          "text": "Live attenuated Human alphaherpesvirus 3 only vaccine product"
        },
        "site": {
          "coding": [
            {
              "code": "368208006",
              "system": "http://snomed.info/sct",
              "display": "Left upper arm structure"
            }
          ],
          "text": "Left upper arm structure"
        },
        "route": {
          "coding": [
            {
              "code": "34206005",
              "system": "http://snomed.info/sct",
              "display": "Subcutaneous route"
            }
          ],
          "text": "Subcutaneous route"
        },
        "text": {
          "status": "generated",
          "div": "<div xmlns=\"http://www.w3.org/1999/xhtml\"><table class=\"hl7__ips\"><tr><td>Live attenuated Human alphaherpesvirus 3 only vaccine product</td><td><span class=\"nb\">21-Dec-2021</span></td></tr></table></div>"
        },
        "status": "completed",
        "patient": {
          "reference": "urn:uuid:6bd1a3af-d4b1-4d91-bc18-9912ca859c55",
          "display": "Aniela Sacharczuk"
        },
        "occurrenceDateTime": "2021-12-21",
        "lotNumber": "EF-9K0T",
        "expirationDate": "2022-06-21"
      }
    },
    {
      "fullUrl": "urn:uuid:585699ec-4f04-4038-a368-276328700c2c",
      "resource": {
        "resourceType": "Immunization",
        "id": "585699ec-4f04-4038-a368-276328700c2c",
        "meta": {
          "profile": [
            "http://hl7.org/fhir/uv/ips/StructureDefinition/Immunization-uv-ips"
          ]
        },
        "vaccineCode": {
          "coding": [
            {
              "code": "1119349007",
              "system": "http://snomed.info/sct",
              "display": "Vaccine product containing SARS-CoV-2 mRNA"
            },
            {
              "code": "J07BX03",
              "system": "http://www.whocc.no/atc",
              "display": "COVID-19 mRNA vaccines"
            }
          ],
          "text": "SARS-CoV-2 mRNA vaccine"
        },
        "site": {
          "coding": [
            {
              "code": "244979005",
              "system": "http://snomed.info/sct",
              "display": "Entire muscle of upper arm"
            }
          ],
          "text": "Entire muscle of upper arm"
        },
        "route": {
          "coding": [
            {
              "code": "78421000",
              "system": "http://snomed.info/sct",
              "display": "Intramuscular route"
            }
          ],
          "text": "Intramuscular route"
        },
        "text": {
          "status": "generated",
          "div": "<div xmlns=\"http://www.w3.org/1999/xhtml\"><table class=\"hl7__ips\"><tr><td>SARS-CoV-2 mRNA vaccine</td><td><span class=\"nb\">27-Apr-2021</span></td></tr></table></div>"
        },
        "status": "completed",
        "patient": {
          "reference": "urn:uuid:6bd1a3af-d4b1-4d91-bc18-9912ca859c55",
          "display": "Aniela Sacharczuk"
        },
        "occurrenceDateTime": "2021-04-27",
        "lotNumber": "TY-B0yxAX",
        "expirationDate": "2022-03-08"
      }
    },
    {
      "fullUrl": "urn:uuid:d5858c0e-adae-4326-a638-7d876190014c",
      "resource": {
        "resourceType": "Procedure",
        "id": "d5858c0e-adae-4326-a638-7d876190014c",
        "meta": {
          "profile": [
            "http://hl7.org/fhir/uv/ips/StructureDefinition/Procedure-uv-ips"
          ]
        },
        "code": {
          "coding": [
            {
              "code": "19490002",
              "system": "http://snomed.info/sct",
              "display": "Ankle X-ray"
            }
          ],
          "text": "Radiography of ankle"
        },
        "text": {
          "status": "generated",
          "div": "<div xmlns=\"http://www.w3.org/1999/xhtml\"><table class=\"hl7__ips\"><tr><td>Radiography of ankle</td><td><span class=\"nb\">22-Jun-2019</span></td><td>-</td></tr></table></div>"
        },
        "status": "completed",
        "performedDateTime": "2019-06-22",
        "subject": {
          "reference": "urn:uuid:",
          "display": "Aniela Sacharczuk"
        }
      }
    },
    {
      "fullUrl": "urn:uuid:4f73ac41-e947-4fcb-badd-c18a7c5cb4ae",
      "resource": {
        "resourceType": "Procedure",
        "id": "4f73ac41-e947-4fcb-badd-c18a7c5cb4ae",
        "meta": {
          "profile": [
            "http://hl7.org/fhir/uv/ips/StructureDefinition/Procedure-uv-ips"
          ]
        },
        "code": {
          "coding": [
            {
              "code": "274474001",
              "system": "http://snomed.info/sct",
              "display": "Bone immobilization"
            }
          ],
          "text": "Bone immobilization"
        },
        "reasonCode": [
          {
            "coding": [
              {
                "code": "16114001",
                "system": "http://snomed.info/sct",
                "display": "Fracture of ankle"
              }
            ]
          }
        ],
        "text": {
          "status": "generated",
          "div": "<div xmlns=\"http://www.w3.org/1999/xhtml\"><table class=\"hl7__ips\"><tr><td>Bone immobilization</td><td><span class=\"nb\">22-Jun-2019</span></td><td>Fracture of ankle</td></tr></table></div>"
        },
        "status": "completed",
        "performedDateTime": "2019-06-22",
        "subject": {
          "reference": "urn:uuid:",
          "display": "Aniela Sacharczuk"
        }
      }
    },
    {
      "fullUrl": "urn:uuid:96eeb964-9937-45f5-ade9-2aa4e07f2166",
      "resource": {
        "resourceType": "Procedure",
        "id": "96eeb964-9937-45f5-ade9-2aa4e07f2166",
        "meta": {
          "profile": [
            "http://hl7.org/fhir/uv/ips/StructureDefinition/Procedure-uv-ips"
          ]
        },
        "code": {
          "coding": [
            {
              "code": "430193006",
              "system": "http://snomed.info/sct",
              "display": "Medication Reconciliation (procedure)"
            }
          ],
          "text": "Medication reconciliation"
        },
        "text": {
          "status": "generated",
          "div": "<div xmlns=\"http://www.w3.org/1999/xhtml\"><table class=\"hl7__ips\"><tr><td>Medication reconciliation</td><td><span class=\"nb\">17-Oct-2017</span></td><td>-</td></tr></table></div>"
        },
        "status": "completed",
        "performedDateTime": "2017-10-17",
        "subject": {
          "reference": "urn:uuid:",
          "display": "Aniela Sacharczuk"
        }
      }
    },
    {
      "fullUrl": "urn:uuid:29f4ab28-d7ff-4812-9ad2-760db769445c",
      "resource": {
        "resourceType": "Procedure",
        "id": "29f4ab28-d7ff-4812-9ad2-760db769445c",
        "meta": {
          "profile": [
            "http://hl7.org/fhir/uv/ips/StructureDefinition/Procedure-uv-ips"
          ]
        },
        "code": {
          "coding": [
            {
              "code": "710824005",
              "system": "http://snomed.info/sct",
              "display": "Assessment of health and social care needs (procedure)"
            }
          ],
          "text": "Assessment of health and social care needs"
        },
        "text": {
          "status": "generated",
          "div": "<div xmlns=\"http://www.w3.org/1999/xhtml\"><table class=\"hl7__ips\"><tr><td>Assessment of health and social care needs</td><td><span class=\"nb\">17-Oct-2017</span></td><td>-</td></tr></table></div>"
        },
        "status": "completed",
        "performedDateTime": "2017-10-17",
        "subject": {
          "reference": "urn:uuid:",
          "display": "Aniela Sacharczuk"
        }
      }
    },
    {
      "fullUrl": "urn:uuid:e23dc117-2d2b-4e1d-97e6-ea73c86f0082",
      "resource": {
        "resourceType": "Procedure",
        "id": "e23dc117-2d2b-4e1d-97e6-ea73c86f0082",
        "meta": {
          "profile": [
            "http://hl7.org/fhir/uv/ips/StructureDefinition/Procedure-uv-ips"
          ]
        },
        "code": {
          "coding": [
            {
              "code": "710841007",
              "system": "http://snomed.info/sct",
              "display": "Assessment of anxiety (procedure)"
            }
          ],
          "text": "Assessment of anxiety"
        },
        "text": {
          "status": "generated",
          "div": "<div xmlns=\"http://www.w3.org/1999/xhtml\"><table class=\"hl7__ips\"><tr><td>Assessment of anxiety</td><td><span class=\"nb\">17-Oct-2017</span></td><td>-</td></tr></table></div>"
        },
        "status": "completed",
        "performedDateTime": "2017-10-17",
        "subject": {
          "reference": "urn:uuid:",
          "display": "Aniela Sacharczuk"
        }
      }
    },
    {
      "fullUrl": "urn:uuid:af78bfb7-802d-4276-b54f-52171cf85de0",
      "resource": {
        "resourceType": "Procedure",
        "id": "af78bfb7-802d-4276-b54f-52171cf85de0",
        "meta": {
          "profile": [
            "http://hl7.org/fhir/uv/ips/StructureDefinition/Procedure-uv-ips"
          ]
        },
        "code": {
          "coding": [
            {
              "code": "713106006",
              "system": "http://snomed.info/sct",
              "display": "Screening for drug abuse (procedure)"
            }
          ],
          "text": "Screening for drug abuse"
        },
        "text": {
          "status": "generated",
          "div": "<div xmlns=\"http://www.w3.org/1999/xhtml\"><table class=\"hl7__ips\"><tr><td>Screening for drug abuse</td><td><span class=\"nb\">17-Oct-2017</span></td><td>-</td></tr></table></div>"
        },
        "status": "completed",
        "performedDateTime": "2017-10-17",
        "subject": {
          "reference": "urn:uuid:",
          "display": "Aniela Sacharczuk"
        }
      }
    },
    {
      "fullUrl": "urn:uuid:e01ee05c-4460-48de-9423-71d407fa772a",
      "resource": {
        "resourceType": "Procedure",
        "id": "e01ee05c-4460-48de-9423-71d407fa772a",
        "meta": {
          "profile": [
            "http://hl7.org/fhir/uv/ips/StructureDefinition/Procedure-uv-ips"
          ]
        },
        "code": {
          "coding": [
            {
              "code": "428211000124100",
              "system": "http://snomed.info/sct",
              "display": "Assessment of substance use (procedure)"
            }
          ],
          "text": "Assessment of substance use"
        },
        "text": {
          "status": "generated",
          "div": "<div xmlns=\"http://www.w3.org/1999/xhtml\"><table class=\"hl7__ips\"><tr><td>Assessment of substance use</td><td><span class=\"nb\">17-Oct-2017</span></td><td>-</td></tr></table></div>"
        },
        "status": "completed",
        "performedDateTime": "2017-10-17",
        "subject": {
          "reference": "urn:uuid:",
          "display": "Aniela Sacharczuk"
        }
      }
    },
    {
      "fullUrl": "urn:uuid:158c231a-c9f8-48e4-b39b-d72a505f4a8f",
      "resource": {
        "resourceType": "AllergyIntolerance",
        "id": "158c231a-c9f8-48e4-b39b-d72a505f4a8f",
        "meta": {
          "profile": [
            "http://hl7.eu/fhir/eps/StructureDefinition/allergyIntolerance-eu-eps"
          ]
        },
        "code": {
          "text": ""
        },
        "clinicalStatus": {
          "coding": [
            {
              "code": "active",
              "system": "http://terminology.hl7.org/CodeSystem/allergyintolerance-clinical"
            }
          ]
        },
        "text": {
          "status": "generated",
          "div": "<div xmlns=\"http://www.w3.org/1999/xhtml\"><table class=\"hl7__ips\"><tr><th>Allergy/Intolerance</th><th>Onset Date</th><th>Status</th><th>Type</th><th>Reaction</th></tr><tr><td></td><td>?</td><td>active</td><td>?</td><td></td></tr></table></div>"
        },
        "verificationStatus": {
          "coding": [
            {
              "code": "confirmed",
              "system": "http://terminology.hl7.org/CodeSystem/allergyintolerance-verification"
            }
          ]
        },
        "patient": {
          "reference": "urn:uuid:6bd1a3af-d4b1-4d91-bc18-9912ca859c55",
          "display": "Aniela Sacharczuk"
        },
        "_onsetDateTime": {
          "extension": [
            {
              "url": "http://hl7.org/fhir/StructureDefinition/data-absent-reason",
              "valueCode": "unknown"
            }
          ]
        }
      }
    },
    {
      "fullUrl": "urn:uuid:b7f3577f-5fca-431c-b98e-038d81b4b16d",
      "resource": {
        "resourceType": "CarePlan",
        "id": "b7f3577f-5fca-431c-b98e-038d81b4b16d",
        "category": [
          {
            "coding": [
              {
                "code": "assess-plan",
                "system": "http://terminology.hl7.org/CodeSystem/care-plan-category",
                "display": "Assessment and Plan"
              }
            ]
          }
        ],
        "activity": [
          {
            "detail": {
              "code": {
                "coding": [
                  {
                    "code": "698360004",
                    "system": "http://snomed.info/sct",
                    "display": "Diabetes self management plan (qualifier value)"
                  }
                ]
              },
              "reasonCode": [
                {
                  "coding": [
                    {
                      "code": "15777000",
                      "system": "http://snomed.info/sct",
                      "display": "Prediabetes"
                    }
                  ]
                }
              ],
              "status": "unknown",
              "description": "Diabetes self management plan",
              "kind": "Appointment"
            }
          }
        ],
        "period": {
          "start": "2012-10-30"
        },
        "goal": [
          {
            "reference": "urn:uuid:f52ee60d-1d14-4aed-aacd-f6d461f803be"
          },
          {
            "reference": "urn:uuid:994dc907-a551-4057-9e46-7e0ff938a841"
          },
          {
            "reference": "urn:uuid:14d3a392-eee5-4d52-b60c-4e25a576cb3d"
          },
          {
            "reference": "urn:uuid:84a08842-b8de-4b5c-9beb-4cf6e2580ee0"
          }
        ],
        "text": {
          "status": "generated",
          "div": "<div xmlns=\"http://www.w3.org/1999/xhtml\"><table class=\"hl7__ips first25\"><tr><th>Active Planned Care / Goals</th><th>Start Date</th><th>Reason</th></tr><tr><td>Diabetes self management plan</td><td><span class=\"nb\">30-Oct-2012</span></td><td>Prediabetes</td></tr><tr><td><ul><li>Achieve and maintain a healthy body weight to reduce risk of progression to diabetes.</li><li>Maintain hemoglobin A1c below 6.5% to prevent progression to diabetes.</li><li>Maintain blood pressure below 130/80 mmHg to reduce cardiovascular and diabetes risk.</li><li>Engage in at least 150 minutes of moderate-intensity physical activity per week.</li></ul></td><td></td><td></td></tr></table></div>"
        },
        "status": "active",
        "intent": "plan",
        "subject": {
          "reference": "urn:uuid:6bd1a3af-d4b1-4d91-bc18-9912ca859c55",
          "display": "Aniela Sacharczuk"
        }
      }
    },
    {
      "fullUrl": "urn:uuid:33674d6d-d911-4d60-affc-0c577b7087fd",
      "resource": {
        "resourceType": "CarePlan",
        "id": "33674d6d-d911-4d60-affc-0c577b7087fd",
        "category": [
          {
            "coding": [
              {
                "code": "assess-plan",
                "system": "http://terminology.hl7.org/CodeSystem/care-plan-category",
                "display": "Assessment and Plan"
              }
            ]
          }
        ],
        "activity": [
          {
            "detail": {
              "code": {
                "coding": [
                  {
                    "code": "443402002",
                    "system": "http://snomed.info/sct",
                    "display": "Lifestyle education regarding hypertension (procedure)"
                  }
                ]
              },
              "reasonCode": [
                {
                  "coding": [
                    {
                      "code": "59621000",
                      "system": "http://snomed.info/sct",
                      "display": "Essential hypertension (disorder)"
                    }
                  ]
                }
              ],
              "status": "unknown",
              "description": "Lifestyle education regarding hypertension",
              "kind": "Appointment"
            }
          }
        ],
        "period": {
          "start": "2007-10-02"
        },
        "goal": [
          {
            "reference": "urn:uuid:bb7dcd16-f2ba-4a92-8058-7bb1d5bf10f3"
          },
          {
            "reference": "urn:uuid:509c97b9-41e1-4fd1-aae0-a5ad54d1b98f"
          },
          {
            "reference": "urn:uuid:edbbf151-aa0b-4b9c-a2e4-c2ac7adca6f9"
          },
          {
            "reference": "urn:uuid:3b12a62e-5713-4c45-a098-aa198781747e"
          }
        ],
        "text": {
          "status": "generated",
          "div": "<div xmlns=\"http://www.w3.org/1999/xhtml\"><table class=\"hl7__ips first25\"><tr><th>Active Planned Care / Goals</th><th>Start Date</th><th>Reason</th></tr><tr><td>Lifestyle education regarding hypertension</td><td><span class=\"nb\">02-Oct-2007</span></td><td>Essential hypertension (disorder)</td></tr><tr><td><ul><li>Reduce and maintain blood pressure below 130/80 mmHg through lifestyle modifications.</li><li>Lose at least 5% of baseline body weight to aid in hypertension management.</li><li>Engage in at least 150 minutes of moderate-intensity aerobic physical activity per week.</li><li>Limit dietary sodium intake to less than 2.3 grams per day.</li></ul></td><td></td><td></td></tr></table></div>"
        },
        "status": "active",
        "intent": "plan",
        "subject": {
          "reference": "urn:uuid:6bd1a3af-d4b1-4d91-bc18-9912ca859c55",
          "display": "Aniela Sacharczuk"
        }
      }
    },
    {
      "fullUrl": "urn:uuid:06d066db-9604-4c7d-a3dc-d7a531967cc9",
      "resource": {
        "resourceType": "Observation",
        "id": "06d066db-9604-4c7d-a3dc-d7a531967cc9",
        "meta": {
          "profile": [
            "http://hl7.org/fhir/StructureDefinition/vitalsigns"
          ]
        },
        "category": [
          {
            "coding": [
              {
                "system": "http://terminology.hl7.org/CodeSystem/observation-category",
                "code": "vital-signs",
                "display": "Vital Signs"
              }
            ]
          }
        ],
        "valueQuantity": {
          "value": 162.4,
          "code": "cm",
          "unit": "cm"
        },
        "text": {
          "status": "generated",
          "div": "<div xmlns=\"http://www.w3.org/1999/xhtml\"><table class=\"hl7__ips\"><tr><th>Vital Sign</th><th>Date</th><th>Measurement</th></tr><tr><td>Body Height</td><td>07-Jan-2025</td><td>162.4 cm</td></tr></table></div>"
        },
        "status": "final",
        "code": {
          "coding": [
            {
              "code": "$8302-2",
              "system": "http://loinc.org",
              "display": "Body Height"
            }
          ]
        },
        "subject": {
          "reference": "urn:uuid:6bd1a3af-d4b1-4d91-bc18-9912ca859c55",
          "display": "Aniela Sacharczuk"
        },
        "effectiveDateTime": "2025-01-07"
      }
    },
    {
      "fullUrl": "urn:uuid:f315fd1b-3671-4d0c-80b5-da6ad9bcaa3b",
      "resource": {
        "resourceType": "Observation",
        "id": "f315fd1b-3671-4d0c-80b5-da6ad9bcaa3b",
        "meta": {
          "profile": [
            "http://hl7.org/fhir/StructureDefinition/vitalsigns"
          ]
        },
        "category": [
          {
            "coding": [
              {
                "system": "http://terminology.hl7.org/CodeSystem/observation-category",
                "code": "vital-signs",
                "display": "Vital Signs"
              }
            ]
          }
        ],
        "valueQuantity": {
          "value": 1,
          "code": "{score}",
          "unit": "{score}"
        },
        "text": {
          "status": "generated",
          "div": "<div xmlns=\"http://www.w3.org/1999/xhtml\"><table class=\"hl7__ips\"><tr><th>Vital Sign</th><th>Date</th><th>Measurement</th></tr><tr><td>Pain severity - 0-10 verbal numeric rating [Score] - Reported</td><td>07-Jan-2025</td><td>1 {score}</td></tr></table></div>"
        },
        "status": "final",
        "code": {
          "coding": [
            {
              "code": "$72514-3",
              "system": "http://loinc.org",
              "display": "Pain severity - 0-10 verbal numeric rating [Score] - Reported"
            }
          ]
        },
        "subject": {
          "reference": "urn:uuid:6bd1a3af-d4b1-4d91-bc18-9912ca859c55",
          "display": "Aniela Sacharczuk"
        },
        "effectiveDateTime": "2025-01-07"
      }
    },
    {
      "fullUrl": "urn:uuid:ac561df9-17af-4b4e-8240-d8fec10c353a",
      "resource": {
        "resourceType": "Observation",
        "id": "ac561df9-17af-4b4e-8240-d8fec10c353a",
        "meta": {
          "profile": [
            "http://hl7.org/fhir/StructureDefinition/vitalsigns"
          ]
        },
        "category": [
          {
            "coding": [
              {
                "system": "http://terminology.hl7.org/CodeSystem/observation-category",
                "code": "vital-signs",
                "display": "Vital Signs"
              }
            ]
          }
        ],
        "valueQuantity": {
          "value": 72.6,
          "code": "kg",
          "unit": "kg"
        },
        "text": {
          "status": "generated",
          "div": "<div xmlns=\"http://www.w3.org/1999/xhtml\"><table class=\"hl7__ips\"><tr><th>Vital Sign</th><th>Date</th><th>Measurement</th></tr><tr><td>Body Weight</td><td>07-Jan-2025</td><td>72.6 kg</td></tr></table></div>"
        },
        "status": "final",
        "code": {
          "coding": [
            {
              "code": "$29463-7",
              "system": "http://loinc.org",
              "display": "Body Weight"
            }
          ]
        },
        "subject": {
          "reference": "urn:uuid:6bd1a3af-d4b1-4d91-bc18-9912ca859c55",
          "display": "Aniela Sacharczuk"
        },
        "effectiveDateTime": "2025-01-07"
      }
    },
    {
      "fullUrl": "urn:uuid:76a278e3-9631-4cea-8b09-d6ff5875dc39",
      "resource": {
        "resourceType": "Observation",
        "id": "76a278e3-9631-4cea-8b09-d6ff5875dc39",
        "meta": {
          "profile": [
            "http://hl7.org/fhir/StructureDefinition/vitalsigns"
          ]
        },
        "category": [
          {
            "coding": [
              {
                "system": "http://terminology.hl7.org/CodeSystem/observation-category",
                "code": "vital-signs",
                "display": "Vital Signs"
              }
            ]
          }
        ],
        "valueQuantity": {
          "value": 27.5,
          "code": "kg/m2",
          "unit": "kg/m2"
        },
        "text": {
          "status": "generated",
          "div": "<div xmlns=\"http://www.w3.org/1999/xhtml\"><table class=\"hl7__ips\"><tr><th>Vital Sign</th><th>Date</th><th>Measurement</th></tr><tr><td>Body mass index (BMI) [Ratio]</td><td>07-Jan-2025</td><td>27.5 kg/m2</td></tr></table></div>"
        },
        "status": "final",
        "code": {
          "coding": [
            {
              "code": "$39156-5",
              "system": "http://loinc.org",
              "display": "Body mass index (BMI) [Ratio]"
            }
          ]
        },
        "subject": {
          "reference": "urn:uuid:6bd1a3af-d4b1-4d91-bc18-9912ca859c55",
          "display": "Aniela Sacharczuk"
        },
        "effectiveDateTime": "2025-01-07"
      }
    },
    {
      "fullUrl": "urn:uuid:c0b113ba-c77b-4f2d-85a2-80a151b72ef8",
      "resource": {
        "resourceType": "Observation",
        "id": "c0b113ba-c77b-4f2d-85a2-80a151b72ef8",
        "meta": {
          "profile": [
            "http://hl7.org/fhir/StructureDefinition/vitalsigns"
          ]
        },
        "category": [
          {
            "coding": [
              {
                "system": "http://terminology.hl7.org/CodeSystem/observation-category",
                "code": "vital-signs",
                "display": "Vital Signs"
              }
            ]
          }
        ],
        "valueQuantity": {
          "value": 103,
          "code": "mm[Hg]",
          "unit": "mm[Hg]"
        },
        "text": {
          "status": "generated",
          "div": "<div xmlns=\"http://www.w3.org/1999/xhtml\"><table class=\"hl7__ips\"><tr><th>Vital Sign</th><th>Date</th><th>Measurement</th></tr><tr><td>Diastolic Blood Pressure</td><td>07-Jan-2025</td><td>103 mm[Hg]</td></tr></table></div>"
        },
        "status": "final",
        "code": {
          "coding": [
            {
              "code": "$8462-4",
              "system": "http://loinc.org",
              "display": "Diastolic Blood Pressure"
            }
          ]
        },
        "subject": {
          "reference": "urn:uuid:6bd1a3af-d4b1-4d91-bc18-9912ca859c55",
          "display": "Aniela Sacharczuk"
        },
        "effectiveDateTime": "2025-01-07"
      }
    },
    {
      "fullUrl": "urn:uuid:07e25c50-b8c1-4b1f-af4c-fba4a7be6e4d",
      "resource": {
        "resourceType": "Observation",
        "id": "07e25c50-b8c1-4b1f-af4c-fba4a7be6e4d",
        "meta": {
          "profile": [
            "http://hl7.org/fhir/StructureDefinition/vitalsigns"
          ]
        },
        "category": [
          {
            "coding": [
              {
                "system": "http://terminology.hl7.org/CodeSystem/observation-category",
                "code": "vital-signs",
                "display": "Vital Signs"
              }
            ]
          }
        ],
        "valueQuantity": {
          "value": 140,
          "code": "mm[Hg]",
          "unit": "mm[Hg]"
        },
        "text": {
          "status": "generated",
          "div": "<div xmlns=\"http://www.w3.org/1999/xhtml\"><table class=\"hl7__ips\"><tr><th>Vital Sign</th><th>Date</th><th>Measurement</th></tr><tr><td>Systolic Blood Pressure</td><td>07-Jan-2025</td><td>140 mm[Hg]</td></tr></table></div>"
        },
        "status": "final",
        "code": {
          "coding": [
            {
              "code": "$8480-6",
              "system": "http://loinc.org",
              "display": "Systolic Blood Pressure"
            }
          ]
        },
        "subject": {
          "reference": "urn:uuid:6bd1a3af-d4b1-4d91-bc18-9912ca859c55",
          "display": "Aniela Sacharczuk"
        },
        "effectiveDateTime": "2025-01-07"
      }
    },
    {
      "fullUrl": "urn:uuid:a8ae12cb-8ab5-4631-bf75-ed2f077d21ab",
      "resource": {
        "resourceType": "Observation",
        "id": "a8ae12cb-8ab5-4631-bf75-ed2f077d21ab",
        "meta": {
          "profile": [
            "http://hl7.org/fhir/StructureDefinition/vitalsigns"
          ]
        },
        "category": [
          {
            "coding": [
              {
                "system": "http://terminology.hl7.org/CodeSystem/observation-category",
                "code": "vital-signs",
                "display": "Vital Signs"
              }
            ]
          }
        ],
        "valueQuantity": {
          "value": 72,
          "code": "/min",
          "unit": "/min"
        },
        "text": {
          "status": "generated",
          "div": "<div xmlns=\"http://www.w3.org/1999/xhtml\"><table class=\"hl7__ips\"><tr><th>Vital Sign</th><th>Date</th><th>Measurement</th></tr><tr><td>Heart rate</td><td>07-Jan-2025</td><td>72 /min</td></tr></table></div>"
        },
        "status": "final",
        "code": {
          "coding": [
            {
              "code": "$8867-4",
              "system": "http://loinc.org",
              "display": "Heart rate"
            }
          ]
        },
        "subject": {
          "reference": "urn:uuid:6bd1a3af-d4b1-4d91-bc18-9912ca859c55",
          "display": "Aniela Sacharczuk"
        },
        "effectiveDateTime": "2025-01-07"
      }
    },
    {
      "fullUrl": "urn:uuid:07f5dd4b-ffc9-4906-b8b3-ac1cfb8e3a20",
      "resource": {
        "resourceType": "Observation",
        "id": "07f5dd4b-ffc9-4906-b8b3-ac1cfb8e3a20",
        "meta": {
          "profile": [
            "http://hl7.org/fhir/StructureDefinition/vitalsigns"
          ]
        },
        "category": [
          {
            "coding": [
              {
                "system": "http://terminology.hl7.org/CodeSystem/observation-category",
                "code": "vital-signs",
                "display": "Vital Signs"
              }
            ]
          }
        ],
        "valueQuantity": {
          "value": 14,
          "code": "/min",
          "unit": "/min"
        },
        "text": {
          "status": "generated",
          "div": "<div xmlns=\"http://www.w3.org/1999/xhtml\"><table class=\"hl7__ips\"><tr><th>Vital Sign</th><th>Date</th><th>Measurement</th></tr><tr><td>Respiratory rate</td><td>07-Jan-2025</td><td>14 /min</td></tr></table></div>"
        },
        "status": "final",
        "code": {
          "coding": [
            {
              "code": "$9279-1",
              "system": "http://loinc.org",
              "display": "Respiratory rate"
            }
          ]
        },
        "subject": {
          "reference": "urn:uuid:6bd1a3af-d4b1-4d91-bc18-9912ca859c55",
          "display": "Aniela Sacharczuk"
        },
        "effectiveDateTime": "2025-01-07"
      }
    },
    {
      "fullUrl": "urn:uuid:1231bc70-f4a3-482e-b7de-5157a23c2bc2",
      "resource": {
        "resourceType": "Observation",
        "id": "1231bc70-f4a3-482e-b7de-5157a23c2bc2",
        "meta": {
          "profile": [
            "http://hl7.org/fhir/StructureDefinition/vitalsigns"
          ]
        },
        "category": [
          {
            "coding": [
              {
                "system": "http://terminology.hl7.org/CodeSystem/observation-category",
                "code": "vital-signs",
                "display": "Vital Signs"
              }
            ]
          }
        ],
        "valueQuantity": {
          "value": 162.4,
          "code": "cm",
          "unit": "cm"
        },
        "text": {
          "status": "generated",
          "div": "<div xmlns=\"http://www.w3.org/1999/xhtml\"><table class=\"hl7__ips\"><tr><th>Vital Sign</th><th>Date</th><th>Measurement</th></tr><tr><td>Body Height</td><td>02-Jan-2024</td><td>162.4 cm</td></tr></table></div>"
        },
        "status": "final",
        "code": {
          "coding": [
            {
              "code": "$8302-2",
              "system": "http://loinc.org",
              "display": "Body Height"
            }
          ]
        },
        "subject": {
          "reference": "urn:uuid:6bd1a3af-d4b1-4d91-bc18-9912ca859c55",
          "display": "Aniela Sacharczuk"
        },
        "effectiveDateTime": "2024-01-02"
      }
    },
    {
      "fullUrl": "urn:uuid:d567d1d8-d2a7-47e5-b257-4cb5c5202b67",
      "resource": {
        "resourceType": "Observation",
        "id": "d567d1d8-d2a7-47e5-b257-4cb5c5202b67",
        "meta": {
          "profile": [
            "http://hl7.org/fhir/StructureDefinition/vitalsigns"
          ]
        },
        "category": [
          {
            "coding": [
              {
                "system": "http://terminology.hl7.org/CodeSystem/observation-category",
                "code": "vital-signs",
                "display": "Vital Signs"
              }
            ]
          }
        ],
        "valueQuantity": {
          "value": 2,
          "code": "{score}",
          "unit": "{score}"
        },
        "text": {
          "status": "generated",
          "div": "<div xmlns=\"http://www.w3.org/1999/xhtml\"><table class=\"hl7__ips\"><tr><th>Vital Sign</th><th>Date</th><th>Measurement</th></tr><tr><td>Pain severity - 0-10 verbal numeric rating [Score] - Reported</td><td>02-Jan-2024</td><td>2 {score}</td></tr></table></div>"
        },
        "status": "final",
        "code": {
          "coding": [
            {
              "code": "$72514-3",
              "system": "http://loinc.org",
              "display": "Pain severity - 0-10 verbal numeric rating [Score] - Reported"
            }
          ]
        },
        "subject": {
          "reference": "urn:uuid:6bd1a3af-d4b1-4d91-bc18-9912ca859c55",
          "display": "Aniela Sacharczuk"
        },
        "effectiveDateTime": "2024-01-02"
      }
    },
    {
      "fullUrl": "urn:uuid:d7cbf8a9-0575-456a-975b-c9f930d963aa",
      "resource": {
        "resourceType": "Observation",
        "id": "d7cbf8a9-0575-456a-975b-c9f930d963aa",
        "meta": {
          "profile": [
            "http://hl7.org/fhir/StructureDefinition/vitalsigns"
          ]
        },
        "category": [
          {
            "coding": [
              {
                "system": "http://terminology.hl7.org/CodeSystem/observation-category",
                "code": "vital-signs",
                "display": "Vital Signs"
              }
            ]
          }
        ],
        "valueQuantity": {
          "value": 72.6,
          "code": "kg",
          "unit": "kg"
        },
        "text": {
          "status": "generated",
          "div": "<div xmlns=\"http://www.w3.org/1999/xhtml\"><table class=\"hl7__ips\"><tr><th>Vital Sign</th><th>Date</th><th>Measurement</th></tr><tr><td>Body Weight</td><td>02-Jan-2024</td><td>72.6 kg</td></tr></table></div>"
        },
        "status": "final",
        "code": {
          "coding": [
            {
              "code": "$29463-7",
              "system": "http://loinc.org",
              "display": "Body Weight"
            }
          ]
        },
        "subject": {
          "reference": "urn:uuid:6bd1a3af-d4b1-4d91-bc18-9912ca859c55",
          "display": "Aniela Sacharczuk"
        },
        "effectiveDateTime": "2024-01-02"
      }
    },
    {
      "fullUrl": "urn:uuid:46d7c514-c053-4544-9967-8b82c0422246",
      "resource": {
        "resourceType": "Observation",
        "id": "46d7c514-c053-4544-9967-8b82c0422246",
        "meta": {
          "profile": [
            "http://hl7.org/fhir/StructureDefinition/vitalsigns"
          ]
        },
        "category": [
          {
            "coding": [
              {
                "system": "http://terminology.hl7.org/CodeSystem/observation-category",
                "code": "vital-signs",
                "display": "Vital Signs"
              }
            ]
          }
        ],
        "valueQuantity": {
          "value": 27.5,
          "code": "kg/m2",
          "unit": "kg/m2"
        },
        "text": {
          "status": "generated",
          "div": "<div xmlns=\"http://www.w3.org/1999/xhtml\"><table class=\"hl7__ips\"><tr><th>Vital Sign</th><th>Date</th><th>Measurement</th></tr><tr><td>Body mass index (BMI) [Ratio]</td><td>02-Jan-2024</td><td>27.5 kg/m2</td></tr></table></div>"
        },
        "status": "final",
        "code": {
          "coding": [
            {
              "code": "$39156-5",
              "system": "http://loinc.org",
              "display": "Body mass index (BMI) [Ratio]"
            }
          ]
        },
        "subject": {
          "reference": "urn:uuid:6bd1a3af-d4b1-4d91-bc18-9912ca859c55",
          "display": "Aniela Sacharczuk"
        },
        "effectiveDateTime": "2024-01-02"
      }
    },
    {
      "fullUrl": "urn:uuid:52543ec2-0dea-4389-bccc-4090f908493d",
      "resource": {
        "resourceType": "Observation",
        "id": "52543ec2-0dea-4389-bccc-4090f908493d",
        "meta": {
          "profile": [
            "http://hl7.org/fhir/StructureDefinition/vitalsigns"
          ]
        },
        "category": [
          {
            "coding": [
              {
                "system": "http://terminology.hl7.org/CodeSystem/observation-category",
                "code": "vital-signs",
                "display": "Vital Signs"
              }
            ]
          }
        ],
        "valueQuantity": {
          "value": 101,
          "code": "mm[Hg]",
          "unit": "mm[Hg]"
        },
        "text": {
          "status": "generated",
          "div": "<div xmlns=\"http://www.w3.org/1999/xhtml\"><table class=\"hl7__ips\"><tr><th>Vital Sign</th><th>Date</th><th>Measurement</th></tr><tr><td>Diastolic Blood Pressure</td><td>02-Jan-2024</td><td>101 mm[Hg]</td></tr></table></div>"
        },
        "status": "final",
        "code": {
          "coding": [
            {
              "code": "$8462-4",
              "system": "http://loinc.org",
              "display": "Diastolic Blood Pressure"
            }
          ]
        },
        "subject": {
          "reference": "urn:uuid:6bd1a3af-d4b1-4d91-bc18-9912ca859c55",
          "display": "Aniela Sacharczuk"
        },
        "effectiveDateTime": "2024-01-02"
      }
    },
    {
      "fullUrl": "urn:uuid:cfac3fb8-773c-44a9-9be1-9bc9035b0146",
      "resource": {
        "resourceType": "Observation",
        "id": "cfac3fb8-773c-44a9-9be1-9bc9035b0146",
        "meta": {
          "profile": [
            "http://hl7.org/fhir/StructureDefinition/vitalsigns"
          ]
        },
        "category": [
          {
            "coding": [
              {
                "system": "http://terminology.hl7.org/CodeSystem/observation-category",
                "code": "vital-signs",
                "display": "Vital Signs"
              }
            ]
          }
        ],
        "valueQuantity": {
          "value": 140,
          "code": "mm[Hg]",
          "unit": "mm[Hg]"
        },
        "text": {
          "status": "generated",
          "div": "<div xmlns=\"http://www.w3.org/1999/xhtml\"><table class=\"hl7__ips\"><tr><th>Vital Sign</th><th>Date</th><th>Measurement</th></tr><tr><td>Systolic Blood Pressure</td><td>02-Jan-2024</td><td>140 mm[Hg]</td></tr></table></div>"
        },
        "status": "final",
        "code": {
          "coding": [
            {
              "code": "$8480-6",
              "system": "http://loinc.org",
              "display": "Systolic Blood Pressure"
            }
          ]
        },
        "subject": {
          "reference": "urn:uuid:6bd1a3af-d4b1-4d91-bc18-9912ca859c55",
          "display": "Aniela Sacharczuk"
        },
        "effectiveDateTime": "2024-01-02"
      }
    },
    {
      "fullUrl": "urn:uuid:c47cdcb4-0545-49ea-b290-b7c4fecfc1b5",
      "resource": {
        "resourceType": "Observation",
        "id": "c47cdcb4-0545-49ea-b290-b7c4fecfc1b5",
        "meta": {
          "profile": [
            "http://hl7.org/fhir/StructureDefinition/vitalsigns"
          ]
        },
        "category": [
          {
            "coding": [
              {
                "system": "http://terminology.hl7.org/CodeSystem/observation-category",
                "code": "vital-signs",
                "display": "Vital Signs"
              }
            ]
          }
        ],
        "valueQuantity": {
          "value": 99,
          "code": "/min",
          "unit": "/min"
        },
        "text": {
          "status": "generated",
          "div": "<div xmlns=\"http://www.w3.org/1999/xhtml\"><table class=\"hl7__ips\"><tr><th>Vital Sign</th><th>Date</th><th>Measurement</th></tr><tr><td>Heart rate</td><td>02-Jan-2024</td><td>99 /min</td></tr></table></div>"
        },
        "status": "final",
        "code": {
          "coding": [
            {
              "code": "$8867-4",
              "system": "http://loinc.org",
              "display": "Heart rate"
            }
          ]
        },
        "subject": {
          "reference": "urn:uuid:6bd1a3af-d4b1-4d91-bc18-9912ca859c55",
          "display": "Aniela Sacharczuk"
        },
        "effectiveDateTime": "2024-01-02"
      }
    },
    {
      "fullUrl": "urn:uuid:ba5ebb8a-dfa3-4f94-ba60-c1949f881602",
      "resource": {
        "resourceType": "Observation",
        "id": "ba5ebb8a-dfa3-4f94-ba60-c1949f881602",
        "meta": {
          "profile": [
            "http://hl7.org/fhir/StructureDefinition/vitalsigns"
          ]
        },
        "category": [
          {
            "coding": [
              {
                "system": "http://terminology.hl7.org/CodeSystem/observation-category",
                "code": "vital-signs",
                "display": "Vital Signs"
              }
            ]
          }
        ],
        "valueQuantity": {
          "value": 15,
          "code": "/min",
          "unit": "/min"
        },
        "text": {
          "status": "generated",
          "div": "<div xmlns=\"http://www.w3.org/1999/xhtml\"><table class=\"hl7__ips\"><tr><th>Vital Sign</th><th>Date</th><th>Measurement</th></tr><tr><td>Respiratory rate</td><td>02-Jan-2024</td><td>15 /min</td></tr></table></div>"
        },
        "status": "final",
        "code": {
          "coding": [
            {
              "code": "$9279-1",
              "system": "http://loinc.org",
              "display": "Respiratory rate"
            }
          ]
        },
        "subject": {
          "reference": "urn:uuid:6bd1a3af-d4b1-4d91-bc18-9912ca859c55",
          "display": "Aniela Sacharczuk"
        },
        "effectiveDateTime": "2024-01-02"
      }
    },
    {
      "fullUrl": "urn:uuid:c5e4d5b3-254f-46df-9cde-5787b1b7c829",
      "resource": {
        "resourceType": "Observation",
        "id": "c5e4d5b3-254f-46df-9cde-5787b1b7c829",
        "meta": {
          "profile": [
            "http://hl7.eu/fhir/laboratory/StructureDefinition/Observation-resultslab-eu-lab"
          ]
        },
        "performer": [
          {
            "display": "The Central European Lab"
          }
        ],
        "category": [
          {
            "coding": [
              {
                "system": "http://terminology.hl7.org/CodeSystem/observation-category",
                "code": "laboratory"
              }
            ]
          }
        ],
        "code": {
          "coding": [
            {
              "code": "4548-4",
              "system": "http://loinc.org",
              "display": "Hemoglobin A1c/Hemoglobin.total in Blood"
            }
          ],
          "text": "Hemoglobin A1c/Hemoglobin.total in Blood"
        },
        "valueQuantity": {
          "system": "http://unitsofmeasure.org",
          "value": 6.2,
          "unit": "%",
          "code": "%"
        },
        "referenceRange": [
          {
            "low": {
              "value": 4.8,
              "code": "%",
              "system": "http://unitsofmeasure.org"
            }
          },
          {
            "high": {
              "value": 5.7,
              "code": "%",
              "system": "http://unitsofmeasure.org"
            }
          }
        ],
        "interpretation": [
          {
            "coding": [
              {
                "code": "H",
                "system": "http://terminology.hl7.org/CodeSystem/v3-ObservationInterpretation",
                "display": "High"
              }
            ]
          }
        ],
        "text": {
          "status": "generated",
          "div": "<div xmlns=\"http://www.w3.org/1999/xhtml\"><table class=\"hl7__eu__lab__report\"><tr><th>Test</th><th>07-Jan-2025</th><th>Reference&#xA0;Range</th><th>Unit</th></tr><tr><td>Hemoglobin A1c/Hemoglobin.total in Blood</td><td>6.2</td><td>4.8 - 5.7</td><td>H</td><td>%</td></tr></table></div>"
        },
        "status": "final",
        "subject": {
          "reference": "urn:uuid:6bd1a3af-d4b1-4d91-bc18-9912ca859c55",
          "display": "Aniela Sacharczuk"
        },
        "effectiveDateTime": "2025-01-07T05:26:59Z"
      }
    },
    {
      "fullUrl": "urn:uuid:cf07e7cb-976a-40ce-9875-f0f9be9b3c3d",
      "resource": {
        "resourceType": "Observation",
        "id": "cf07e7cb-976a-40ce-9875-f0f9be9b3c3d",
        "meta": {
          "profile": [
            "http://hl7.eu/fhir/laboratory/StructureDefinition/Observation-resultslab-eu-lab"
          ]
        },
        "performer": [
          {
            "display": "The Central European Lab"
          }
        ],
        "category": [
          {
            "coding": [
              {
                "system": "http://terminology.hl7.org/CodeSystem/observation-category",
                "code": "laboratory"
              }
            ]
          }
        ],
        "code": {
          "coding": [
            {
              "code": "2339-0",
              "system": "http://loinc.org",
              "display": "Glucose [Mass/volume] in Blood"
            }
          ],
          "text": "Glucose [Mass/volume] in Blood"
        },
        "valueQuantity": {
          "system": "http://unitsofmeasure.org",
          "value": 76.8,
          "unit": "mg/dL",
          "code": "mg/dL"
        },
        "referenceRange": [
          {
            "low": {
              "value": 70,
              "code": "mg/dL",
              "system": "http://unitsofmeasure.org"
            }
          },
          {
            "high": {
              "value": 99,
              "code": "mg/dL",
              "system": "http://unitsofmeasure.org"
            }
          }
        ],
        "text": {
          "status": "generated",
          "div": "<div xmlns=\"http://www.w3.org/1999/xhtml\"><table class=\"hl7__eu__lab__report\"><tr><th>Test</th><th>07-Jan-2025</th><th>Reference&#xA0;Range</th><th>Unit</th></tr><tr><td>Glucose [Mass/volume] in Blood</td><td>76.8</td><td>70 - 99</td><td></td><td>mg/dL</td></tr></table></div>"
        },
        "status": "final",
        "subject": {
          "reference": "urn:uuid:6bd1a3af-d4b1-4d91-bc18-9912ca859c55",
          "display": "Aniela Sacharczuk"
        },
        "effectiveDateTime": "2025-01-07T05:26:59Z"
      }
    },
    {
      "fullUrl": "urn:uuid:7fd9717f-53ef-4e40-88cd-75b1dffa4f58",
      "resource": {
        "resourceType": "Observation",
        "id": "7fd9717f-53ef-4e40-88cd-75b1dffa4f58",
        "meta": {
          "profile": [
            "http://hl7.eu/fhir/laboratory/StructureDefinition/Observation-resultslab-eu-lab"
          ]
        },
        "performer": [
          {
            "display": "The Central European Lab"
          }
        ],
        "category": [
          {
            "coding": [
              {
                "system": "http://terminology.hl7.org/CodeSystem/observation-category",
                "code": "laboratory"
              }
            ]
          }
        ],
        "code": {
          "coding": [
            {
              "code": "6299-2",
              "system": "http://loinc.org",
              "display": "Urea nitrogen [Mass/volume] in Blood"
            }
          ],
          "text": "Urea nitrogen [Mass/volume] in Blood"
        },
        "valueQuantity": {
          "system": "http://unitsofmeasure.org",
          "value": 10.1,
          "unit": "mg/dL",
          "code": "mg/dL"
        },
        "referenceRange": [
          {
            "low": {
              "value": 7,
              "code": "mg/dL",
              "system": "http://unitsofmeasure.org"
            }
          },
          {
            "high": {
              "value": 20,
              "code": "mg/dL",
              "system": "http://unitsofmeasure.org"
            }
          }
        ],
        "text": {
          "status": "generated",
          "div": "<div xmlns=\"http://www.w3.org/1999/xhtml\"><table class=\"hl7__eu__lab__report\"><tr><th>Test</th><th>07-Jan-2025</th><th>Reference&#xA0;Range</th><th>Unit</th></tr><tr><td>Urea nitrogen [Mass/volume] in Blood</td><td>10.1</td><td>7 - 20</td><td></td><td>mg/dL</td></tr></table></div>"
        },
        "status": "final",
        "subject": {
          "reference": "urn:uuid:6bd1a3af-d4b1-4d91-bc18-9912ca859c55",
          "display": "Aniela Sacharczuk"
        },
        "effectiveDateTime": "2025-01-07T05:26:59Z"
      }
    },
    {
      "fullUrl": "urn:uuid:24fe7492-be04-428a-bae7-f87010b46cfa",
      "resource": {
        "resourceType": "Observation",
        "id": "24fe7492-be04-428a-bae7-f87010b46cfa",
        "meta": {
          "profile": [
            "http://hl7.eu/fhir/laboratory/StructureDefinition/Observation-resultslab-eu-lab"
          ]
        },
        "performer": [
          {
            "display": "The Central European Lab"
          }
        ],
        "category": [
          {
            "coding": [
              {
                "system": "http://terminology.hl7.org/CodeSystem/observation-category",
                "code": "laboratory"
              }
            ]
          }
        ],
        "code": {
          "coding": [
            {
              "code": "38483-4",
              "system": "http://loinc.org",
              "display": "Creatinine [Mass/volume] in Blood"
            }
          ],
          "text": "Creatinine [Mass/volume] in Blood"
        },
        "valueQuantity": {
          "system": "http://unitsofmeasure.org",
          "value": 0.7,
          "unit": "mg/dL",
          "code": "mg/dL"
        },
        "referenceRange": [
          {
            "low": {
              "value": 0.6,
              "code": "mg/dL",
              "system": "http://unitsofmeasure.org"
            }
          },
          {
            "high": {
              "value": 1.1,
              "code": "mg/dL",
              "system": "http://unitsofmeasure.org"
            }
          }
        ],
        "text": {
          "status": "generated",
          "div": "<div xmlns=\"http://www.w3.org/1999/xhtml\"><table class=\"hl7__eu__lab__report\"><tr><th>Test</th><th>07-Jan-2025</th><th>Reference&#xA0;Range</th><th>Unit</th></tr><tr><td>Creatinine [Mass/volume] in Blood</td><td>0.7</td><td>0.6 - 1.1</td><td></td><td>mg/dL</td></tr></table></div>"
        },
        "status": "final",
        "subject": {
          "reference": "urn:uuid:6bd1a3af-d4b1-4d91-bc18-9912ca859c55",
          "display": "Aniela Sacharczuk"
        },
        "effectiveDateTime": "2025-01-07T05:26:59Z"
      }
    },
    {
      "fullUrl": "urn:uuid:b6e963ef-0e38-494e-95b9-72518c92e674",
      "resource": {
        "resourceType": "Observation",
        "id": "b6e963ef-0e38-494e-95b9-72518c92e674",
        "meta": {
          "profile": [
            "http://hl7.eu/fhir/laboratory/StructureDefinition/Observation-resultslab-eu-lab"
          ]
        },
        "performer": [
          {
            "display": "The Central European Lab"
          }
        ],
        "category": [
          {
            "coding": [
              {
                "system": "http://terminology.hl7.org/CodeSystem/observation-category",
                "code": "laboratory"
              }
            ]
          }
        ],
        "code": {
          "coding": [
            {
              "code": "49765-1",
              "system": "http://loinc.org",
              "display": "Calcium [Mass/volume] in Blood"
            }
          ],
          "text": "Calcium [Mass/volume] in Blood"
        },
        "valueQuantity": {
          "system": "http://unitsofmeasure.org",
          "value": 9.8,
          "unit": "mg/dL",
          "code": "mg/dL"
        },
        "referenceRange": [
          {
            "low": {
              "value": 8.5,
              "code": "mg/dL",
              "system": "http://unitsofmeasure.org"
            }
          },
          {
            "high": {
              "value": 10.5,
              "code": "mg/dL",
              "system": "http://unitsofmeasure.org"
            }
          }
        ],
        "text": {
          "status": "generated",
          "div": "<div xmlns=\"http://www.w3.org/1999/xhtml\"><table class=\"hl7__eu__lab__report\"><tr><th>Test</th><th>07-Jan-2025</th><th>Reference&#xA0;Range</th><th>Unit</th></tr><tr><td>Calcium [Mass/volume] in Blood</td><td>9.8</td><td>8.5 - 10.5</td><td></td><td>mg/dL</td></tr></table></div>"
        },
        "status": "final",
        "subject": {
          "reference": "urn:uuid:6bd1a3af-d4b1-4d91-bc18-9912ca859c55",
          "display": "Aniela Sacharczuk"
        },
        "effectiveDateTime": "2025-01-07T05:26:59Z"
      }
    },
    {
      "fullUrl": "urn:uuid:02b0872c-f3db-4a03-bb68-ec298805ae18",
      "resource": {
        "resourceType": "Observation",
        "id": "02b0872c-f3db-4a03-bb68-ec298805ae18",
        "meta": {
          "profile": [
            "http://hl7.eu/fhir/laboratory/StructureDefinition/Observation-resultslab-eu-lab"
          ]
        },
        "performer": [
          {
            "display": "The Central European Lab"
          }
        ],
        "category": [
          {
            "coding": [
              {
                "system": "http://terminology.hl7.org/CodeSystem/observation-category",
                "code": "laboratory"
              }
            ]
          }
        ],
        "code": {
          "coding": [
            {
              "code": "2947-0",
              "system": "http://loinc.org",
              "display": "Sodium [Moles/volume] in Blood"
            }
          ],
          "text": "Sodium [Moles/volume] in Blood"
        },
        "valueQuantity": {
          "system": "http://unitsofmeasure.org",
          "value": 142.9,
          "unit": "mmol/L",
          "code": "mmol/L"
        },
        "referenceRange": [
          {
            "low": {
              "value": 135,
              "code": "mmol/L",
              "system": "http://unitsofmeasure.org"
            }
          },
          {
            "high": {
              "value": 145,
              "code": "mmol/L",
              "system": "http://unitsofmeasure.org"
            }
          }
        ],
        "text": {
          "status": "generated",
          "div": "<div xmlns=\"http://www.w3.org/1999/xhtml\"><table class=\"hl7__eu__lab__report\"><tr><th>Test</th><th>07-Jan-2025</th><th>Reference&#xA0;Range</th><th>Unit</th></tr><tr><td>Sodium [Moles/volume] in Blood</td><td>142.9</td><td>135 - 145</td><td></td><td>mmol/L</td></tr></table></div>"
        },
        "status": "final",
        "subject": {
          "reference": "urn:uuid:6bd1a3af-d4b1-4d91-bc18-9912ca859c55",
          "display": "Aniela Sacharczuk"
        },
        "effectiveDateTime": "2025-01-07T05:26:59Z"
      }
    },
    {
      "fullUrl": "urn:uuid:2d800695-c090-41c0-aed1-1c491d55642d",
      "resource": {
        "resourceType": "Observation",
        "id": "2d800695-c090-41c0-aed1-1c491d55642d",
        "meta": {
          "profile": [
            "http://hl7.eu/fhir/laboratory/StructureDefinition/Observation-resultslab-eu-lab"
          ]
        },
        "performer": [
          {
            "display": "The Central European Lab"
          }
        ],
        "category": [
          {
            "coding": [
              {
                "system": "http://terminology.hl7.org/CodeSystem/observation-category",
                "code": "laboratory"
              }
            ]
          }
        ],
        "code": {
          "coding": [
            {
              "code": "6298-4",
              "system": "http://loinc.org",
              "display": "Potassium [Moles/volume] in Blood"
            }
          ],
          "text": "Potassium [Moles/volume] in Blood"
        },
        "valueQuantity": {
          "system": "http://unitsofmeasure.org",
          "value": 4.1,
          "unit": "mmol/L",
          "code": "mmol/L"
        },
        "referenceRange": [
          {
            "low": {
              "value": 3.5,
              "code": "mmol/L",
              "system": "http://unitsofmeasure.org"
            }
          },
          {
            "high": {
              "value": 5.3,
              "code": "mmol/L",
              "system": "http://unitsofmeasure.org"
            }
          }
        ],
        "text": {
          "status": "generated",
          "div": "<div xmlns=\"http://www.w3.org/1999/xhtml\"><table class=\"hl7__eu__lab__report\"><tr><th>Test</th><th>07-Jan-2025</th><th>Reference&#xA0;Range</th><th>Unit</th></tr><tr><td>Potassium [Moles/volume] in Blood</td><td>4.1</td><td>3.5 - 5.3</td><td></td><td>mmol/L</td></tr></table></div>"
        },
        "status": "final",
        "subject": {
          "reference": "urn:uuid:6bd1a3af-d4b1-4d91-bc18-9912ca859c55",
          "display": "Aniela Sacharczuk"
        },
        "effectiveDateTime": "2025-01-07T05:26:59Z"
      }
    },
    {
      "fullUrl": "urn:uuid:fbc18f3e-f53d-498c-996b-80856e322fe4",
      "resource": {
        "resourceType": "Observation",
        "id": "fbc18f3e-f53d-498c-996b-80856e322fe4",
        "meta": {
          "profile": [
            "http://hl7.eu/fhir/laboratory/StructureDefinition/Observation-resultslab-eu-lab"
          ]
        },
        "performer": [
          {
            "display": "The Central European Lab"
          }
        ],
        "category": [
          {
            "coding": [
              {
                "system": "http://terminology.hl7.org/CodeSystem/observation-category",
                "code": "laboratory"
              }
            ]
          }
        ],
        "code": {
          "coding": [
            {
              "code": "2069-3",
              "system": "http://loinc.org",
              "display": "Chloride [Moles/volume] in Blood"
            }
          ],
          "text": "Chloride [Moles/volume] in Blood"
        },
        "valueQuantity": {
          "system": "http://unitsofmeasure.org",
          "value": 109.6,
          "unit": "mmol/L",
          "code": "mmol/L"
        },
        "referenceRange": [
          {
            "low": {
              "value": 98,
              "code": "mmol/L",
              "system": "http://unitsofmeasure.org"
            }
          },
          {
            "high": {
              "value": 114,
              "code": "mmol/L",
              "system": "http://unitsofmeasure.org"
            }
          }
        ],
        "text": {
          "status": "generated",
          "div": "<div xmlns=\"http://www.w3.org/1999/xhtml\"><table class=\"hl7__eu__lab__report\"><tr><th>Test</th><th>07-Jan-2025</th><th>Reference&#xA0;Range</th><th>Unit</th></tr><tr><td>Chloride [Moles/volume] in Blood</td><td>109.6</td><td>98 - 114</td><td></td><td>mmol/L</td></tr></table></div>"
        },
        "status": "final",
        "subject": {
          "reference": "urn:uuid:6bd1a3af-d4b1-4d91-bc18-9912ca859c55",
          "display": "Aniela Sacharczuk"
        },
        "effectiveDateTime": "2025-01-07T05:26:59Z"
      }
    },
    {
      "fullUrl": "urn:uuid:cc9435ae-82c8-4499-9f54-2772f8c91301",
      "resource": {
        "resourceType": "Observation",
        "id": "cc9435ae-82c8-4499-9f54-2772f8c91301",
        "meta": {
          "profile": [
            "http://hl7.eu/fhir/laboratory/StructureDefinition/Observation-resultslab-eu-lab"
          ]
        },
        "performer": [
          {
            "display": "The Central European Lab"
          }
        ],
        "category": [
          {
            "coding": [
              {
                "system": "http://terminology.hl7.org/CodeSystem/observation-category",
                "code": "laboratory"
              }
            ]
          }
        ],
        "code": {
          "coding": [
            {
              "code": "20565-8",
              "system": "http://loinc.org",
              "display": "Carbon dioxide, total [Moles/volume] in Blood"
            }
          ],
          "text": "Carbon dioxide, total [Moles/volume] in Blood"
        },
        "valueQuantity": {
          "system": "http://unitsofmeasure.org",
          "value": 23.5,
          "unit": "mmol/L",
          "code": "mmol/L"
        },
        "referenceRange": [
          {
            "low": {
              "value": 22,
              "code": "mmol/L",
              "system": "http://unitsofmeasure.org"
            }
          },
          {
            "high": {
              "value": 29,
              "code": "mmol/L",
              "system": "http://unitsofmeasure.org"
            }
          }
        ],
        "text": {
          "status": "generated",
          "div": "<div xmlns=\"http://www.w3.org/1999/xhtml\"><table class=\"hl7__eu__lab__report\"><tr><th>Test</th><th>07-Jan-2025</th><th>Reference&#xA0;Range</th><th>Unit</th></tr><tr><td>Carbon dioxide, total [Moles/volume] in Blood</td><td>23.5</td><td>22 - 29</td><td></td><td>mmol/L</td></tr></table></div>"
        },
        "status": "final",
        "subject": {
          "reference": "urn:uuid:6bd1a3af-d4b1-4d91-bc18-9912ca859c55",
          "display": "Aniela Sacharczuk"
        },
        "effectiveDateTime": "2025-01-07T05:26:59Z"
      }
    },
    {
      "fullUrl": "urn:uuid:b7573c00-6a51-4ff7-8792-0699998fe7be",
      "resource": {
        "resourceType": "Observation",
        "id": "b7573c00-6a51-4ff7-8792-0699998fe7be",
        "meta": {
          "profile": [
            "http://hl7.eu/fhir/laboratory/StructureDefinition/Observation-resultslab-eu-lab"
          ]
        },
        "performer": [
          {
            "display": "The Central European Lab"
          }
        ],
        "category": [
          {
            "coding": [
              {
                "system": "http://terminology.hl7.org/CodeSystem/observation-category",
                "code": "laboratory"
              }
            ]
          }
        ],
        "code": {
          "coding": [
            {
              "code": "6690-2",
              "system": "http://loinc.org",
              "display": "Leukocytes [#/volume] in Blood by Automated count"
            }
          ],
          "text": "Leukocytes [#/volume] in Blood by Automated count"
        },
        "valueQuantity": {
          "system": "http://unitsofmeasure.org",
          "value": 5.2,
          "unit": "10*3/uL",
          "code": "10*3/uL"
        },
        "referenceRange": [
          {
            "low": {
              "value": 3.4,
              "code": "10*3/uL",
              "system": "http://unitsofmeasure.org"
            }
          },
          {
            "high": {
              "value": 10.6,
              "code": "10*3/uL",
              "system": "http://unitsofmeasure.org"
            }
          }
        ],
        "text": {
          "status": "generated",
          "div": "<div xmlns=\"http://www.w3.org/1999/xhtml\"><table class=\"hl7__eu__lab__report\"><tr><th>Test</th><th>07-Jan-2025</th><th>Reference&#xA0;Range</th><th>Unit</th></tr><tr><td>Leukocytes [#/volume] in Blood by Automated count</td><td>5.2</td><td>3.4 - 10.6</td><td></td><td>10*3/uL</td></tr></table></div>"
        },
        "status": "final",
        "subject": {
          "reference": "urn:uuid:6bd1a3af-d4b1-4d91-bc18-9912ca859c55",
          "display": "Aniela Sacharczuk"
        },
        "effectiveDateTime": "2025-01-07T05:26:59Z"
      }
    },
    {
      "fullUrl": "urn:uuid:33d729ff-dd85-46be-a89d-0e42892b67f1",
      "resource": {
        "resourceType": "Observation",
        "id": "33d729ff-dd85-46be-a89d-0e42892b67f1",
        "meta": {
          "profile": [
            "http://hl7.eu/fhir/laboratory/StructureDefinition/Observation-resultslab-eu-lab"
          ]
        },
        "performer": [
          {
            "display": "The Central European Lab"
          }
        ],
        "category": [
          {
            "coding": [
              {
                "system": "http://terminology.hl7.org/CodeSystem/observation-category",
                "code": "laboratory"
              }
            ]
          }
        ],
        "code": {
          "coding": [
            {
              "code": "789-8",
              "system": "http://loinc.org",
              "display": "Erythrocytes [#/volume] in Blood by Automated count"
            }
          ],
          "text": "Erythrocytes [#/volume] in Blood by Automated count"
        },
        "valueQuantity": {
          "system": "http://unitsofmeasure.org",
          "value": 4,
          "unit": "10*6/uL",
          "code": "10*6/uL"
        },
        "referenceRange": [
          {
            "low": {
              "value": 4.2,
              "code": "10*6/uL",
              "system": "http://unitsofmeasure.org"
            }
          },
          {
            "high": {
              "value": 5.2,
              "code": "10*6/uL",
              "system": "http://unitsofmeasure.org"
            }
          }
        ],
        "interpretation": [
          {
            "coding": [
              {
                "code": "L",
                "system": "http://terminology.hl7.org/CodeSystem/v3-ObservationInterpretation",
                "display": "Low"
              }
            ]
          }
        ],
        "text": {
          "status": "generated",
          "div": "<div xmlns=\"http://www.w3.org/1999/xhtml\"><table class=\"hl7__eu__lab__report\"><tr><th>Test</th><th>07-Jan-2025</th><th>Reference&#xA0;Range</th><th>Unit</th></tr><tr><td>Erythrocytes [#/volume] in Blood by Automated count</td><td>4.0</td><td>4.2 - 5.2</td><td>L</td><td>10*6/uL</td></tr></table></div>"
        },
        "status": "final",
        "subject": {
          "reference": "urn:uuid:6bd1a3af-d4b1-4d91-bc18-9912ca859c55",
          "display": "Aniela Sacharczuk"
        },
        "effectiveDateTime": "2025-01-07T05:26:59Z"
      }
    },
    {
      "fullUrl": "urn:uuid:cc9d9adc-ed07-42dd-a3e6-8d134d58a586",
      "resource": {
        "resourceType": "Observation",
        "id": "cc9d9adc-ed07-42dd-a3e6-8d134d58a586",
        "meta": {
          "profile": [
            "http://hl7.eu/fhir/laboratory/StructureDefinition/Observation-resultslab-eu-lab"
          ]
        },
        "performer": [
          {
            "display": "The Central European Lab"
          }
        ],
        "category": [
          {
            "coding": [
              {
                "system": "http://terminology.hl7.org/CodeSystem/observation-category",
                "code": "laboratory"
              }
            ]
          }
        ],
        "code": {
          "coding": [
            {
              "code": "718-7",
              "system": "http://loinc.org",
              "display": "Hemoglobin [Mass/volume] in Blood"
            }
          ],
          "text": "Hemoglobin [Mass/volume] in Blood"
        },
        "valueQuantity": {
          "system": "http://unitsofmeasure.org",
          "value": 15.5,
          "unit": "g/dL",
          "code": "g/dL"
        },
        "referenceRange": [
          {
            "low": {
              "value": 12,
              "code": "g/dL",
              "system": "http://unitsofmeasure.org"
            }
          },
          {
            "high": {
              "value": 16,
              "code": "g/dL",
              "system": "http://unitsofmeasure.org"
            }
          }
        ],
        "text": {
          "status": "generated",
          "div": "<div xmlns=\"http://www.w3.org/1999/xhtml\"><table class=\"hl7__eu__lab__report\"><tr><th>Test</th><th>07-Jan-2025</th><th>Reference&#xA0;Range</th><th>Unit</th></tr><tr><td>Hemoglobin [Mass/volume] in Blood</td><td>15.5</td><td>12 - 16</td><td></td><td>g/dL</td></tr></table></div>"
        },
        "status": "final",
        "subject": {
          "reference": "urn:uuid:6bd1a3af-d4b1-4d91-bc18-9912ca859c55",
          "display": "Aniela Sacharczuk"
        },
        "effectiveDateTime": "2025-01-07T05:26:59Z"
      }
    },
    {
      "fullUrl": "urn:uuid:c6c7d418-c0af-45be-8ca1-4eb6f24dbea2",
      "resource": {
        "resourceType": "Observation",
        "id": "c6c7d418-c0af-45be-8ca1-4eb6f24dbea2",
        "meta": {
          "profile": [
            "http://hl7.eu/fhir/laboratory/StructureDefinition/Observation-resultslab-eu-lab"
          ]
        },
        "performer": [
          {
            "display": "The Central European Lab"
          }
        ],
        "category": [
          {
            "coding": [
              {
                "system": "http://terminology.hl7.org/CodeSystem/observation-category",
                "code": "laboratory"
              }
            ]
          }
        ],
        "code": {
          "coding": [
            {
              "code": "4544-3",
              "system": "http://loinc.org",
              "display": "Hematocrit [Volume Fraction] of Blood by Automated count"
            }
          ],
          "text": "Hematocrit [Volume Fraction] of Blood by Automated count"
        },
        "valueQuantity": {
          "system": "http://unitsofmeasure.org",
          "value": 42.6,
          "unit": "%",
          "code": "%"
        },
        "referenceRange": [
          {
            "low": {
              "value": 37,
              "code": "%",
              "system": "http://unitsofmeasure.org"
            }
          },
          {
            "high": {
              "value": 46,
              "code": "%",
              "system": "http://unitsofmeasure.org"
            }
          }
        ],
        "text": {
          "status": "generated",
          "div": "<div xmlns=\"http://www.w3.org/1999/xhtml\"><table class=\"hl7__eu__lab__report\"><tr><th>Test</th><th>07-Jan-2025</th><th>Reference&#xA0;Range</th><th>Unit</th></tr><tr><td>Hematocrit [Volume Fraction] of Blood by Automated count</td><td>42.6</td><td>37 - 46</td><td></td><td>%</td></tr></table></div>"
        },
        "status": "final",
        "subject": {
          "reference": "urn:uuid:6bd1a3af-d4b1-4d91-bc18-9912ca859c55",
          "display": "Aniela Sacharczuk"
        },
        "effectiveDateTime": "2025-01-07T05:26:59Z"
      }
    },
    {
      "fullUrl": "urn:uuid:333a3204-0afa-42fa-8d85-e4a606ce290d",
      "resource": {
        "resourceType": "Observation",
        "id": "333a3204-0afa-42fa-8d85-e4a606ce290d",
        "meta": {
          "profile": [
            "http://hl7.eu/fhir/laboratory/StructureDefinition/Observation-resultslab-eu-lab"
          ]
        },
        "performer": [
          {
            "display": "The Central European Lab"
          }
        ],
        "category": [
          {
            "coding": [
              {
                "system": "http://terminology.hl7.org/CodeSystem/observation-category",
                "code": "laboratory"
              }
            ]
          }
        ],
        "code": {
          "coding": [
            {
              "code": "787-2",
              "system": "http://loinc.org",
              "display": "MCV [Entitic volume] by Automated count"
            }
          ],
          "text": "MCV [Entitic volume] by Automated count"
        },
        "valueQuantity": {
          "system": "http://unitsofmeasure.org",
          "value": 83.4,
          "unit": "fL",
          "code": "fL"
        },
        "referenceRange": [
          {
            "low": {
              "value": 80,
              "code": "fL",
              "system": "http://unitsofmeasure.org"
            }
          },
          {
            "high": {
              "value": 105,
              "code": "fL",
              "system": "http://unitsofmeasure.org"
            }
          }
        ],
        "text": {
          "status": "generated",
          "div": "<div xmlns=\"http://www.w3.org/1999/xhtml\"><table class=\"hl7__eu__lab__report\"><tr><th>Test</th><th>07-Jan-2025</th><th>Reference&#xA0;Range</th><th>Unit</th></tr><tr><td>MCV [Entitic volume] by Automated count</td><td>83.4</td><td>80 - 105</td><td></td><td>fL</td></tr></table></div>"
        },
        "status": "final",
        "subject": {
          "reference": "urn:uuid:6bd1a3af-d4b1-4d91-bc18-9912ca859c55",
          "display": "Aniela Sacharczuk"
        },
        "effectiveDateTime": "2025-01-07T05:26:59Z"
      }
    },
    {
      "fullUrl": "urn:uuid:4b53de49-7873-4391-8e39-bbc371e75a79",
      "resource": {
        "resourceType": "Observation",
        "id": "4b53de49-7873-4391-8e39-bbc371e75a79",
        "meta": {
          "profile": [
            "http://hl7.eu/fhir/laboratory/StructureDefinition/Observation-resultslab-eu-lab"
          ]
        },
        "performer": [
          {
            "display": "The Central European Lab"
          }
        ],
        "category": [
          {
            "coding": [
              {
                "system": "http://terminology.hl7.org/CodeSystem/observation-category",
                "code": "laboratory"
              }
            ]
          }
        ],
        "code": {
          "coding": [
            {
              "code": "785-6",
              "system": "http://loinc.org",
              "display": "MCH [Entitic mass] by Automated count"
            }
          ],
          "text": "MCH [Entitic mass] by Automated count"
        },
        "valueQuantity": {
          "system": "http://unitsofmeasure.org",
          "value": 30.9,
          "unit": "pg",
          "code": "pg"
        },
        "referenceRange": [
          {
            "low": {
              "value": 27,
              "code": "pg",
              "system": "http://unitsofmeasure.org"
            }
          },
          {
            "high": {
              "value": 34,
              "code": "pg",
              "system": "http://unitsofmeasure.org"
            }
          }
        ],
        "text": {
          "status": "generated",
          "div": "<div xmlns=\"http://www.w3.org/1999/xhtml\"><table class=\"hl7__eu__lab__report\"><tr><th>Test</th><th>07-Jan-2025</th><th>Reference&#xA0;Range</th><th>Unit</th></tr><tr><td>MCH [Entitic mass] by Automated count</td><td>30.9</td><td>27 - 34</td><td></td><td>pg</td></tr></table></div>"
        },
        "status": "final",
        "subject": {
          "reference": "urn:uuid:6bd1a3af-d4b1-4d91-bc18-9912ca859c55",
          "display": "Aniela Sacharczuk"
        },
        "effectiveDateTime": "2025-01-07T05:26:59Z"
      }
    },
    {
      "fullUrl": "urn:uuid:369830fb-931a-471e-9029-8c017ad25d26",
      "resource": {
        "resourceType": "Observation",
        "id": "369830fb-931a-471e-9029-8c017ad25d26",
        "meta": {
          "profile": [
            "http://hl7.eu/fhir/laboratory/StructureDefinition/Observation-resultslab-eu-lab"
          ]
        },
        "performer": [
          {
            "display": "The Central European Lab"
          }
        ],
        "category": [
          {
            "coding": [
              {
                "system": "http://terminology.hl7.org/CodeSystem/observation-category",
                "code": "laboratory"
              }
            ]
          }
        ],
        "code": {
          "coding": [
            {
              "code": "786-4",
              "system": "http://loinc.org",
              "display": "MCHC [Mass/volume] by Automated count"
            }
          ],
          "text": "MCHC [Mass/volume] by Automated count"
        },
        "valueQuantity": {
          "system": "http://unitsofmeasure.org",
          "value": 34.5,
          "unit": "g/dL",
          "code": "g/dL"
        },
        "referenceRange": [
          {
            "low": {
              "value": 31,
              "code": "g/dL",
              "system": "http://unitsofmeasure.org"
            }
          },
          {
            "high": {
              "value": 35,
              "code": "g/dL",
              "system": "http://unitsofmeasure.org"
            }
          }
        ],
        "text": {
          "status": "generated",
          "div": "<div xmlns=\"http://www.w3.org/1999/xhtml\"><table class=\"hl7__eu__lab__report\"><tr><th>Test</th><th>07-Jan-2025</th><th>Reference&#xA0;Range</th><th>Unit</th></tr><tr><td>MCHC [Mass/volume] by Automated count</td><td>34.5</td><td>31 - 35</td><td></td><td>g/dL</td></tr></table></div>"
        },
        "status": "final",
        "subject": {
          "reference": "urn:uuid:6bd1a3af-d4b1-4d91-bc18-9912ca859c55",
          "display": "Aniela Sacharczuk"
        },
        "effectiveDateTime": "2025-01-07T05:26:59Z"
      }
    },
    {
      "fullUrl": "urn:uuid:1be394a5-8bd2-4303-93cb-2f92e49a7d7c",
      "resource": {
        "resourceType": "Observation",
        "id": "1be394a5-8bd2-4303-93cb-2f92e49a7d7c",
        "meta": {
          "profile": [
            "http://hl7.eu/fhir/laboratory/StructureDefinition/Observation-resultslab-eu-lab"
          ]
        },
        "performer": [
          {
            "display": "The Central European Lab"
          }
        ],
        "category": [
          {
            "coding": [
              {
                "system": "http://terminology.hl7.org/CodeSystem/observation-category",
                "code": "laboratory"
              }
            ]
          }
        ],
        "code": {
          "coding": [
            {
              "code": "21000-5",
              "system": "http://loinc.org",
              "display": "Erythrocyte distribution width [Entitic volume] by Automated count"
            }
          ],
          "text": "Erythrocyte distribution width [Entitic volume] by Automated count"
        },
        "valueQuantity": {
          "system": "http://unitsofmeasure.org",
          "value": 44.2,
          "unit": "fL",
          "code": "fL"
        },
        "referenceRange": [
          {
            "low": {
              "value": 36,
              "code": "fL",
              "system": "http://unitsofmeasure.org"
            }
          },
          {
            "high": {
              "value": 46,
              "code": "fL",
              "system": "http://unitsofmeasure.org"
            }
          }
        ],
        "text": {
          "status": "generated",
          "div": "<div xmlns=\"http://www.w3.org/1999/xhtml\"><table class=\"hl7__eu__lab__report\"><tr><th>Test</th><th>07-Jan-2025</th><th>Reference&#xA0;Range</th><th>Unit</th></tr><tr><td>Erythrocyte distribution width [Entitic volume] by Automated count</td><td>44.2</td><td>36 - 46</td><td></td><td>fL</td></tr></table></div>"
        },
        "status": "final",
        "subject": {
          "reference": "urn:uuid:6bd1a3af-d4b1-4d91-bc18-9912ca859c55",
          "display": "Aniela Sacharczuk"
        },
        "effectiveDateTime": "2025-01-07T05:26:59Z"
      }
    },
    {
      "fullUrl": "urn:uuid:d1d1ff35-b606-4d22-947d-158badac2067",
      "resource": {
        "resourceType": "Observation",
        "id": "d1d1ff35-b606-4d22-947d-158badac2067",
        "meta": {
          "profile": [
            "http://hl7.eu/fhir/laboratory/StructureDefinition/Observation-resultslab-eu-lab"
          ]
        },
        "performer": [
          {
            "display": "The Central European Lab"
          }
        ],
        "category": [
          {
            "coding": [
              {
                "system": "http://terminology.hl7.org/CodeSystem/observation-category",
                "code": "laboratory"
              }
            ]
          }
        ],
        "code": {
          "coding": [
            {
              "code": "777-3",
              "system": "http://loinc.org",
              "display": "Platelets [#/volume] in Blood by Automated count"
            }
          ],
          "text": "Platelets [#/volume] in Blood by Automated count"
        },
        "valueQuantity": {
          "system": "http://unitsofmeasure.org",
          "value": 343.7,
          "unit": "10*3/uL",
          "code": "10*3/uL"
        },
        "referenceRange": [
          {
            "low": {
              "value": 150,
              "code": "10*3/uL",
              "system": "http://unitsofmeasure.org"
            }
          },
          {
            "high": {
              "value": 415,
              "code": "10*3/uL",
              "system": "http://unitsofmeasure.org"
            }
          }
        ],
        "text": {
          "status": "generated",
          "div": "<div xmlns=\"http://www.w3.org/1999/xhtml\"><table class=\"hl7__eu__lab__report\"><tr><th>Test</th><th>07-Jan-2025</th><th>Reference&#xA0;Range</th><th>Unit</th></tr><tr><td>Platelets [#/volume] in Blood by Automated count</td><td>343.7</td><td>150 - 415</td><td></td><td>10*3/uL</td></tr></table></div>"
        },
        "status": "final",
        "subject": {
          "reference": "urn:uuid:6bd1a3af-d4b1-4d91-bc18-9912ca859c55",
          "display": "Aniela Sacharczuk"
        },
        "effectiveDateTime": "2025-01-07T05:26:59Z"
      }
    },
    {
      "fullUrl": "urn:uuid:d56800ef-c242-49e3-9b29-6c1075ef5afa",
      "resource": {
        "resourceType": "Observation",
        "id": "d56800ef-c242-49e3-9b29-6c1075ef5afa",
        "meta": {
          "profile": [
            "http://hl7.eu/fhir/laboratory/StructureDefinition/Observation-resultslab-eu-lab"
          ]
        },
        "performer": [
          {
            "display": "The Central European Lab"
          }
        ],
        "category": [
          {
            "coding": [
              {
                "system": "http://terminology.hl7.org/CodeSystem/observation-category",
                "code": "laboratory"
              }
            ]
          }
        ],
        "code": {
          "coding": [
            {
              "code": "32207-3",
              "system": "http://loinc.org",
              "display": "Platelet distribution width [Entitic volume] in Blood by Automated count"
            }
          ],
          "text": "Platelet distribution width [Entitic volume] in Blood by Automated count"
        },
        "valueQuantity": {
          "system": "http://unitsofmeasure.org",
          "value": 451.4,
          "unit": "fL",
          "code": "fL"
        },
        "referenceRange": [
          {
            "low": {
              "value": 11.6,
              "code": "fL",
              "system": "http://unitsofmeasure.org"
            }
          },
          {
            "high": {
              "value": 17.4,
              "code": "fL",
              "system": "http://unitsofmeasure.org"
            }
          }
        ],
        "interpretation": [
          {
            "coding": [
              {
                "code": "H",
                "system": "http://terminology.hl7.org/CodeSystem/v3-ObservationInterpretation",
                "display": "High"
              }
            ]
          }
        ],
        "text": {
          "status": "generated",
          "div": "<div xmlns=\"http://www.w3.org/1999/xhtml\"><table class=\"hl7__eu__lab__report\"><tr><th>Test</th><th>07-Jan-2025</th><th>Reference&#xA0;Range</th><th>Unit</th></tr><tr><td>Platelet distribution width [Entitic volume] in Blood by Automated count</td><td>451.4</td><td>11.6 - 17.4</td><td>H</td><td>fL</td></tr></table></div>"
        },
        "status": "final",
        "subject": {
          "reference": "urn:uuid:6bd1a3af-d4b1-4d91-bc18-9912ca859c55",
          "display": "Aniela Sacharczuk"
        },
        "effectiveDateTime": "2025-01-07T05:26:59Z"
      }
    },
    {
      "fullUrl": "urn:uuid:ddb23633-731f-48c0-8f0a-da773236c04c",
      "resource": {
        "resourceType": "Observation",
        "id": "ddb23633-731f-48c0-8f0a-da773236c04c",
        "meta": {
          "profile": [
            "http://hl7.eu/fhir/laboratory/StructureDefinition/Observation-resultslab-eu-lab"
          ]
        },
        "performer": [
          {
            "display": "The Central European Lab"
          }
        ],
        "category": [
          {
            "coding": [
              {
                "system": "http://terminology.hl7.org/CodeSystem/observation-category",
                "code": "laboratory"
              }
            ]
          }
        ],
        "code": {
          "coding": [
            {
              "code": "32623-1",
              "system": "http://loinc.org",
              "display": "Platelet mean volume [Entitic volume] in Blood by Automated count"
            }
          ],
          "text": "Platelet mean volume [Entitic volume] in Blood by Automated count"
        },
        "valueQuantity": {
          "system": "http://unitsofmeasure.org",
          "value": 10.8,
          "unit": "fL",
          "code": "fL"
        },
        "referenceRange": [
          {
            "low": {
              "value": 7.2,
              "code": "fL",
              "system": "http://unitsofmeasure.org"
            }
          },
          {
            "high": {
              "value": 13.8,
              "code": "fL",
              "system": "http://unitsofmeasure.org"
            }
          }
        ],
        "text": {
          "status": "generated",
          "div": "<div xmlns=\"http://www.w3.org/1999/xhtml\"><table class=\"hl7__eu__lab__report\"><tr><th>Test</th><th>07-Jan-2025</th><th>Reference&#xA0;Range</th><th>Unit</th></tr><tr><td>Platelet mean volume [Entitic volume] in Blood by Automated count</td><td>10.8</td><td>7.2 - 13.8</td><td></td><td>fL</td></tr></table></div>"
        },
        "status": "final",
        "subject": {
          "reference": "urn:uuid:6bd1a3af-d4b1-4d91-bc18-9912ca859c55",
          "display": "Aniela Sacharczuk"
        },
        "effectiveDateTime": "2025-01-07T05:26:59Z"
      }
    },
    {
      "fullUrl": "urn:uuid:fd485db4-1cb1-45ef-b4c9-ece1c54eaa78",
      "resource": {
        "resourceType": "DeviceUseStatement",
        "id": "fd485db4-1cb1-45ef-b4c9-ece1c54eaa78",
        "meta": {
          "profile": [
            "http://hl7.eu/fhir/eps/StructureDefinition/deviceUseStatement-eu-eps"
          ]
        },
        "timingPeriod": {
          "start": "2012-10-30"
        },
        "text": {
          "status": "generated",
          "div": "<div xmlns=\"http://www.w3.org/1999/xhtml\"><table class=\"hl7__ips\"><tr><td>Blood glucose meter (physical object)</td><td><span class=\"nb\">30-Oct-2012</span></td></tr></table></div>"
        },
        "status": "active",
        "device": {
          "reference": "urn:uuid:26eb3ea5-69e1-4f56-a7a8-961b598fa288",
          "display": "Blood glucose meter (physical object)"
        },
        "subject": {
          "reference": "urn:uuid:6bd1a3af-d4b1-4d91-bc18-9912ca859c55",
          "display": "Aniela Sacharczuk"
        }
      }
    },
    {
      "fullUrl": "urn:uuid:26eb3ea5-69e1-4f56-a7a8-961b598fa288",
      "resource": {
        "resourceType": "Device",
        "id": "26eb3ea5-69e1-4f56-a7a8-961b598fa288",
        "meta": {
          "profile": [
            "http://hl7.eu/fhir/eps/StructureDefinition/device-eu-eps"
          ]
        },
        "udiCarrier": [
          {
            "id": "(01)36090138918855(11)121009(17)371024(10)26645923848(21)235965426506674519"
          }
        ],
        "status": "active",
        "patient": {
          "reference": "urn:uuid:6bd1a3af-d4b1-4d91-bc18-9912ca859c55",
          "display": "Aniela Sacharczuk"
        },
        "type": {
          "coding": [
            {
              "code": "337414009",
              "system": "http://snomed.info/sct",
              "display": "Blood glucose meter (physical object)"
            }
          ]
        }
      }
    },
    {
      "fullUrl": "urn:uuid:85c99718-c0cb-4682-89d3-016f64bf7fc0",
      "resource": {
        "resourceType": "Device",
        "id": "85c99718-c0cb-4682-89d3-016f64bf7fc0",
        "deviceName": [
          {
            "name": "SYNDERAI Synthetic Generator",
            "type": "manufacturer-name"
          }
        ],
        "version": [
          {
            "value": "5.0"
          }
        ],
        "text": {
          "status": "generated",
          "div": "<div xmlns=\"http://www.w3.org/1999/xhtml\">SYNDERAI Synthetic Generator v5.0</div>"
        },
        "status": "active\"",
        "distinctIdentifier": "synderai-generator-50",
        "manufacturer": "SYNDERAI Project"
      }
    },
    {
      "fullUrl": "urn:uuid:e9ae41e0-f008-4aaf-9548-b38152e7930c",
      "resource": {
        "resourceType": "Provenance",
        "id": "e9ae41e0-f008-4aaf-9548-b38152e7930c",
        "target": [
          {
            "reference": "Patient/6bd1a3af-d4b1-4d91-bc18-9912ca859c55"
          },
          {
            "reference": "Bundle/a937ad37-5374-480a-a751-90400104f3bf"
          },
          {
            "reference": "Composition/c49ec868-0669-4f14-b456-a6fd1be7881c"
          },
          {
            "reference": "PractitionerRole/b1110358-d226-46af-897d-f00d69727735"
          },
          {
            "reference": "Organization/281b41a8-7720-40df-b1f6-2b07fdb67cda"
          },
          {
            "reference": "Practitioner/dacb5c5a-c217-4fab-8a7d-6e1e532b5d68"
          }
        ],
        "activity": {
          "text": "Synthetic Example Data Generation"
        },
        "policy": [
          "https://synderai.net/synderai-synthetic-data-policy"
        ],
        "agent": [
          {
            "type": {
              "text": "author"
            },
            "who": {
              "reference": "Device/85c99718-c0cb-4682-89d3-016f64bf7fc0"
            }
          }
        ],
        "reason": [
          {
            "text": "Interoperability Testing and Training (non-clinical use)"
          }
        ],
        "text": {
          "status": "generated",
          "div": "<div xmlns=\"http://www.w3.org/1999/xhtml\">Provenance for SYNDERAI Synthetic Example Data Resource</div>"
        },
        "recorded": "2025-01-07T05:26:59Z"
      }
    }
  ],
  "type": "document",
  "timestamp": "2025-01-07T05:26:59Z"
}
