<Bundle xmlns="http://hl7.org/fhir">
   <id value="3f901372-6cdb-4033-918a-7e45c704d619"/>
   <meta>
      <profile value="http://hl7.eu/fhir/eps/StructureDefinition/bundle-eu-eps"/>
   </meta>
   <identifier>
      <system value="urn:oid:2.16.840.1.113883.2.51.999"/>
      <value value="d4c1b974-3c3b-43e2-b6a1-2f880f034844"/>
      <assigner>
         <display value="HL7 Europe"/>
      </assigner>
   </identifier>
   <type value="document"/>
   <timestamp value="2025-03-05T18:07:38Z"/>
   <entry>
      <fullUrl value="urn:uuid:f8bd5811-768b-4c7d-83e3-86d192996fed"/>
      <resource>
         <Composition>
            <id value="f8bd5811-768b-4c7d-83e3-86d192996fed"/>
            <meta>
               <profile value="http://hl7.eu/fhir/eps/StructureDefinition/composition-eu-eps"/>
               <security>
                  <system value="http://terminology.hl7.org/CodeSystem/v3-ActReason"/>
                  <code value="HTEST"/>
               </security>
               <security>
                  <system value="http://terminology.hl7.org/CodeSystem/v3-ActReason"/>
                  <code value="TRAIN"/>
               </security>
               <tag>
                  <system value="https://synderai.net/fhir/CodeSystem/tags"/>
                  <code value="synthetic"/>
                  <display value="SYNDERAI Synthetic data"/>
               </tag>
            </meta>
            <identifier>
               <system value="urn:oid:2.16.840.1.113883.2.51.999"/>
               <value value="2f5daa17-74e1-4b6f-86d4-ac762524c78a"/>
               <assigner>
                  <display value="HL7 Europe"/>
               </assigner>
            </identifier>
            <status value="final"/>
            <type>
               <coding>
                  <system value="http://loinc.org"/>
                  <code value="60591-5"/>
                  <display value="Patient summary Document"/>
               </coding>
               <text value="Patient summary Document"/>
            </type>
            <subject>
               <reference value="urn:uuid:bcef1bb7-bb27-45c9-82a0-86d5a256e93d"/>
               <display value="Jele Jurković"/>
            </subject>
            <date value="2025-03-05"/>
            <author>
               <reference value="urn:uuid:d3f90690-5754-487c-ad53-f0c6cff9eeeb"/>
            </author>
            <title value="European Patient Summary"/>
            <confidentiality value="N"/>
            <custodian>
               <reference value="urn:uuid:a2f91b0f-3092-4048-9498-4e73153252b7"/>
            </custodian>
            <section>
               <title value="Problem list"/>
               <code>
                  <coding>
                     <system value="http://loinc.org"/>
                     <code value="11450-4"/>
                     <display value="Problem list - Reported"/>
                  </coding>
               </code>
               <text>
                  <status value="generated"/>
                  <div xmlns="http://www.w3.org/1999/xhtml">
                     <table class="hl7__ips">
                        <tr>
                           <th>Condition</th>
                           <th>Onset Date</th>
                           <th>Status</th>
                        </tr>
                        <tr>
                           <td>Osteoporosis</td>
                           <td>
                              <span class="nb">30-Jan-2019</span>
                           </td>
                           <td>active</td>
                        </tr>
                        <tr>
                           <td>Dependent drug abuse</td>
                           <td>
                              <span class="nb">09-Jun-2006</span>
                           </td>
                           <td>active</td>
                        </tr>
                        <tr>
                           <td>Prediabetes</td>
                           <td>
                              <span class="nb">05-Dec-1973</span>
                           </td>
                           <td>active</td>
                        </tr>
                     </table>
                  </div>
               </text>
               <entry>
                  <reference value="urn:uuid:705eae66-22ab-431b-aff8-5ecdd2399b5f"/>
               </entry>
               <entry>
                  <reference value="urn:uuid:0d04b5af-1808-434e-862e-da4ef696dfb4"/>
               </entry>
               <entry>
                  <reference value="urn:uuid:555ffab1-c3eb-4bed-97f3-2dbb3c5a08d6"/>
               </entry>
            </section>
            <section>
               <title value="Medication list"/>
               <code>
                  <coding>
                     <system value="http://loinc.org"/>
                     <code value="10160-0"/>
                     <display value="History of Medication use Narrative"/>
                  </coding>
               </code>
               <text>
                  <status value="generated"/>
                  <div xmlns="http://www.w3.org/1999/xhtml">
                     <table class="hl7__ips">
                        <tr>
                           <th>Medication</th>
                           <th>Since</th>
                           <th>Form</th>
                           <th>Dosage</th>
                           <th>Reason</th>
                        </tr>
                        <tr>
                           <td>Alendronic acid (as alendronate sodium) 10 mg oral tablet</td>
                           <td>
                              <span class="nb">2025-03-05</span>
                           </td>
                           <td>-</td>
                           <td>1 tablet (10 mg) once daily</td>
                           <td>Osteoporosis (disorder)</td>
                        </tr>
                        <tr>
                           <td>Acetaminophen 300 mg and hydrocodone bitartrate 5 mg oral tablet</td>
                           <td>
                              <span class="nb">2014-03-18</span>
                           </td>
                           <td>-</td>
                           <td>1 tablet (300 mg/5 mg) by mouth every 4 to 6 hours as needed for pain</td>
                           <td>-</td>
                        </tr>
                        <tr>
                           <td>Vitamin B12 5 MG/ML Injectable Solution</td>
                           <td>
                              <span class="nb">1974-10-02</span>
                           </td>
                           <td>-</td>
                           <td>1 mL (5 mg) intramuscularly once weekly</td>
                           <td>-</td>
                        </tr>
                     </table>
                  </div>
               </text>
               <entry>
                  <reference value="urn:uuid:7780aa46-9ea6-4c4f-bf00-189ae8a46c18"/>
               </entry>
               <entry>
                  <reference value="urn:uuid:9f3d20f8-aaa3-4d01-8e6b-90985c8ed106"/>
               </entry>
               <entry>
                  <reference value="urn:uuid:b65e7068-d7d1-42b1-ae30-3ddf4ffd8f1b"/>
               </entry>
            </section>
            <section>
               <title value="Immunizations list"/>
               <code>
                  <coding>
                     <system value="http://loinc.org"/>
                     <code value="11369-6"/>
                     <display value="History of Immunization note"/>
                  </coding>
               </code>
               <text>
                  <status value="generated"/>
                  <div xmlns="http://www.w3.org/1999/xhtml">
                     <table class="hl7__ips">
                        <tr>
                           <th>Vaccine</th>
                           <th>Date</th>
                        </tr>
                        <tr>
                           <td>Influenza virus antigen only vaccine product</td>
                           <td>
                              <span class="nb">05-Mar-2025</span>
                           </td>
                        </tr>
                        <tr>
                           <td>Clostridium tetani toxoid antigen adsorbed only vaccine product</td>
                           <td>
                              <span class="nb">05-Feb-2020</span>
                           </td>
                        </tr>
                     </table>
                  </div>
               </text>
               <entry>
                  <reference value="urn:uuid:5bc1fc50-8eb8-4874-9ba0-56e793fb7ae5"/>
               </entry>
               <entry>
                  <reference value="urn:uuid:5048203e-45e4-46e3-99fc-013108d83999"/>
               </entry>
            </section>
            <section>
               <title value="Procedure History list"/>
               <code>
                  <coding>
                     <system value="http://loinc.org"/>
                     <code value="47519-4"/>
                     <display value="History of Procedures Document"/>
                  </coding>
               </code>
               <text>
                  <status value="generated"/>
                  <div xmlns="http://www.w3.org/1999/xhtml">
                     <table class="hl7__ips">
                        <tr>
                           <th>Procedure</th>
                           <th>Date</th>
                           <th>Reason</th>
                        </tr>
                        <tr>
                           <td>Depression screening</td>
                           <td>
                              <span class="nb">05-Jul-2023</span>
                           </td>
                           <td>-</td>
                        </tr>
                        <tr>
                           <td>Assessment of health and social care needs</td>
                           <td>
                              <span class="nb">05-Jul-2023</span>
                           </td>
                           <td>-</td>
                        </tr>
                        <tr>
                           <td>Assessment using Morse Fall Scale</td>
                           <td>
                              <span class="nb">05-Jul-2023</span>
                           </td>
                           <td>-</td>
                        </tr>
                        <tr>
                           <td>Screening for domestic abuse</td>
                           <td>
                              <span class="nb">05-Jul-2023</span>
                           </td>
                           <td>-</td>
                        </tr>
                        <tr>
                           <td>Depression screening using Patient Health Questionnaire Two-Item score (procedure)</td>
                           <td>
                              <span class="nb">05-Jul-2023</span>
                           </td>
                           <td>-</td>
                        </tr>
                     </table>
                  </div>
               </text>
               <entry>
                  <reference value="urn:uuid:4cbb8517-2228-4abe-8751-894f48b90992"/>
               </entry>
               <entry>
                  <reference value="urn:uuid:18de8c86-4273-4cb7-895b-0965408b6170"/>
               </entry>
               <entry>
                  <reference value="urn:uuid:39e8e7bd-1159-4fca-b5d2-1b4a7d6fbe73"/>
               </entry>
               <entry>
                  <reference value="urn:uuid:c924f7ec-de84-49ea-bb2e-62619dba290a"/>
               </entry>
               <entry>
                  <reference value="urn:uuid:4fb90645-1c82-4ecb-a9ee-e17f678172cb"/>
               </entry>
            </section>
            <section>
               <title value="Allergies and Intolerances"/>
               <code>
                  <coding>
                     <system value="http://loinc.org"/>
                     <code value="48765-2"/>
                     <display value="Allergies and adverse reactions Document"/>
                  </coding>
               </code>
               <text>
                  <status value="generated"/>
                  <div xmlns="http://www.w3.org/1999/xhtml">
                     <table class="hl7__ips">
                        <tr>
                           <th>Allergy/Intolerance</th>
                           <th>Onset Date</th>
                           <th>Status</th>
                           <th>Type</th>
                           <th>Reaction</th>
                        </tr>
                        <tr>
                           <td/>
                           <td>?</td>
                           <td>active</td>
                           <td>?</td>
                           <td/>
                        </tr>
                     </table>
                  </div>
               </text>
               <entry>
                  <reference value="urn:uuid:12bec645-731d-443c-93f5-b333d2551457"/>
               </entry>
            </section>
            <section>
               <title value="Care Plan"/>
               <code>
                  <coding>
                     <system value="http://loinc.org"/>
                     <code value="18776-5"/>
                     <display value="Plan of care note"/>
                  </coding>
               </code>
               <text>
                  <status value="generated"/>
                  <div xmlns="http://www.w3.org/1999/xhtml">
                     <table class="hl7__ips">
                        <tr>
                           <th>Active Planned Care / Goals</th>
                           <th>Start Date</th>
                           <th>Reason</th>
                        </tr>
                        <tr>
                           <td>Therapy</td>
                           <td>
                              <span class="nb">18-Mar-2014</span>
                           </td>
                           <td>-</td>
                        </tr>
                        <tr>
                           <td>Care plan</td>
                           <td>
                              <span class="nb">05-May-2009</span>
                           </td>
                           <td>-</td>
                        </tr>
                        <tr>
                           <td>Diabetes self management plan</td>
                           <td>
                              <span class="nb">05-Dec-1973</span>
                           </td>
                           <td>Prediabetes</td>
                        </tr>
                        <tr>
                           <td>
                              <ul>
                                 <li>Patient will implement and maintain a diabetes self-management plan to reduce risk of progression to diabetes.</li>
                              </ul>
                           </td>
                           <td/>
                           <td/>
                        </tr>
                        <tr>
                           <th>Immunization Recommendation</th>
                           <th>Due Date</th>
                           <th>Reason</th>
                        </tr>
                        <tr>
                           <td>Vaccine product containing only Influenza virus antigen (medicinal product)</td>
                           <td>
                              <span class="nb">01-Oct-2025</span>
                           </td>
                           <td>Annual seasonal influenza vaccination</td>
                        </tr>
                     </table>
                  </div>
               </text>
               <entry>
                  <reference value="urn:uuid:1e7f12e2-2bfd-4f74-811e-3006d248dd27"/>
               </entry>
               <entry>
                  <reference value="urn:uuid:6af53a31-e89b-4dad-a87f-f9871921078c"/>
               </entry>
               <entry>
                  <reference value="urn:uuid:b36e4261-98f3-4869-9aef-ae8ee6d7179c"/>
               </entry>
               <entry>
                  <reference value="urn:uuid:478121ab-3f82-49f4-9ce2-0deac74f137f"/>
               </entry>
            </section>
            <section>
               <title value="Vital Signs"/>
               <code>
                  <coding>
                     <system value="http://loinc.org"/>
                     <code value="8716-3"/>
                     <display value="Vital signs note"/>
                  </coding>
               </code>
               <text>
                  <status value="generated"/>
                  <div xmlns="http://www.w3.org/1999/xhtml">
                     <table class="hl7__ips">
                        <tr>
                           <th>Vital Signs</th>
                           <th>2025-03-05</th>
                           <th>2024-02-28</th>
                        </tr>
                        <tr>
                           <td>Body Height</td>
                           <td>160.8 cm</td>
                           <td>160.8 cm</td>
                        </tr>
                        <tr>
                           <td>Pain severity - 0-10 verbal numeric rating [Score] - Reported</td>
                           <td>1 {score}</td>
                           <td>2 {score}</td>
                        </tr>
                        <tr>
                           <td>Body Weight</td>
                           <td>75.6 kg</td>
                           <td>74.1 kg</td>
                        </tr>
                        <tr>
                           <td>Body mass index (BMI) [Ratio]</td>
                           <td>29.2 kg/m2</td>
                           <td>28.7 kg/m2</td>
                        </tr>
                        <tr>
                           <td>Diastolic Blood Pressure</td>
                           <td>81 mm[Hg]</td>
                           <td>82 mm[Hg]</td>
                        </tr>
                        <tr>
                           <td>Systolic Blood Pressure</td>
                           <td>106 mm[Hg]</td>
                           <td>112 mm[Hg]</td>
                        </tr>
                        <tr>
                           <td>Heart rate</td>
                           <td>77 /min</td>
                           <td>71 /min</td>
                        </tr>
                        <tr>
                           <td>Respiratory rate</td>
                           <td>13 /min</td>
                           <td>14 /min</td>
                        </tr>
                     </table>
                  </div>
               </text>
               <entry>
                  <reference value="urn:uuid:62ec486e-d009-4c6b-9394-4eabec71acf1"/>
               </entry>
               <entry>
                  <reference value="urn:uuid:d4554bb6-8965-4706-bb57-e98d508f7107"/>
               </entry>
               <entry>
                  <reference value="urn:uuid:caa1f0e0-fe0c-4848-9902-548e5be8faf7"/>
               </entry>
               <entry>
                  <reference value="urn:uuid:97264665-8392-4bad-9f6c-f5371bd72068"/>
               </entry>
               <entry>
                  <reference value="urn:uuid:f5eda9e5-f15a-4cb3-acfb-174de6a4bd3b"/>
               </entry>
               <entry>
                  <reference value="urn:uuid:d8bfa896-a32b-40e9-a7a2-a3303b3a10d4"/>
               </entry>
               <entry>
                  <reference value="urn:uuid:8fc14e3b-3d85-4db4-b786-f6a83737301b"/>
               </entry>
               <entry>
                  <reference value="urn:uuid:c37f1c4e-7641-4a3d-b442-a3bbc0ca25b7"/>
               </entry>
               <entry>
                  <reference value="urn:uuid:cea7fbba-7ab6-45b3-97e8-3bbe373ccdb6"/>
               </entry>
               <entry>
                  <reference value="urn:uuid:fb3a3603-2161-4726-a84b-fec8af07ca9e"/>
               </entry>
               <entry>
                  <reference value="urn:uuid:1c671ad7-e9f5-43e6-be6d-cbf960097475"/>
               </entry>
               <entry>
                  <reference value="urn:uuid:2fadc43c-aeae-44f6-941a-6b9a874d1512"/>
               </entry>
               <entry>
                  <reference value="urn:uuid:fc984221-08b6-4721-89ce-e4739b7097e1"/>
               </entry>
               <entry>
                  <reference value="urn:uuid:f8352978-cf44-4397-baf2-4a10656d18d3"/>
               </entry>
               <entry>
                  <reference value="urn:uuid:5d8d0c74-43f9-472f-b69b-29563c8842b8"/>
               </entry>
               <entry>
                  <reference value="urn:uuid:0d6eafa3-a787-454f-a41c-5c9a5cf99f7f"/>
               </entry>
            </section>
            <section>
               <title value="Relevant diagnostic tests/laboratory data"/>
               <code>
                  <coding>
                     <system value="http://loinc.org"/>
                     <code value="30954-2"/>
                     <display value="Relevant diagnostic tests/laboratory data note"/>
                  </coding>
               </code>
               <text>
                  <status value="generated"/>
                  <div xmlns="http://www.w3.org/1999/xhtml">
                     <table class="hl7__ips">
                        <table class="hl7__ips">
                           <thead>
                              <tr>
                                 <th>Recent Lab Observations</th>
                                 <th>05-MAR-2025</th>
                                 <th>Reference Range</th>
                                 <th>Unit</th>
                              </tr>
                           </thead>
                           <tbody>
                              <tr>
                                 <td>Hemoglobin A1c/Hemoglobin.total in Blood</td>
                                 <td>
                                    <strong>6.3 H</strong>
                                 </td>
                                 <td>4 - 6</td>
                                 <td>%</td>
                              </tr>
                              <tr>
                                 <td>Glucose [Mass/volume] in Blood</td>
                                 <td>88.8</td>
                                 <td>70 - 140</td>
                                 <td>mg/dL</td>
                              </tr>
                              <tr>
                                 <td>Urea nitrogen [Mass/volume] in Blood</td>
                                 <td>7.8</td>
                                 <td>7 - 50</td>
                                 <td>mg/dL</td>
                              </tr>
                              <tr>
                                 <td>Creatinine [Mass/volume] in Blood</td>
                                 <td>0.6</td>
                                 <td>0.5 - 1.3</td>
                                 <td>mg/dL</td>
                              </tr>
                              <tr>
                                 <td>Calcium [Mass/volume] in Blood</td>
                                 <td>10.0</td>
                                 <td>8.5 - 10.4</td>
                                 <td>mg/dL</td>
                              </tr>
                              <tr>
                                 <td>Sodium [Moles/volume] in Blood</td>
                                 <td>142.1</td>
                                 <td>135 - 145</td>
                                 <td>mmol/L</td>
                              </tr>
                              <tr>
                                 <td>Potassium [Moles/volume] in Blood</td>
                                 <td>4.8</td>
                                 <td>3.5 - 5.3</td>
                                 <td>mmol/L</td>
                              </tr>
                              <tr>
                                 <td>Chloride [Moles/volume] in Blood</td>
                                 <td>103.4</td>
                                 <td>98 - 110</td>
                                 <td>mmol/L</td>
                              </tr>
                              <tr>
                                 <td>Carbon dioxide, total [Moles/volume] in Blood</td>
                                 <td>24.6</td>
                                 <td>22 - 32</td>
                                 <td>mmol/L</td>
                              </tr>
                           </tbody>
                        </table>
                     </table>
                  </div>
               </text>
               <entry>
                  <reference value="urn:uuid:8bc620b5-a9f1-4351-965e-84e16dd8d649"/>
               </entry>
               <entry>
                  <reference value="urn:uuid:e8192576-9f07-4254-af10-88c505d05d93"/>
               </entry>
               <entry>
                  <reference value="urn:uuid:5feff4d5-9649-45b7-ad31-436bcae5a447"/>
               </entry>
               <entry>
                  <reference value="urn:uuid:ff290f4a-7eba-48de-9114-16966326d766"/>
               </entry>
               <entry>
                  <reference value="urn:uuid:bc567b87-c950-4055-bbae-b34ea17772ff"/>
               </entry>
               <entry>
                  <reference value="urn:uuid:26cf85a2-d16b-412c-9f06-9d48142b3ec1"/>
               </entry>
               <entry>
                  <reference value="urn:uuid:9d149d55-303e-43a9-ac54-5f1331132c14"/>
               </entry>
               <entry>
                  <reference value="urn:uuid:cc7265e4-907c-49c5-beae-ecb660b0c3a8"/>
               </entry>
               <entry>
                  <reference value="urn:uuid:020400f9-01e0-41d8-8d61-81d671aac6a6"/>
               </entry>
            </section>
            <section>
               <title value="Device Use"/>
               <code>
                  <coding>
                     <system value="http://loinc.org"/>
                     <code value="46264-8"/>
                     <display value="History of medical device use"/>
                  </coding>
               </code>
               <text>
                  <status value="generated"/>
                  <div xmlns="http://www.w3.org/1999/xhtml">
                     <table class="hl7__ips">
                        <tr>
                           <th>Device</th>
                           <th>Date (since)</th>
                        </tr>
                        <tr>
                           <td>Blood glucose meter (physical object)</td>
                           <td>
                              <span class="nb">05-Dec-1973</span>
                           </td>
                        </tr>
                     </table>
                  </div>
               </text>
               <entry>
                  <reference value="urn:uuid:a5107fde-2a28-4949-8fd4-c556d0529b97"/>
               </entry>
            </section>
         </Composition>
      </resource>
   </entry>
   <entry>
      <fullUrl value="urn:uuid:bcef1bb7-bb27-45c9-82a0-86d5a256e93d"/>
      <resource>
         <Patient>
            <id value="bcef1bb7-bb27-45c9-82a0-86d5a256e93d"/>
            <meta>
               <profile value="http://hl7.eu/fhir/eps/StructureDefinition/patient-eu-eps"/>
               <security>
                  <system value="http://terminology.hl7.org/CodeSystem/v3-ActReason"/>
                  <code value="HTEST"/>
               </security>
               <security>
                  <system value="http://terminology.hl7.org/CodeSystem/v3-ActReason"/>
                  <code value="TRAIN"/>
               </security>
               <tag>
                  <system value="https://synderai.net/fhir/CodeSystem/tags"/>
                  <code value="synthetic"/>
                  <display value="SYNDERAI Synthetic data"/>
               </tag>
            </meta>
            <text>
               <status value="generated"/>
               <div xmlns="http://www.w3.org/1999/xhtml">
                  <table class="hl7__ips">
                     <tr>
                        <td>Jele Jurković</td>
                        <td>female</td>
                        <td>07-Jan-1953</td>
                     </tr>
                  </table>
               </div>
            </text>
            <extension url="http://hl7.org/fhir/StructureDefinition/patient-nationality">
               <valueCodeableConcept>
                  <coding>
                     <system value="http://hl7.org/fhir/ValueSet/country"/>
                     <code value="HR"/>
                  </coding>
               </valueCodeableConcept>
            </extension>
            <identifier>
               <type>
                  <coding>
                     <system value="http://terminology.hl7.org/CodeSystem/v2-0203"/>
                     <code value="PT"/>
                  </coding>
               </type>
               <system value="http://ec.europa.eu/identifier/eci"/>
               <value value="3583-291434-1"/>
            </identifier>
            <identifier>
               <type>
                  <coding>
                     <system value="http://terminology.hl7.org/CodeSystem/v2-0203"/>
                     <code value="MR"/>
                  </coding>
               </type>
               <system value="http://local.setting.eu/identifier"/>
               <value value="9d4fea2d-eece-b99f-3e16-832f0f5813f5"/>
            </identifier>
            <name>
               <family value="Jurković"/>
            </name>
            <name>
               <given value="Jele"/>
            </name>
            <name>
               <text value="Jele Jurković"/>
            </name>
            <telecom>
               <system value="phone"/>
               <value value="021 083 354"/>
            </telecom>
            <gender value="female"/>
            <birthDate value="1953-01-07"/>
            <address>
               <use value="home"/>
               <type value="physical"/>
               <line value="Klesarski put 7b/8"/>
               <city value="Pleternica"/>
               <postalCode value="34310"/>
               <country value="Croatia"/>
            </address>
         </Patient>
      </resource>
   </entry>
   <entry>
      <fullUrl value="urn:uuid:d3f90690-5754-487c-ad53-f0c6cff9eeeb"/>
      <resource>
         <PractitionerRole>
            <id value="d3f90690-5754-487c-ad53-f0c6cff9eeeb"/>
            <meta>
               <profile value="http://hl7.eu/fhir/base/StructureDefinition/practitionerRole-eu"/>
            </meta>
            <text>
               <status value="generated"/>
               <div xmlns="http://www.w3.org/1999/xhtml">
                  <table class="hl7__ips">Provider Role Id d3f90690-5754-487c-ad53-f0c6cff9eeeb</table>
               </div>
            </text>
            <practitioner>
               <reference value="urn:uuid:7995c38b-dc81-4919-9125-fe6138ec5126"/>
            </practitioner>
            <organization>
               <reference value="urn:uuid:a2f91b0f-3092-4048-9498-4e73153252b7"/>
            </organization>
         </PractitionerRole>
      </resource>
   </entry>
   <entry>
      <fullUrl value="urn:uuid:7995c38b-dc81-4919-9125-fe6138ec5126"/>
      <resource>
         <Practitioner>
            <id value="7995c38b-dc81-4919-9125-fe6138ec5126"/>
            <meta>
               <profile value="http://hl7.eu/fhir/base/StructureDefinition/practitioner-eu"/>
            </meta>
            <text>
               <status value="generated"/>
               <div xmlns="http://www.w3.org/1999/xhtml">
                  <table class="hl7__ips">Dr. Hel Ping</table>
               </div>
            </text>
            <name>
               <family value="Ping"/>
               <given value="Hel"/>
               <prefix value="Dr."/>
            </name>
         </Practitioner>
      </resource>
   </entry>
   <entry>
      <fullUrl value="urn:uuid:a2f91b0f-3092-4048-9498-4e73153252b7"/>
      <resource>
         <Organization>
            <id value="a2f91b0f-3092-4048-9498-4e73153252b7"/>
            <meta>
               <profile value="http://hl7.eu/fhir/base/StructureDefinition/organization-eu"/>
            </meta>
            <text>
               <status value="generated"/>
               <div xmlns="http://www.w3.org/1999/xhtml">
                  <table class="hl7__ips">Opća županijska bolnica Požega</table>
               </div>
            </text>
            <identifier>
               <system value="urn:oid:2.16.840.1.113883.2.51.999"/>
               <value value="7eae03c5-155f-4acd-858b-09beee76e934"/>
               <assigner>
                  <display value="HL7 Europe"/>
               </assigner>
            </identifier>
            <name value="Opća županijska bolnica Požega"/>
            <address>
               <line value="Osječka ulica 107"/>
               <city value="Požega"/>
               <postalCode value="34000"/>
               <country value="Croatia"/>
            </address>
         </Organization>
      </resource>
   </entry>
   <entry>
      <fullUrl value="urn:uuid:705eae66-22ab-431b-aff8-5ecdd2399b5f"/>
      <resource>
         <Condition>
            <id value="705eae66-22ab-431b-aff8-5ecdd2399b5f"/>
            <meta>
               <profile value="http://hl7.org/fhir/uv/ips/StructureDefinition/Condition-uv-ips"/>
            </meta>
            <text>
               <status value="generated"/>
               <div xmlns="http://www.w3.org/1999/xhtml">
                  <table class="hl7__ips">
                     <tr>
                        <td>Osteoporosis</td>
                        <td>
                           <span class="nb">30-Jan-2019</span>
                        </td>
                        <td>active</td>
                     </tr>
                  </table>
               </div>
            </text>
            <category>
               <coding>
                  <system value="http://terminology.hl7.org/CodeSystem/condition-category"/>
                  <code value="problem-list-item"/>
                  <display value="Problem List Item"/>
               </coding>
            </category>
            <code>
               <coding>
                  <system value="http://snomed.info/sct"/>
                  <code value="64859006"/>
                  <display value="Osteoporosis (disorder)"/>
               </coding>
               <text value="Osteoporosis"/>
            </code>
            <subject>
               <reference value="urn:uuid:"/>
               <display value="Jele Jurković"/>
            </subject>
            <onsetDateTime value="2019-01-30"/>
            <asserter>
               <reference value="urn:uuid:"/>
               <display value="Opća županijska bolnica Požega"/>
            </asserter>
         </Condition>
      </resource>
   </entry>
   <entry>
      <fullUrl value="urn:uuid:0d04b5af-1808-434e-862e-da4ef696dfb4"/>
      <resource>
         <Condition>
            <id value="0d04b5af-1808-434e-862e-da4ef696dfb4"/>
            <meta>
               <profile value="http://hl7.org/fhir/uv/ips/StructureDefinition/Condition-uv-ips"/>
            </meta>
            <text>
               <status value="generated"/>
               <div xmlns="http://www.w3.org/1999/xhtml">
                  <table class="hl7__ips">
                     <tr>
                        <td>Dependent drug abuse</td>
                        <td>
                           <span class="nb">09-Jun-2006</span>
                        </td>
                        <td>active</td>
                     </tr>
                  </table>
               </div>
            </text>
            <category>
               <coding>
                  <system value="http://terminology.hl7.org/CodeSystem/condition-category"/>
                  <code value="problem-list-item"/>
                  <display value="Problem List Item"/>
               </coding>
            </category>
            <code>
               <coding>
                  <system value="http://snomed.info/sct"/>
                  <code value="6525002"/>
                  <display value="Dependent drug abuse (disorder)"/>
               </coding>
               <text value="Dependent drug abuse"/>
            </code>
            <subject>
               <reference value="urn:uuid:"/>
               <display value="Jele Jurković"/>
            </subject>
            <onsetDateTime value="2006-06-09"/>
            <asserter>
               <reference value="urn:uuid:"/>
               <display value="Opća županijska bolnica Požega"/>
            </asserter>
         </Condition>
      </resource>
   </entry>
   <entry>
      <fullUrl value="urn:uuid:555ffab1-c3eb-4bed-97f3-2dbb3c5a08d6"/>
      <resource>
         <Condition>
            <id value="555ffab1-c3eb-4bed-97f3-2dbb3c5a08d6"/>
            <meta>
               <profile value="http://hl7.org/fhir/uv/ips/StructureDefinition/Condition-uv-ips"/>
            </meta>
            <text>
               <status value="generated"/>
               <div xmlns="http://www.w3.org/1999/xhtml">
                  <table class="hl7__ips">
                     <tr>
                        <td>Prediabetes</td>
                        <td>
                           <span class="nb">05-Dec-1973</span>
                        </td>
                        <td>active</td>
                     </tr>
                  </table>
               </div>
            </text>
            <category>
               <coding>
                  <system value="http://terminology.hl7.org/CodeSystem/condition-category"/>
                  <code value="problem-list-item"/>
                  <display value="Problem List Item"/>
               </coding>
            </category>
            <code>
               <coding>
                  <system value="http://snomed.info/sct"/>
                  <code value="15777000"/>
                  <display value="Prediabetes (disorder)"/>
               </coding>
               <text value="Prediabetes"/>
            </code>
            <subject>
               <reference value="urn:uuid:"/>
               <display value="Jele Jurković"/>
            </subject>
            <onsetDateTime value="1973-12-05"/>
            <asserter>
               <reference value="urn:uuid:"/>
               <display value="Opća županijska bolnica Požega"/>
            </asserter>
         </Condition>
      </resource>
   </entry>
   <entry>
      <fullUrl value="urn:uuid:b92fd663-a8ad-479c-8f25-de0f87089ce2"/>
      <resource>
         <Condition>
            <id value="b92fd663-a8ad-479c-8f25-de0f87089ce2"/>
            <meta>
               <profile value="http://hl7.org/fhir/uv/ips/StructureDefinition/Condition-uv-ips"/>
            </meta>
            <text>
               <status value="generated"/>
               <div xmlns="http://www.w3.org/1999/xhtml">
                  <table class="hl7__ips">
                     <tr>
                        <td>
                           <span class="grayedout">Viral sinusitis</span>
                        </td>
                        <td>
                           <span class="nb">28-Jun-2023 - 17-Jul-2023</span>
                        </td>
                        <td>
                           <span class="grayedout">inactive</span>
                        </td>
                     </tr>
                  </table>
               </div>
            </text>
            <category>
               <coding>
                  <system value="http://terminology.hl7.org/CodeSystem/condition-category"/>
                  <code value="problem-list-item"/>
                  <display value="Problem List Item"/>
               </coding>
            </category>
            <code>
               <coding>
                  <system value="http://snomed.info/sct"/>
                  <code value="444814009"/>
                  <display value="Viral sinusitis (disorder)"/>
               </coding>
               <text value="Viral sinusitis"/>
            </code>
            <subject>
               <reference value="urn:uuid:"/>
               <display value="Jele Jurković"/>
            </subject>
            <onsetDateTime value="2023-06-28"/>
            <abatementDateTime value="2023-07-17"/>
            <asserter>
               <reference value="urn:uuid:"/>
               <display value="Opća županijska bolnica Požega"/>
            </asserter>
         </Condition>
      </resource>
   </entry>
   <entry>
      <fullUrl value="urn:uuid:12881005-188c-4455-9322-d433ab6d7d8e"/>
      <resource>
         <Condition>
            <id value="12881005-188c-4455-9322-d433ab6d7d8e"/>
            <meta>
               <profile value="http://hl7.org/fhir/uv/ips/StructureDefinition/Condition-uv-ips"/>
            </meta>
            <text>
               <status value="generated"/>
               <div xmlns="http://www.w3.org/1999/xhtml">
                  <table class="hl7__ips">
                     <tr>
                        <td>
                           <span class="grayedout">Acute bronchitis</span>
                        </td>
                        <td>
                           <span class="nb">07-Jun-2023 - 24-Jun-2023</span>
                        </td>
                        <td>
                           <span class="grayedout">inactive</span>
                        </td>
                     </tr>
                  </table>
               </div>
            </text>
            <category>
               <coding>
                  <system value="http://terminology.hl7.org/CodeSystem/condition-category"/>
                  <code value="problem-list-item"/>
                  <display value="Problem List Item"/>
               </coding>
            </category>
            <code>
               <coding>
                  <system value="http://snomed.info/sct"/>
                  <code value="10509002"/>
                  <display value="Acute bronchitis (disorder)"/>
               </coding>
               <text value="Acute bronchitis"/>
            </code>
            <subject>
               <reference value="urn:uuid:"/>
               <display value="Jele Jurković"/>
            </subject>
            <onsetDateTime value="2023-06-07"/>
            <abatementDateTime value="2023-06-24"/>
            <asserter>
               <reference value="urn:uuid:"/>
               <display value="Opća županijska bolnica Požega"/>
            </asserter>
         </Condition>
      </resource>
   </entry>
   <entry>
      <fullUrl value="urn:uuid:5ac3e1e8-8ea9-4f61-afef-323cd857dbd9"/>
      <resource>
         <Condition>
            <id value="5ac3e1e8-8ea9-4f61-afef-323cd857dbd9"/>
            <meta>
               <profile value="http://hl7.org/fhir/uv/ips/StructureDefinition/Condition-uv-ips"/>
            </meta>
            <text>
               <status value="generated"/>
               <div xmlns="http://www.w3.org/1999/xhtml">
                  <table class="hl7__ips">
                     <tr>
                        <td>
                           <span class="grayedout">Drug overdose</span>
                        </td>
                        <td>
                           <span class="nb">18-Dec-2020 - 18-Dec-2020</span>
                        </td>
                        <td>
                           <span class="grayedout">inactive</span>
                        </td>
                     </tr>
                  </table>
               </div>
            </text>
            <category>
               <coding>
                  <system value="http://terminology.hl7.org/CodeSystem/condition-category"/>
                  <code value="problem-list-item"/>
                  <display value="Problem List Item"/>
               </coding>
            </category>
            <code>
               <coding>
                  <system value="http://snomed.info/sct"/>
                  <code value="55680006"/>
                  <display value="Drug overdose (disorder)"/>
               </coding>
               <text value="Drug overdose"/>
            </code>
            <subject>
               <reference value="urn:uuid:"/>
               <display value="Jele Jurković"/>
            </subject>
            <onsetDateTime value="2020-12-18"/>
            <abatementDateTime value="2020-12-18"/>
            <asserter>
               <reference value="urn:uuid:"/>
               <display value="Opća županijska bolnica Požega"/>
            </asserter>
         </Condition>
      </resource>
   </entry>
   <entry>
      <fullUrl value="urn:uuid:6b5819ff-86f6-4b2d-bf96-27e5d96bde52"/>
      <resource>
         <Condition>
            <id value="6b5819ff-86f6-4b2d-bf96-27e5d96bde52"/>
            <meta>
               <profile value="http://hl7.org/fhir/uv/ips/StructureDefinition/Condition-uv-ips"/>
            </meta>
            <text>
               <status value="generated"/>
               <div xmlns="http://www.w3.org/1999/xhtml">
                  <table class="hl7__ips">
                     <tr>
                        <td>
                           <span class="grayedout">Drug overdose</span>
                        </td>
                        <td>
                           <span class="nb">05-Dec-2015 - 05-Dec-2015</span>
                        </td>
                        <td>
                           <span class="grayedout">inactive</span>
                        </td>
                     </tr>
                  </table>
               </div>
            </text>
            <category>
               <coding>
                  <system value="http://terminology.hl7.org/CodeSystem/condition-category"/>
                  <code value="problem-list-item"/>
                  <display value="Problem List Item"/>
               </coding>
            </category>
            <code>
               <coding>
                  <system value="http://snomed.info/sct"/>
                  <code value="55680006"/>
                  <display value="Drug overdose (disorder)"/>
               </coding>
               <text value="Drug overdose"/>
            </code>
            <subject>
               <reference value="urn:uuid:"/>
               <display value="Jele Jurković"/>
            </subject>
            <onsetDateTime value="2015-12-05"/>
            <abatementDateTime value="2015-12-05"/>
            <asserter>
               <reference value="urn:uuid:"/>
               <display value="Opća županijska bolnica Požega"/>
            </asserter>
         </Condition>
      </resource>
   </entry>
   <entry>
      <fullUrl value="urn:uuid:977a60c2-f8eb-45a5-a0db-6fba090ba159"/>
      <resource>
         <Medication>
            <id value="977a60c2-f8eb-45a5-a0db-6fba090ba159"/>
            <meta>
               <profile value="http://hl7.eu/fhir/eps/StructureDefinition/Medication-eu-eps"/>
            </meta>
            <text>
               <status value="generated"/>
               <div xmlns="http://www.w3.org/1999/xhtml">Alendronic acid (as alendronate sodium) 10 mg oral tablet</div>
            </text>
            <code>
               <coding>
                  <system value="http://snomed.info/sct"/>
                  <code value="783144007"/>
                  <display value="Alendronic acid (as alendronate sodium) 10 mg oral tablet"/>
               </coding>
               <text value="Alendronic acid (as alendronate sodium) 10 mg oral tablet"/>
            </code>
         </Medication>
      </resource>
   </entry>
   <entry>
      <fullUrl value="urn:uuid:7780aa46-9ea6-4c4f-bf00-189ae8a46c18"/>
      <resource>
         <MedicationStatement>
            <id value="7780aa46-9ea6-4c4f-bf00-189ae8a46c18"/>
            <meta>
               <profile value="http://hl7.eu/fhir/eps/StructureDefinition/MedicationStatement-eu-eps"/>
            </meta>
            <text>
               <status value="generated"/>
               <div xmlns="http://www.w3.org/1999/xhtml">
                  <table class="hl7__ips first25">
                     <tr>
                        <th>Medication</th>
                        <th>Since</th>
                        <th>Form</th>
                        <th>Dosage</th>
                        <th>Reason</th>
                     </tr>
                     <tr>
                        <td>Alendronic acid (as alendronate sodium) 10 mg oral tablet</td>
                        <td>
                           <span class="nb">2025-03-05</span>
                        </td>
                        <td>-</td>
                        <td>1 tablet (10 mg) once daily</td>
                        <td>Osteoporosis (disorder)</td>
                     </tr>
                  </table>
               </div>
            </text>
            <status value="active"/>
            <medicationReference>
               <reference value="urn:uuid:977a60c2-f8eb-45a5-a0db-6fba090ba159"/>
               <display value="Alendronic acid (as alendronate sodium) 10 mg oral tablet"/>
            </medicationReference>
            <subject>
               <reference value="urn:uuid:bcef1bb7-bb27-45c9-82a0-86d5a256e93d"/>
               <display value="Jele Jurković"/>
            </subject>
            <effectivePeriod>
               <start value="2025-03-05"/>
            </effectivePeriod>
            <reasonCode>
               <coding>
                  <system value="http://snomed.info/sct"/>
                  <code value="64859006"/>
                  <display value="Osteoporosis (disorder)"/>
               </coding>
            </reasonCode>
            <dosage>
               <text value="1 tablet (10 mg) once daily"/>
               <timing>
                  <repeat>
                     <frequency value="1"/>
                     <period value="1"/>
                     <periodUnit value="d"/>
                  </repeat>
               </timing>
               <asNeededBoolean value="false"/>
               <doseAndRate>
                  <doseQuantity>
                     <value value="1"/>
                     <unit value="{tbl}"/>
                     <code value="{tbl}"/>
                  </doseQuantity>
               </doseAndRate>
            </dosage>
         </MedicationStatement>
      </resource>
   </entry>
   <entry>
      <fullUrl value="urn:uuid:b2fbd19e-b664-4808-bc9c-c691f58faef6"/>
      <resource>
         <Medication>
            <id value="b2fbd19e-b664-4808-bc9c-c691f58faef6"/>
            <meta>
               <profile value="http://hl7.eu/fhir/eps/StructureDefinition/Medication-eu-eps"/>
            </meta>
            <text>
               <status value="generated"/>
               <div xmlns="http://www.w3.org/1999/xhtml">Acetaminophen 300 mg and hydrocodone bitartrate 5 mg oral tablet</div>
            </text>
            <code>
               <coding>
                  <system value="http://snomed.info/sct"/>
                  <code value="420397007"/>
                  <display value="Acetaminophen 300 mg and hydrocodone bitartrate 5 mg oral tablet"/>
               </coding>
               <text value="Acetaminophen 300 mg and hydrocodone bitartrate 5 mg oral tablet"/>
            </code>
         </Medication>
      </resource>
   </entry>
   <entry>
      <fullUrl value="urn:uuid:9f3d20f8-aaa3-4d01-8e6b-90985c8ed106"/>
      <resource>
         <MedicationStatement>
            <id value="9f3d20f8-aaa3-4d01-8e6b-90985c8ed106"/>
            <meta>
               <profile value="http://hl7.eu/fhir/eps/StructureDefinition/MedicationStatement-eu-eps"/>
            </meta>
            <text>
               <status value="generated"/>
               <div xmlns="http://www.w3.org/1999/xhtml">
                  <table class="hl7__ips first25">
                     <tr>
                        <th>Medication</th>
                        <th>Since</th>
                        <th>Form</th>
                        <th>Dosage</th>
                        <th>Reason</th>
                     </tr>
                     <tr>
                        <td>Acetaminophen 300 mg and hydrocodone bitartrate 5 mg oral tablet</td>
                        <td>
                           <span class="nb">2014-03-18</span>
                        </td>
                        <td>-</td>
                        <td>1 tablet (300 mg/5 mg) by mouth every 4 to 6 hours as needed for pain</td>
                        <td>-</td>
                     </tr>
                  </table>
               </div>
            </text>
            <status value="active"/>
            <medicationReference>
               <reference value="urn:uuid:b2fbd19e-b664-4808-bc9c-c691f58faef6"/>
               <display value="Acetaminophen 300 mg and hydrocodone bitartrate 5 mg oral tablet"/>
            </medicationReference>
            <subject>
               <reference value="urn:uuid:bcef1bb7-bb27-45c9-82a0-86d5a256e93d"/>
               <display value="Jele Jurković"/>
            </subject>
            <effectivePeriod>
               <start value="2014-03-18"/>
            </effectivePeriod>
            <dosage>
               <text value="1 tablet (300 mg/5 mg) by mouth every 4 to 6 hours as needed for pain"/>
               <timing>
                  <repeat>
                     <frequency value="6"/>
                     <period value="1"/>
                     <periodUnit value="d"/>
                  </repeat>
               </timing>
               <asNeededBoolean value="true"/>
               <doseAndRate>
                  <doseQuantity>
                     <value value="1"/>
                     <unit value="{tbl}"/>
                     <code value="{tbl}"/>
                  </doseQuantity>
               </doseAndRate>
            </dosage>
         </MedicationStatement>
      </resource>
   </entry>
   <entry>
      <fullUrl value="urn:uuid:5d5b626d-32e7-4eaf-a3ee-5c9da13be173"/>
      <resource>
         <Medication>
            <id value="5d5b626d-32e7-4eaf-a3ee-5c9da13be173"/>
            <meta>
               <profile value="http://hl7.eu/fhir/eps/StructureDefinition/Medication-eu-eps"/>
            </meta>
            <text>
               <status value="generated"/>
               <div xmlns="http://www.w3.org/1999/xhtml">Vitamin B12 5 MG/ML Injectable Solution</div>
            </text>
            <code>
               <coding>
                  <system value="http://www.nlm.nih.gov/research/umls/rxnorm"/>
                  <code value="2001499"/>
                  <display value="Vitamin B12 5 MG/ML Injectable Solution"/>
               </coding>
               <text value="Vitamin B12 5 MG/ML Injectable Solution"/>
            </code>
         </Medication>
      </resource>
   </entry>
   <entry>
      <fullUrl value="urn:uuid:b65e7068-d7d1-42b1-ae30-3ddf4ffd8f1b"/>
      <resource>
         <MedicationStatement>
            <id value="b65e7068-d7d1-42b1-ae30-3ddf4ffd8f1b"/>
            <meta>
               <profile value="http://hl7.eu/fhir/eps/StructureDefinition/MedicationStatement-eu-eps"/>
            </meta>
            <text>
               <status value="generated"/>
               <div xmlns="http://www.w3.org/1999/xhtml">
                  <table class="hl7__ips first25">
                     <tr>
                        <th>Medication</th>
                        <th>Since</th>
                        <th>Form</th>
                        <th>Dosage</th>
                        <th>Reason</th>
                     </tr>
                     <tr>
                        <td>Vitamin B12 5 MG/ML Injectable Solution</td>
                        <td>
                           <span class="nb">1974-10-02</span>
                        </td>
                        <td>-</td>
                        <td>1 mL (5 mg) intramuscularly once weekly</td>
                        <td>-</td>
                     </tr>
                  </table>
               </div>
            </text>
            <status value="active"/>
            <medicationReference>
               <reference value="urn:uuid:5d5b626d-32e7-4eaf-a3ee-5c9da13be173"/>
               <display value="Vitamin B12 5 MG/ML Injectable Solution"/>
            </medicationReference>
            <subject>
               <reference value="urn:uuid:bcef1bb7-bb27-45c9-82a0-86d5a256e93d"/>
               <display value="Jele Jurković"/>
            </subject>
            <effectivePeriod>
               <start value="1974-10-02"/>
            </effectivePeriod>
            <dosage>
               <text value="1 mL (5 mg) intramuscularly once weekly"/>
               <timing>
                  <repeat>
                     <frequency value="1"/>
                     <period value="1"/>
                     <periodUnit value="wk"/>
                  </repeat>
               </timing>
               <asNeededBoolean value="false"/>
               <doseAndRate>
                  <doseQuantity>
                     <value value="1"/>
                     <unit value="mL"/>
                     <code value="mL"/>
                  </doseQuantity>
               </doseAndRate>
            </dosage>
         </MedicationStatement>
      </resource>
   </entry>
   <entry>
      <fullUrl value="urn:uuid:5bc1fc50-8eb8-4874-9ba0-56e793fb7ae5"/>
      <resource>
         <Immunization>
            <id value="5bc1fc50-8eb8-4874-9ba0-56e793fb7ae5"/>
            <meta>
               <profile value="http://hl7.org/fhir/uv/ips/StructureDefinition/Immunization-uv-ips"/>
            </meta>
            <text>
               <status value="generated"/>
               <div xmlns="http://www.w3.org/1999/xhtml">
                  <table class="hl7__ips">
                     <tr>
                        <td>Influenza virus antigen only vaccine product</td>
                        <td>
                           <span class="nb">05-Mar-2025</span>
                        </td>
                     </tr>
                  </table>
               </div>
            </text>
            <status value="completed"/>
            <vaccineCode>
               <coding>
                  <system value="http://snomed.info/sct"/>
                  <code value="1181000221105"/>
                  <display value="Vaccine product containing Influenza virus antigen"/>
               </coding>
               <coding>
                  <system value="http://www.whocc.no/atc"/>
                  <code value="J07BB02"/>
                  <display value="Influenza, inactivated, split virus"/>
               </coding>
               <text value="Influenza virus antigen only vaccine product"/>
            </vaccineCode>
            <patient>
               <reference value="urn:uuid:bcef1bb7-bb27-45c9-82a0-86d5a256e93d"/>
               <display value="Jele Jurković"/>
            </patient>
            <occurrenceDateTime value="2025-03-05"/>
            <lotNumber value="WR-T0kJ"/>
            <expirationDate value="2025-11-08"/>
            <site>
               <coding>
                  <system value="http://snomed.info/sct"/>
                  <code value="244979005"/>
                  <display value="Entire muscle of upper arm"/>
               </coding>
               <text value="Entire muscle of upper arm"/>
            </site>
            <route>
               <coding>
                  <system value="http://snomed.info/sct"/>
                  <code value="78421000"/>
                  <display value="Intramuscular route"/>
               </coding>
               <text value="Intramuscular route"/>
            </route>
         </Immunization>
      </resource>
   </entry>
   <entry>
      <fullUrl value="urn:uuid:5048203e-45e4-46e3-99fc-013108d83999"/>
      <resource>
         <Immunization>
            <id value="5048203e-45e4-46e3-99fc-013108d83999"/>
            <meta>
               <profile value="http://hl7.org/fhir/uv/ips/StructureDefinition/Immunization-uv-ips"/>
            </meta>
            <text>
               <status value="generated"/>
               <div xmlns="http://www.w3.org/1999/xhtml">
                  <table class="hl7__ips">
                     <tr>
                        <td>Clostridium tetani toxoid antigen adsorbed only vaccine product</td>
                        <td>
                           <span class="nb">05-Feb-2020</span>
                        </td>
                     </tr>
                  </table>
               </div>
            </text>
            <status value="completed"/>
            <vaccineCode>
               <coding>
                  <system value="http://snomed.info/sct"/>
                  <code value="777725002"/>
                  <display value="Vaccine product containing only Clostridium tetani toxoid antigen adsorbed"/>
               </coding>
               <coding>
                  <system value="http://www.whocc.no/atc"/>
                  <code value="J07AM51"/>
                  <display value="Diphtheria-tetanus vaccines, adult type"/>
               </coding>
               <text value="Clostridium tetani toxoid antigen adsorbed only vaccine product"/>
            </vaccineCode>
            <patient>
               <reference value="urn:uuid:bcef1bb7-bb27-45c9-82a0-86d5a256e93d"/>
               <display value="Jele Jurković"/>
            </patient>
            <occurrenceDateTime value="2020-02-05"/>
            <lotNumber value="GE-EwaQJDG"/>
            <expirationDate value="2020-05-01"/>
            <site>
               <coding>
                  <system value="http://snomed.info/sct"/>
                  <code value="244979005"/>
                  <display value="Entire muscle of upper arm"/>
               </coding>
               <text value="Entire muscle of upper arm"/>
            </site>
            <route>
               <coding>
                  <system value="http://snomed.info/sct"/>
                  <code value="78421000"/>
                  <display value="Intramuscular route"/>
               </coding>
               <text value="Intramuscular route"/>
            </route>
         </Immunization>
      </resource>
   </entry>
   <entry>
      <fullUrl value="urn:uuid:4cbb8517-2228-4abe-8751-894f48b90992"/>
      <resource>
         <Procedure>
            <id value="4cbb8517-2228-4abe-8751-894f48b90992"/>
            <meta>
               <profile value="http://hl7.org/fhir/uv/ips/StructureDefinition/Procedure-uv-ips"/>
            </meta>
            <text>
               <status value="generated"/>
               <div xmlns="http://www.w3.org/1999/xhtml">
                  <table class="hl7__ips">
                     <tr>
                        <td>Depression screening</td>
                        <td>
                           <span class="nb">05-Jul-2023</span>
                        </td>
                        <td>-</td>
                     </tr>
                  </table>
               </div>
            </text>
            <status value="completed"/>
            <code>
               <coding>
                  <system value="http://snomed.info/sct"/>
                  <code value="171207006"/>
                  <display value="Depression screening (procedure)"/>
               </coding>
               <text value="Depression screening"/>
            </code>
            <subject>
               <reference value="urn:uuid:"/>
               <display value="Jele Jurković"/>
            </subject>
            <performedDateTime value="2023-07-05"/>
         </Procedure>
      </resource>
   </entry>
   <entry>
      <fullUrl value="urn:uuid:18de8c86-4273-4cb7-895b-0965408b6170"/>
      <resource>
         <Procedure>
            <id value="18de8c86-4273-4cb7-895b-0965408b6170"/>
            <meta>
               <profile value="http://hl7.org/fhir/uv/ips/StructureDefinition/Procedure-uv-ips"/>
            </meta>
            <text>
               <status value="generated"/>
               <div xmlns="http://www.w3.org/1999/xhtml">
                  <table class="hl7__ips">
                     <tr>
                        <td>Assessment of health and social care needs</td>
                        <td>
                           <span class="nb">05-Jul-2023</span>
                        </td>
                        <td>-</td>
                     </tr>
                  </table>
               </div>
            </text>
            <status value="completed"/>
            <code>
               <coding>
                  <system value="http://snomed.info/sct"/>
                  <code value="710824005"/>
                  <display value="Assessment of health and social care needs (procedure)"/>
               </coding>
               <text value="Assessment of health and social care needs"/>
            </code>
            <subject>
               <reference value="urn:uuid:"/>
               <display value="Jele Jurković"/>
            </subject>
            <performedDateTime value="2023-07-05"/>
         </Procedure>
      </resource>
   </entry>
   <entry>
      <fullUrl value="urn:uuid:39e8e7bd-1159-4fca-b5d2-1b4a7d6fbe73"/>
      <resource>
         <Procedure>
            <id value="39e8e7bd-1159-4fca-b5d2-1b4a7d6fbe73"/>
            <meta>
               <profile value="http://hl7.org/fhir/uv/ips/StructureDefinition/Procedure-uv-ips"/>
            </meta>
            <text>
               <status value="generated"/>
               <div xmlns="http://www.w3.org/1999/xhtml">
                  <table class="hl7__ips">
                     <tr>
                        <td>Assessment using Morse Fall Scale</td>
                        <td>
                           <span class="nb">05-Jul-2023</span>
                        </td>
                        <td>-</td>
                     </tr>
                  </table>
               </div>
            </text>
            <status value="completed"/>
            <code>
               <coding>
                  <system value="http://snomed.info/sct"/>
                  <code value="762993000"/>
                  <display value="Assessment using Morse Fall Scale (procedure)"/>
               </coding>
               <text value="Assessment using Morse Fall Scale"/>
            </code>
            <subject>
               <reference value="urn:uuid:"/>
               <display value="Jele Jurković"/>
            </subject>
            <performedDateTime value="2023-07-05"/>
         </Procedure>
      </resource>
   </entry>
   <entry>
      <fullUrl value="urn:uuid:c924f7ec-de84-49ea-bb2e-62619dba290a"/>
      <resource>
         <Procedure>
            <id value="c924f7ec-de84-49ea-bb2e-62619dba290a"/>
            <meta>
               <profile value="http://hl7.org/fhir/uv/ips/StructureDefinition/Procedure-uv-ips"/>
            </meta>
            <text>
               <status value="generated"/>
               <div xmlns="http://www.w3.org/1999/xhtml">
                  <table class="hl7__ips">
                     <tr>
                        <td>Screening for domestic abuse</td>
                        <td>
                           <span class="nb">05-Jul-2023</span>
                        </td>
                        <td>-</td>
                     </tr>
                  </table>
               </div>
            </text>
            <status value="completed"/>
            <code>
               <coding>
                  <system value="http://snomed.info/sct"/>
                  <code value="866148006"/>
                  <display value="Screening for domestic abuse (procedure)"/>
               </coding>
               <text value="Screening for domestic abuse"/>
            </code>
            <subject>
               <reference value="urn:uuid:"/>
               <display value="Jele Jurković"/>
            </subject>
            <performedDateTime value="2023-07-05"/>
         </Procedure>
      </resource>
   </entry>
   <entry>
      <fullUrl value="urn:uuid:4fb90645-1c82-4ecb-a9ee-e17f678172cb"/>
      <resource>
         <Procedure>
            <id value="4fb90645-1c82-4ecb-a9ee-e17f678172cb"/>
            <meta>
               <profile value="http://hl7.org/fhir/uv/ips/StructureDefinition/Procedure-uv-ips"/>
            </meta>
            <text>
               <status value="generated"/>
               <div xmlns="http://www.w3.org/1999/xhtml">
                  <table class="hl7__ips">
                     <tr>
                        <td>Depression screening using Patient Health Questionnaire Two-Item score (procedure)</td>
                        <td>
                           <span class="nb">05-Jul-2023</span>
                        </td>
                        <td>-</td>
                     </tr>
                  </table>
               </div>
            </text>
            <status value="completed"/>
            <code>
               <coding>
                  <system value="http://snomed.info/sct"/>
                  <code value="454711000124102"/>
                  <display value="Depression screening using Patient Health Questionnaire Two-Item score (procedure)"/>
               </coding>
            </code>
            <subject>
               <reference value="urn:uuid:"/>
               <display value="Jele Jurković"/>
            </subject>
            <performedDateTime value="2023-07-05"/>
         </Procedure>
      </resource>
   </entry>
   <entry>
      <fullUrl value="urn:uuid:12bec645-731d-443c-93f5-b333d2551457"/>
      <resource>
         <AllergyIntolerance>
            <id value="12bec645-731d-443c-93f5-b333d2551457"/>
            <meta>
               <profile value="http://hl7.eu/fhir/eps/StructureDefinition/allergyIntolerance-eu-eps"/>
            </meta>
            <text>
               <status value="generated"/>
               <div xmlns="http://www.w3.org/1999/xhtml">
                  <table class="hl7__ips">
                     <tr>
                        <th>Allergy/Intolerance</th>
                        <th>Onset Date</th>
                        <th>Status</th>
                        <th>Type</th>
                        <th>Reaction</th>
                     </tr>
                     <tr>
                        <td/>
                        <td>?</td>
                        <td>active</td>
                        <td>?</td>
                        <td/>
                     </tr>
                  </table>
               </div>
            </text>
            <clinicalStatus>
               <coding>
                  <system value="http://terminology.hl7.org/CodeSystem/allergyintolerance-clinical"/>
                  <code value="active"/>
               </coding>
            </clinicalStatus>
            <verificationStatus>
               <coding>
                  <system value="http://terminology.hl7.org/CodeSystem/allergyintolerance-verification"/>
                  <code value="confirmed"/>
               </coding>
            </verificationStatus>
            <code>
               <text/>
            </code>
            <patient>
               <reference value="urn:uuid:bcef1bb7-bb27-45c9-82a0-86d5a256e93d"/>
               <display value="Jele Jurković"/>
            </patient>
            <onsetDateTime>
               <extension url="http://hl7.org/fhir/StructureDefinition/data-absent-reason">
                  <valueCode value="unknown"/>
               </extension>
            </onsetDateTime>
         </AllergyIntolerance>
      </resource>
   </entry>
   <entry>
      <fullUrl value="urn:uuid:1e7f12e2-2bfd-4f74-811e-3006d248dd27"/>
      <resource>
         <CarePlan>
            <id value="1e7f12e2-2bfd-4f74-811e-3006d248dd27"/>
            <text>
               <status value="generated"/>
               <div xmlns="http://www.w3.org/1999/xhtml">
                  <table class="hl7__ips first25">
                     <tr>
                        <th>Active Planned Care / Goals</th>
                        <th>Start Date</th>
                        <th>Reason</th>
                     </tr>
                     <tr>
                        <td>Therapy</td>
                        <td>
                           <span class="nb">18-Mar-2014</span>
                        </td>
                        <td>-</td>
                     </tr>
                  </table>
               </div>
            </text>
            <status value="active"/>
            <intent value="plan"/>
            <category>
               <coding>
                  <system value="http://terminology.hl7.org/CodeSystem/care-plan-category"/>
                  <code value="assess-plan"/>
                  <display value="Assessment and Plan"/>
               </coding>
            </category>
            <subject>
               <reference value="urn:uuid:bcef1bb7-bb27-45c9-82a0-86d5a256e93d"/>
               <display value="Jele Jurković"/>
            </subject>
            <period>
               <start value="2014-03-18"/>
            </period>
            <activity>
               <detail>
                  <kind value="Appointment"/>
                  <code>
                     <coding>
                        <system value="http://snomed.info/sct"/>
                        <code value="276239002"/>
                        <display value="Therapy (regime/therapy)"/>
                     </coding>
                  </code>
                  <status value="unknown"/>
                  <description value="Therapy"/>
               </detail>
            </activity>
         </CarePlan>
      </resource>
   </entry>
   <entry>
      <fullUrl value="urn:uuid:6af53a31-e89b-4dad-a87f-f9871921078c"/>
      <resource>
         <CarePlan>
            <id value="6af53a31-e89b-4dad-a87f-f9871921078c"/>
            <text>
               <status value="generated"/>
               <div xmlns="http://www.w3.org/1999/xhtml">
                  <table class="hl7__ips first25">
                     <tr>
                        <th>Active Planned Care / Goals</th>
                        <th>Start Date</th>
                        <th>Reason</th>
                     </tr>
                     <tr>
                        <td>Care plan</td>
                        <td>
                           <span class="nb">05-May-2009</span>
                        </td>
                        <td>-</td>
                     </tr>
                  </table>
               </div>
            </text>
            <status value="active"/>
            <intent value="plan"/>
            <category>
               <coding>
                  <system value="http://terminology.hl7.org/CodeSystem/care-plan-category"/>
                  <code value="assess-plan"/>
                  <display value="Assessment and Plan"/>
               </coding>
            </category>
            <subject>
               <reference value="urn:uuid:bcef1bb7-bb27-45c9-82a0-86d5a256e93d"/>
               <display value="Jele Jurković"/>
            </subject>
            <period>
               <start value="2009-05-05"/>
            </period>
            <activity>
               <detail>
                  <kind value="Appointment"/>
                  <code>
                     <coding>
                        <system value="http://snomed.info/sct"/>
                        <code value="734163000"/>
                        <display value="Care plan (record artifact)"/>
                     </coding>
                  </code>
                  <status value="unknown"/>
                  <description value="Care plan"/>
               </detail>
            </activity>
         </CarePlan>
      </resource>
   </entry>
   <entry>
      <fullUrl value="urn:uuid:b36e4261-98f3-4869-9aef-ae8ee6d7179c"/>
      <resource>
         <CarePlan>
            <id value="b36e4261-98f3-4869-9aef-ae8ee6d7179c"/>
            <text>
               <status value="generated"/>
               <div xmlns="http://www.w3.org/1999/xhtml">
                  <table class="hl7__ips first25">
                     <tr>
                        <th>Active Planned Care / Goals</th>
                        <th>Start Date</th>
                        <th>Reason</th>
                     </tr>
                     <tr>
                        <td>Diabetes self management plan</td>
                        <td>
                           <span class="nb">05-Dec-1973</span>
                        </td>
                        <td>Prediabetes</td>
                     </tr>
                     <tr>
                        <td>
                           <ul>
                              <li>Patient will implement and maintain a diabetes self-management plan to reduce risk of progression to diabetes.</li>
                           </ul>
                        </td>
                        <td/>
                        <td/>
                     </tr>
                  </table>
               </div>
            </text>
            <status value="active"/>
            <intent value="plan"/>
            <category>
               <coding>
                  <system value="http://terminology.hl7.org/CodeSystem/care-plan-category"/>
                  <code value="assess-plan"/>
                  <display value="Assessment and Plan"/>
               </coding>
            </category>
            <subject>
               <reference value="urn:uuid:bcef1bb7-bb27-45c9-82a0-86d5a256e93d"/>
               <display value="Jele Jurković"/>
            </subject>
            <period>
               <start value="1973-12-05"/>
            </period>
            <goal>
               <reference value="urn:uuid:859ed86f-f204-423b-95ea-dc05a81e7d91"/>
            </goal>
            <activity>
               <detail>
                  <kind value="Appointment"/>
                  <code>
                     <coding>
                        <system value="http://snomed.info/sct"/>
                        <code value="698360004"/>
                        <display value="Diabetes self management plan (qualifier value)"/>
                     </coding>
                  </code>
                  <reasonCode>
                     <coding>
                        <system value="http://snomed.info/sct"/>
                        <code value="15777000"/>
                        <display value="Prediabetes"/>
                     </coding>
                  </reasonCode>
                  <status value="unknown"/>
                  <description value="Diabetes self management plan"/>
               </detail>
            </activity>
         </CarePlan>
      </resource>
   </entry>
   <entry>
      <fullUrl value="urn:uuid:478121ab-3f82-49f4-9ce2-0deac74f137f"/>
      <resource>
         <ImmunizationRecommendation>
            <id value="478121ab-3f82-49f4-9ce2-0deac74f137f"/>
            <text>
               <status value="generated"/>
               <div xmlns="http://www.w3.org/1999/xhtml">
                  <table class="hl7__ips">
                     <tr>
                        <td>Vaccine product containing only Influenza virus antigen (medicinal product)</td>
                        <td>
                           <span class="nb">01-Oct-2025</span>
                        </td>
                        <td>Annual seasonal influenza vaccination</td>
                     </tr>
                  </table>
               </div>
            </text>
            <patient>
               <reference value="urn:uuid:bcef1bb7-bb27-45c9-82a0-86d5a256e93d"/>
               <display value="Jele Jurković"/>
            </patient>
            <date value="2025-10-22"/>
            <recommendation>
               <vaccineCode>
                  <coding>
                     <system value="http://snomed.info/sct"/>
                     <code value="1181000221105"/>
                     <display value="Vaccine product containing only Influenza virus antigen (medicinal product)"/>
                  </coding>
               </vaccineCode>
               <targetDisease>
                  <coding>
                     <system value="http://snomed.info/sct"/>
                     <code value="6142004"/>
                     <display value="Influenza (disorder)"/>
                  </coding>
               </targetDisease>
               <forecastStatus>
                  <coding>
                     <system value="http://terminology.hl7.org/CodeSystem/immunization-recommendation-status"/>
                     <code value="due"/>
                     <display value="Due"/>
                  </coding>
               </forecastStatus>
               <dateCriterion>
                  <code>
                     <coding>
                        <system value="http://loinc.org"/>
                        <code value="30980-7"/>
                        <display value="Date vaccine due"/>
                     </coding>
                  </code>
                  <value value="2025-10-01"/>
               </dateCriterion>
               <series value="Annual seasonal influenza vaccination"/>
            </recommendation>
         </ImmunizationRecommendation>
      </resource>
   </entry>
   <entry>
      <fullUrl value="urn:uuid:62ec486e-d009-4c6b-9394-4eabec71acf1"/>
      <resource>
         <Observation>
            <id value="62ec486e-d009-4c6b-9394-4eabec71acf1"/>
            <meta>
               <profile value="http://hl7.org/fhir/StructureDefinition/vitalsigns"/>
            </meta>
            <text>
               <status value="generated"/>
               <div xmlns="http://www.w3.org/1999/xhtml">
                  <table class="hl7__ips">
                     <tr>
                        <th>Vital Sign</th>
                        <th>Date</th>
                        <th>Measurement</th>
                     </tr>
                     <tr>
                        <td>Body Height</td>
                        <td>05-Mar-2025</td>
                        <td>160.8 cm</td>
                     </tr>
                  </table>
               </div>
            </text>
            <status value="final"/>
            <category>
               <coding>
                  <system value="http://terminology.hl7.org/CodeSystem/observation-category"/>
                  <code value="vital-signs"/>
                  <display value="Vital Signs"/>
               </coding>
            </category>
            <code>
               <coding>
                  <system value="http://loinc.org"/>
                  <code value="$8302-2"/>
                  <display value="Body Height"/>
               </coding>
            </code>
            <subject>
               <reference value="urn:uuid:bcef1bb7-bb27-45c9-82a0-86d5a256e93d"/>
               <display value="Jele Jurković"/>
            </subject>
            <effectiveDateTime value="2025-03-05"/>
            <valueQuantity>
               <value value="160.8"/>
               <unit value="cm"/>
               <code value="cm"/>
            </valueQuantity>
         </Observation>
      </resource>
   </entry>
   <entry>
      <fullUrl value="urn:uuid:d4554bb6-8965-4706-bb57-e98d508f7107"/>
      <resource>
         <Observation>
            <id value="d4554bb6-8965-4706-bb57-e98d508f7107"/>
            <meta>
               <profile value="http://hl7.org/fhir/StructureDefinition/vitalsigns"/>
            </meta>
            <text>
               <status value="generated"/>
               <div xmlns="http://www.w3.org/1999/xhtml">
                  <table class="hl7__ips">
                     <tr>
                        <th>Vital Sign</th>
                        <th>Date</th>
                        <th>Measurement</th>
                     </tr>
                     <tr>
                        <td>Pain severity - 0-10 verbal numeric rating [Score] - Reported</td>
                        <td>05-Mar-2025</td>
                        <td>1 {score}</td>
                     </tr>
                  </table>
               </div>
            </text>
            <status value="final"/>
            <category>
               <coding>
                  <system value="http://terminology.hl7.org/CodeSystem/observation-category"/>
                  <code value="vital-signs"/>
                  <display value="Vital Signs"/>
               </coding>
            </category>
            <code>
               <coding>
                  <system value="http://loinc.org"/>
                  <code value="$72514-3"/>
                  <display value="Pain severity - 0-10 verbal numeric rating [Score] - Reported"/>
               </coding>
            </code>
            <subject>
               <reference value="urn:uuid:bcef1bb7-bb27-45c9-82a0-86d5a256e93d"/>
               <display value="Jele Jurković"/>
            </subject>
            <effectiveDateTime value="2025-03-05"/>
            <valueQuantity>
               <value value="1"/>
               <unit value="{score}"/>
               <code value="{score}"/>
            </valueQuantity>
         </Observation>
      </resource>
   </entry>
   <entry>
      <fullUrl value="urn:uuid:caa1f0e0-fe0c-4848-9902-548e5be8faf7"/>
      <resource>
         <Observation>
            <id value="caa1f0e0-fe0c-4848-9902-548e5be8faf7"/>
            <meta>
               <profile value="http://hl7.org/fhir/StructureDefinition/vitalsigns"/>
            </meta>
            <text>
               <status value="generated"/>
               <div xmlns="http://www.w3.org/1999/xhtml">
                  <table class="hl7__ips">
                     <tr>
                        <th>Vital Sign</th>
                        <th>Date</th>
                        <th>Measurement</th>
                     </tr>
                     <tr>
                        <td>Body Weight</td>
                        <td>05-Mar-2025</td>
                        <td>75.6 kg</td>
                     </tr>
                  </table>
               </div>
            </text>
            <status value="final"/>
            <category>
               <coding>
                  <system value="http://terminology.hl7.org/CodeSystem/observation-category"/>
                  <code value="vital-signs"/>
                  <display value="Vital Signs"/>
               </coding>
            </category>
            <code>
               <coding>
                  <system value="http://loinc.org"/>
                  <code value="$29463-7"/>
                  <display value="Body Weight"/>
               </coding>
            </code>
            <subject>
               <reference value="urn:uuid:bcef1bb7-bb27-45c9-82a0-86d5a256e93d"/>
               <display value="Jele Jurković"/>
            </subject>
            <effectiveDateTime value="2025-03-05"/>
            <valueQuantity>
               <value value="75.6"/>
               <unit value="kg"/>
               <code value="kg"/>
            </valueQuantity>
         </Observation>
      </resource>
   </entry>
   <entry>
      <fullUrl value="urn:uuid:97264665-8392-4bad-9f6c-f5371bd72068"/>
      <resource>
         <Observation>
            <id value="97264665-8392-4bad-9f6c-f5371bd72068"/>
            <meta>
               <profile value="http://hl7.org/fhir/StructureDefinition/vitalsigns"/>
            </meta>
            <text>
               <status value="generated"/>
               <div xmlns="http://www.w3.org/1999/xhtml">
                  <table class="hl7__ips">
                     <tr>
                        <th>Vital Sign</th>
                        <th>Date</th>
                        <th>Measurement</th>
                     </tr>
                     <tr>
                        <td>Body mass index (BMI) [Ratio]</td>
                        <td>05-Mar-2025</td>
                        <td>29.2 kg/m2</td>
                     </tr>
                  </table>
               </div>
            </text>
            <status value="final"/>
            <category>
               <coding>
                  <system value="http://terminology.hl7.org/CodeSystem/observation-category"/>
                  <code value="vital-signs"/>
                  <display value="Vital Signs"/>
               </coding>
            </category>
            <code>
               <coding>
                  <system value="http://loinc.org"/>
                  <code value="$39156-5"/>
                  <display value="Body mass index (BMI) [Ratio]"/>
               </coding>
            </code>
            <subject>
               <reference value="urn:uuid:bcef1bb7-bb27-45c9-82a0-86d5a256e93d"/>
               <display value="Jele Jurković"/>
            </subject>
            <effectiveDateTime value="2025-03-05"/>
            <valueQuantity>
               <value value="29.2"/>
               <unit value="kg/m2"/>
               <code value="kg/m2"/>
            </valueQuantity>
         </Observation>
      </resource>
   </entry>
   <entry>
      <fullUrl value="urn:uuid:f5eda9e5-f15a-4cb3-acfb-174de6a4bd3b"/>
      <resource>
         <Observation>
            <id value="f5eda9e5-f15a-4cb3-acfb-174de6a4bd3b"/>
            <meta>
               <profile value="http://hl7.org/fhir/StructureDefinition/vitalsigns"/>
            </meta>
            <text>
               <status value="generated"/>
               <div xmlns="http://www.w3.org/1999/xhtml">
                  <table class="hl7__ips">
                     <tr>
                        <th>Vital Sign</th>
                        <th>Date</th>
                        <th>Measurement</th>
                     </tr>
                     <tr>
                        <td>Diastolic Blood Pressure</td>
                        <td>05-Mar-2025</td>
                        <td>81 mm[Hg]</td>
                     </tr>
                  </table>
               </div>
            </text>
            <status value="final"/>
            <category>
               <coding>
                  <system value="http://terminology.hl7.org/CodeSystem/observation-category"/>
                  <code value="vital-signs"/>
                  <display value="Vital Signs"/>
               </coding>
            </category>
            <code>
               <coding>
                  <system value="http://loinc.org"/>
                  <code value="$8462-4"/>
                  <display value="Diastolic Blood Pressure"/>
               </coding>
            </code>
            <subject>
               <reference value="urn:uuid:bcef1bb7-bb27-45c9-82a0-86d5a256e93d"/>
               <display value="Jele Jurković"/>
            </subject>
            <effectiveDateTime value="2025-03-05"/>
            <valueQuantity>
               <value value="81"/>
               <unit value="mm[Hg]"/>
               <code value="mm[Hg]"/>
            </valueQuantity>
         </Observation>
      </resource>
   </entry>
   <entry>
      <fullUrl value="urn:uuid:d8bfa896-a32b-40e9-a7a2-a3303b3a10d4"/>
      <resource>
         <Observation>
            <id value="d8bfa896-a32b-40e9-a7a2-a3303b3a10d4"/>
            <meta>
               <profile value="http://hl7.org/fhir/StructureDefinition/vitalsigns"/>
            </meta>
            <text>
               <status value="generated"/>
               <div xmlns="http://www.w3.org/1999/xhtml">
                  <table class="hl7__ips">
                     <tr>
                        <th>Vital Sign</th>
                        <th>Date</th>
                        <th>Measurement</th>
                     </tr>
                     <tr>
                        <td>Systolic Blood Pressure</td>
                        <td>05-Mar-2025</td>
                        <td>106 mm[Hg]</td>
                     </tr>
                  </table>
               </div>
            </text>
            <status value="final"/>
            <category>
               <coding>
                  <system value="http://terminology.hl7.org/CodeSystem/observation-category"/>
                  <code value="vital-signs"/>
                  <display value="Vital Signs"/>
               </coding>
            </category>
            <code>
               <coding>
                  <system value="http://loinc.org"/>
                  <code value="$8480-6"/>
                  <display value="Systolic Blood Pressure"/>
               </coding>
            </code>
            <subject>
               <reference value="urn:uuid:bcef1bb7-bb27-45c9-82a0-86d5a256e93d"/>
               <display value="Jele Jurković"/>
            </subject>
            <effectiveDateTime value="2025-03-05"/>
            <valueQuantity>
               <value value="106"/>
               <unit value="mm[Hg]"/>
               <code value="mm[Hg]"/>
            </valueQuantity>
         </Observation>
      </resource>
   </entry>
   <entry>
      <fullUrl value="urn:uuid:8fc14e3b-3d85-4db4-b786-f6a83737301b"/>
      <resource>
         <Observation>
            <id value="8fc14e3b-3d85-4db4-b786-f6a83737301b"/>
            <meta>
               <profile value="http://hl7.org/fhir/StructureDefinition/vitalsigns"/>
            </meta>
            <text>
               <status value="generated"/>
               <div xmlns="http://www.w3.org/1999/xhtml">
                  <table class="hl7__ips">
                     <tr>
                        <th>Vital Sign</th>
                        <th>Date</th>
                        <th>Measurement</th>
                     </tr>
                     <tr>
                        <td>Heart rate</td>
                        <td>05-Mar-2025</td>
                        <td>77 /min</td>
                     </tr>
                  </table>
               </div>
            </text>
            <status value="final"/>
            <category>
               <coding>
                  <system value="http://terminology.hl7.org/CodeSystem/observation-category"/>
                  <code value="vital-signs"/>
                  <display value="Vital Signs"/>
               </coding>
            </category>
            <code>
               <coding>
                  <system value="http://loinc.org"/>
                  <code value="$8867-4"/>
                  <display value="Heart rate"/>
               </coding>
            </code>
            <subject>
               <reference value="urn:uuid:bcef1bb7-bb27-45c9-82a0-86d5a256e93d"/>
               <display value="Jele Jurković"/>
            </subject>
            <effectiveDateTime value="2025-03-05"/>
            <valueQuantity>
               <value value="77"/>
               <unit value="/min"/>
               <code value="/min"/>
            </valueQuantity>
         </Observation>
      </resource>
   </entry>
   <entry>
      <fullUrl value="urn:uuid:c37f1c4e-7641-4a3d-b442-a3bbc0ca25b7"/>
      <resource>
         <Observation>
            <id value="c37f1c4e-7641-4a3d-b442-a3bbc0ca25b7"/>
            <meta>
               <profile value="http://hl7.org/fhir/StructureDefinition/vitalsigns"/>
            </meta>
            <text>
               <status value="generated"/>
               <div xmlns="http://www.w3.org/1999/xhtml">
                  <table class="hl7__ips">
                     <tr>
                        <th>Vital Sign</th>
                        <th>Date</th>
                        <th>Measurement</th>
                     </tr>
                     <tr>
                        <td>Respiratory rate</td>
                        <td>05-Mar-2025</td>
                        <td>13 /min</td>
                     </tr>
                  </table>
               </div>
            </text>
            <status value="final"/>
            <category>
               <coding>
                  <system value="http://terminology.hl7.org/CodeSystem/observation-category"/>
                  <code value="vital-signs"/>
                  <display value="Vital Signs"/>
               </coding>
            </category>
            <code>
               <coding>
                  <system value="http://loinc.org"/>
                  <code value="$9279-1"/>
                  <display value="Respiratory rate"/>
               </coding>
            </code>
            <subject>
               <reference value="urn:uuid:bcef1bb7-bb27-45c9-82a0-86d5a256e93d"/>
               <display value="Jele Jurković"/>
            </subject>
            <effectiveDateTime value="2025-03-05"/>
            <valueQuantity>
               <value value="13"/>
               <unit value="/min"/>
               <code value="/min"/>
            </valueQuantity>
         </Observation>
      </resource>
   </entry>
   <entry>
      <fullUrl value="urn:uuid:cea7fbba-7ab6-45b3-97e8-3bbe373ccdb6"/>
      <resource>
         <Observation>
            <id value="cea7fbba-7ab6-45b3-97e8-3bbe373ccdb6"/>
            <meta>
               <profile value="http://hl7.org/fhir/StructureDefinition/vitalsigns"/>
            </meta>
            <text>
               <status value="generated"/>
               <div xmlns="http://www.w3.org/1999/xhtml">
                  <table class="hl7__ips">
                     <tr>
                        <th>Vital Sign</th>
                        <th>Date</th>
                        <th>Measurement</th>
                     </tr>
                     <tr>
                        <td>Body Height</td>
                        <td>28-Feb-2024</td>
                        <td>160.8 cm</td>
                     </tr>
                  </table>
               </div>
            </text>
            <status value="final"/>
            <category>
               <coding>
                  <system value="http://terminology.hl7.org/CodeSystem/observation-category"/>
                  <code value="vital-signs"/>
                  <display value="Vital Signs"/>
               </coding>
            </category>
            <code>
               <coding>
                  <system value="http://loinc.org"/>
                  <code value="$8302-2"/>
                  <display value="Body Height"/>
               </coding>
            </code>
            <subject>
               <reference value="urn:uuid:bcef1bb7-bb27-45c9-82a0-86d5a256e93d"/>
               <display value="Jele Jurković"/>
            </subject>
            <effectiveDateTime value="2024-02-28"/>
            <valueQuantity>
               <value value="160.8"/>
               <unit value="cm"/>
               <code value="cm"/>
            </valueQuantity>
         </Observation>
      </resource>
   </entry>
   <entry>
      <fullUrl value="urn:uuid:fb3a3603-2161-4726-a84b-fec8af07ca9e"/>
      <resource>
         <Observation>
            <id value="fb3a3603-2161-4726-a84b-fec8af07ca9e"/>
            <meta>
               <profile value="http://hl7.org/fhir/StructureDefinition/vitalsigns"/>
            </meta>
            <text>
               <status value="generated"/>
               <div xmlns="http://www.w3.org/1999/xhtml">
                  <table class="hl7__ips">
                     <tr>
                        <th>Vital Sign</th>
                        <th>Date</th>
                        <th>Measurement</th>
                     </tr>
                     <tr>
                        <td>Pain severity - 0-10 verbal numeric rating [Score] - Reported</td>
                        <td>28-Feb-2024</td>
                        <td>2 {score}</td>
                     </tr>
                  </table>
               </div>
            </text>
            <status value="final"/>
            <category>
               <coding>
                  <system value="http://terminology.hl7.org/CodeSystem/observation-category"/>
                  <code value="vital-signs"/>
                  <display value="Vital Signs"/>
               </coding>
            </category>
            <code>
               <coding>
                  <system value="http://loinc.org"/>
                  <code value="$72514-3"/>
                  <display value="Pain severity - 0-10 verbal numeric rating [Score] - Reported"/>
               </coding>
            </code>
            <subject>
               <reference value="urn:uuid:bcef1bb7-bb27-45c9-82a0-86d5a256e93d"/>
               <display value="Jele Jurković"/>
            </subject>
            <effectiveDateTime value="2024-02-28"/>
            <valueQuantity>
               <value value="2"/>
               <unit value="{score}"/>
               <code value="{score}"/>
            </valueQuantity>
         </Observation>
      </resource>
   </entry>
   <entry>
      <fullUrl value="urn:uuid:1c671ad7-e9f5-43e6-be6d-cbf960097475"/>
      <resource>
         <Observation>
            <id value="1c671ad7-e9f5-43e6-be6d-cbf960097475"/>
            <meta>
               <profile value="http://hl7.org/fhir/StructureDefinition/vitalsigns"/>
            </meta>
            <text>
               <status value="generated"/>
               <div xmlns="http://www.w3.org/1999/xhtml">
                  <table class="hl7__ips">
                     <tr>
                        <th>Vital Sign</th>
                        <th>Date</th>
                        <th>Measurement</th>
                     </tr>
                     <tr>
                        <td>Body Weight</td>
                        <td>28-Feb-2024</td>
                        <td>74.1 kg</td>
                     </tr>
                  </table>
               </div>
            </text>
            <status value="final"/>
            <category>
               <coding>
                  <system value="http://terminology.hl7.org/CodeSystem/observation-category"/>
                  <code value="vital-signs"/>
                  <display value="Vital Signs"/>
               </coding>
            </category>
            <code>
               <coding>
                  <system value="http://loinc.org"/>
                  <code value="$29463-7"/>
                  <display value="Body Weight"/>
               </coding>
            </code>
            <subject>
               <reference value="urn:uuid:bcef1bb7-bb27-45c9-82a0-86d5a256e93d"/>
               <display value="Jele Jurković"/>
            </subject>
            <effectiveDateTime value="2024-02-28"/>
            <valueQuantity>
               <value value="74.1"/>
               <unit value="kg"/>
               <code value="kg"/>
            </valueQuantity>
         </Observation>
      </resource>
   </entry>
   <entry>
      <fullUrl value="urn:uuid:2fadc43c-aeae-44f6-941a-6b9a874d1512"/>
      <resource>
         <Observation>
            <id value="2fadc43c-aeae-44f6-941a-6b9a874d1512"/>
            <meta>
               <profile value="http://hl7.org/fhir/StructureDefinition/vitalsigns"/>
            </meta>
            <text>
               <status value="generated"/>
               <div xmlns="http://www.w3.org/1999/xhtml">
                  <table class="hl7__ips">
                     <tr>
                        <th>Vital Sign</th>
                        <th>Date</th>
                        <th>Measurement</th>
                     </tr>
                     <tr>
                        <td>Body mass index (BMI) [Ratio]</td>
                        <td>28-Feb-2024</td>
                        <td>28.7 kg/m2</td>
                     </tr>
                  </table>
               </div>
            </text>
            <status value="final"/>
            <category>
               <coding>
                  <system value="http://terminology.hl7.org/CodeSystem/observation-category"/>
                  <code value="vital-signs"/>
                  <display value="Vital Signs"/>
               </coding>
            </category>
            <code>
               <coding>
                  <system value="http://loinc.org"/>
                  <code value="$39156-5"/>
                  <display value="Body mass index (BMI) [Ratio]"/>
               </coding>
            </code>
            <subject>
               <reference value="urn:uuid:bcef1bb7-bb27-45c9-82a0-86d5a256e93d"/>
               <display value="Jele Jurković"/>
            </subject>
            <effectiveDateTime value="2024-02-28"/>
            <valueQuantity>
               <value value="28.7"/>
               <unit value="kg/m2"/>
               <code value="kg/m2"/>
            </valueQuantity>
         </Observation>
      </resource>
   </entry>
   <entry>
      <fullUrl value="urn:uuid:fc984221-08b6-4721-89ce-e4739b7097e1"/>
      <resource>
         <Observation>
            <id value="fc984221-08b6-4721-89ce-e4739b7097e1"/>
            <meta>
               <profile value="http://hl7.org/fhir/StructureDefinition/vitalsigns"/>
            </meta>
            <text>
               <status value="generated"/>
               <div xmlns="http://www.w3.org/1999/xhtml">
                  <table class="hl7__ips">
                     <tr>
                        <th>Vital Sign</th>
                        <th>Date</th>
                        <th>Measurement</th>
                     </tr>
                     <tr>
                        <td>Diastolic Blood Pressure</td>
                        <td>28-Feb-2024</td>
                        <td>82 mm[Hg]</td>
                     </tr>
                  </table>
               </div>
            </text>
            <status value="final"/>
            <category>
               <coding>
                  <system value="http://terminology.hl7.org/CodeSystem/observation-category"/>
                  <code value="vital-signs"/>
                  <display value="Vital Signs"/>
               </coding>
            </category>
            <code>
               <coding>
                  <system value="http://loinc.org"/>
                  <code value="$8462-4"/>
                  <display value="Diastolic Blood Pressure"/>
               </coding>
            </code>
            <subject>
               <reference value="urn:uuid:bcef1bb7-bb27-45c9-82a0-86d5a256e93d"/>
               <display value="Jele Jurković"/>
            </subject>
            <effectiveDateTime value="2024-02-28"/>
            <valueQuantity>
               <value value="82"/>
               <unit value="mm[Hg]"/>
               <code value="mm[Hg]"/>
            </valueQuantity>
         </Observation>
      </resource>
   </entry>
   <entry>
      <fullUrl value="urn:uuid:f8352978-cf44-4397-baf2-4a10656d18d3"/>
      <resource>
         <Observation>
            <id value="f8352978-cf44-4397-baf2-4a10656d18d3"/>
            <meta>
               <profile value="http://hl7.org/fhir/StructureDefinition/vitalsigns"/>
            </meta>
            <text>
               <status value="generated"/>
               <div xmlns="http://www.w3.org/1999/xhtml">
                  <table class="hl7__ips">
                     <tr>
                        <th>Vital Sign</th>
                        <th>Date</th>
                        <th>Measurement</th>
                     </tr>
                     <tr>
                        <td>Systolic Blood Pressure</td>
                        <td>28-Feb-2024</td>
                        <td>112 mm[Hg]</td>
                     </tr>
                  </table>
               </div>
            </text>
            <status value="final"/>
            <category>
               <coding>
                  <system value="http://terminology.hl7.org/CodeSystem/observation-category"/>
                  <code value="vital-signs"/>
                  <display value="Vital Signs"/>
               </coding>
            </category>
            <code>
               <coding>
                  <system value="http://loinc.org"/>
                  <code value="$8480-6"/>
                  <display value="Systolic Blood Pressure"/>
               </coding>
            </code>
            <subject>
               <reference value="urn:uuid:bcef1bb7-bb27-45c9-82a0-86d5a256e93d"/>
               <display value="Jele Jurković"/>
            </subject>
            <effectiveDateTime value="2024-02-28"/>
            <valueQuantity>
               <value value="112"/>
               <unit value="mm[Hg]"/>
               <code value="mm[Hg]"/>
            </valueQuantity>
         </Observation>
      </resource>
   </entry>
   <entry>
      <fullUrl value="urn:uuid:5d8d0c74-43f9-472f-b69b-29563c8842b8"/>
      <resource>
         <Observation>
            <id value="5d8d0c74-43f9-472f-b69b-29563c8842b8"/>
            <meta>
               <profile value="http://hl7.org/fhir/StructureDefinition/vitalsigns"/>
            </meta>
            <text>
               <status value="generated"/>
               <div xmlns="http://www.w3.org/1999/xhtml">
                  <table class="hl7__ips">
                     <tr>
                        <th>Vital Sign</th>
                        <th>Date</th>
                        <th>Measurement</th>
                     </tr>
                     <tr>
                        <td>Heart rate</td>
                        <td>28-Feb-2024</td>
                        <td>71 /min</td>
                     </tr>
                  </table>
               </div>
            </text>
            <status value="final"/>
            <category>
               <coding>
                  <system value="http://terminology.hl7.org/CodeSystem/observation-category"/>
                  <code value="vital-signs"/>
                  <display value="Vital Signs"/>
               </coding>
            </category>
            <code>
               <coding>
                  <system value="http://loinc.org"/>
                  <code value="$8867-4"/>
                  <display value="Heart rate"/>
               </coding>
            </code>
            <subject>
               <reference value="urn:uuid:bcef1bb7-bb27-45c9-82a0-86d5a256e93d"/>
               <display value="Jele Jurković"/>
            </subject>
            <effectiveDateTime value="2024-02-28"/>
            <valueQuantity>
               <value value="71"/>
               <unit value="/min"/>
               <code value="/min"/>
            </valueQuantity>
         </Observation>
      </resource>
   </entry>
   <entry>
      <fullUrl value="urn:uuid:0d6eafa3-a787-454f-a41c-5c9a5cf99f7f"/>
      <resource>
         <Observation>
            <id value="0d6eafa3-a787-454f-a41c-5c9a5cf99f7f"/>
            <meta>
               <profile value="http://hl7.org/fhir/StructureDefinition/vitalsigns"/>
            </meta>
            <text>
               <status value="generated"/>
               <div xmlns="http://www.w3.org/1999/xhtml">
                  <table class="hl7__ips">
                     <tr>
                        <th>Vital Sign</th>
                        <th>Date</th>
                        <th>Measurement</th>
                     </tr>
                     <tr>
                        <td>Respiratory rate</td>
                        <td>28-Feb-2024</td>
                        <td>14 /min</td>
                     </tr>
                  </table>
               </div>
            </text>
            <status value="final"/>
            <category>
               <coding>
                  <system value="http://terminology.hl7.org/CodeSystem/observation-category"/>
                  <code value="vital-signs"/>
                  <display value="Vital Signs"/>
               </coding>
            </category>
            <code>
               <coding>
                  <system value="http://loinc.org"/>
                  <code value="$9279-1"/>
                  <display value="Respiratory rate"/>
               </coding>
            </code>
            <subject>
               <reference value="urn:uuid:bcef1bb7-bb27-45c9-82a0-86d5a256e93d"/>
               <display value="Jele Jurković"/>
            </subject>
            <effectiveDateTime value="2024-02-28"/>
            <valueQuantity>
               <value value="14"/>
               <unit value="/min"/>
               <code value="/min"/>
            </valueQuantity>
         </Observation>
      </resource>
   </entry>
   <entry>
      <fullUrl value="urn:uuid:8bc620b5-a9f1-4351-965e-84e16dd8d649"/>
      <resource>
         <Observation>
            <id value="8bc620b5-a9f1-4351-965e-84e16dd8d649"/>
            <meta>
               <profile value="http://hl7.eu/fhir/laboratory/StructureDefinition/Observation-resultslab-eu-lab"/>
            </meta>
            <text>
               <status value="generated"/>
               <div xmlns="http://www.w3.org/1999/xhtml">
                  <table class="hl7__eu__lab__report">
                     <tr>
                        <th>Test</th>
                        <th>05-Mar-2025</th>
                        <th>Reference Range</th>
                        <th>Unit</th>
                     </tr>
                     <tr>
                        <td>Hemoglobin A1c/Hemoglobin.total in Blood</td>
                        <td>6.3</td>
                        <td>4 - 6</td>
                        <td>H</td>
                        <td>%</td>
                     </tr>
                  </table>
               </div>
            </text>
            <status value="final"/>
            <category>
               <coding>
                  <system value="http://terminology.hl7.org/CodeSystem/observation-category"/>
                  <code value="laboratory"/>
               </coding>
            </category>
            <code>
               <coding>
                  <system value="http://loinc.org"/>
                  <code value="4548-4"/>
                  <display value="Hemoglobin A1c/Hemoglobin.total in Blood"/>
               </coding>
               <text value="Hemoglobin A1c/Hemoglobin.total in Blood"/>
            </code>
            <subject>
               <reference value="urn:uuid:bcef1bb7-bb27-45c9-82a0-86d5a256e93d"/>
               <display value="Jele Jurković"/>
            </subject>
            <effectiveDateTime value="2025-03-05T18:07:38Z"/>
            <performer>
               <display value="The Central European Lab"/>
            </performer>
            <valueQuantity>
               <value value="6.3"/>
               <unit value="%"/>
               <system value="http://unitsofmeasure.org"/>
               <code value="%"/>
            </valueQuantity>
            <interpretation>
               <coding>
                  <system value="http://terminology.hl7.org/CodeSystem/v3-ObservationInterpretation"/>
                  <code value="H"/>
                  <display value="High"/>
               </coding>
            </interpretation>
            <referenceRange>
               <low>
                  <value value="4"/>
                  <system value="http://unitsofmeasure.org"/>
                  <code value="%"/>
               </low>
            </referenceRange>
            <referenceRange>
               <high>
                  <value value="6"/>
                  <system value="http://unitsofmeasure.org"/>
                  <code value="%"/>
               </high>
            </referenceRange>
         </Observation>
      </resource>
   </entry>
   <entry>
      <fullUrl value="urn:uuid:e8192576-9f07-4254-af10-88c505d05d93"/>
      <resource>
         <Observation>
            <id value="e8192576-9f07-4254-af10-88c505d05d93"/>
            <meta>
               <profile value="http://hl7.eu/fhir/laboratory/StructureDefinition/Observation-resultslab-eu-lab"/>
            </meta>
            <text>
               <status value="generated"/>
               <div xmlns="http://www.w3.org/1999/xhtml">
                  <table class="hl7__eu__lab__report">
                     <tr>
                        <th>Test</th>
                        <th>05-Mar-2025</th>
                        <th>Reference Range</th>
                        <th>Unit</th>
                     </tr>
                     <tr>
                        <td>Glucose [Mass/volume] in Blood</td>
                        <td>88.8</td>
                        <td>70 - 140</td>
                        <td/>
                        <td>mg/dL</td>
                     </tr>
                  </table>
               </div>
            </text>
            <status value="final"/>
            <category>
               <coding>
                  <system value="http://terminology.hl7.org/CodeSystem/observation-category"/>
                  <code value="laboratory"/>
               </coding>
            </category>
            <code>
               <coding>
                  <system value="http://loinc.org"/>
                  <code value="2339-0"/>
                  <display value="Glucose [Mass/volume] in Blood"/>
               </coding>
               <text value="Glucose [Mass/volume] in Blood"/>
            </code>
            <subject>
               <reference value="urn:uuid:bcef1bb7-bb27-45c9-82a0-86d5a256e93d"/>
               <display value="Jele Jurković"/>
            </subject>
            <effectiveDateTime value="2025-03-05T18:07:38Z"/>
            <performer>
               <display value="The Central European Lab"/>
            </performer>
            <valueQuantity>
               <value value="88.8"/>
               <unit value="mg/dL"/>
               <system value="http://unitsofmeasure.org"/>
               <code value="mg/dL"/>
            </valueQuantity>
            <referenceRange>
               <low>
                  <value value="70"/>
                  <system value="http://unitsofmeasure.org"/>
                  <code value="mg/dL"/>
               </low>
            </referenceRange>
            <referenceRange>
               <high>
                  <value value="140"/>
                  <system value="http://unitsofmeasure.org"/>
                  <code value="mg/dL"/>
               </high>
            </referenceRange>
         </Observation>
      </resource>
   </entry>
   <entry>
      <fullUrl value="urn:uuid:5feff4d5-9649-45b7-ad31-436bcae5a447"/>
      <resource>
         <Observation>
            <id value="5feff4d5-9649-45b7-ad31-436bcae5a447"/>
            <meta>
               <profile value="http://hl7.eu/fhir/laboratory/StructureDefinition/Observation-resultslab-eu-lab"/>
            </meta>
            <text>
               <status value="generated"/>
               <div xmlns="http://www.w3.org/1999/xhtml">
                  <table class="hl7__eu__lab__report">
                     <tr>
                        <th>Test</th>
                        <th>05-Mar-2025</th>
                        <th>Reference Range</th>
                        <th>Unit</th>
                     </tr>
                     <tr>
                        <td>Urea nitrogen [Mass/volume] in Blood</td>
                        <td>7.8</td>
                        <td>7 - 50</td>
                        <td/>
                        <td>mg/dL</td>
                     </tr>
                  </table>
               </div>
            </text>
            <status value="final"/>
            <category>
               <coding>
                  <system value="http://terminology.hl7.org/CodeSystem/observation-category"/>
                  <code value="laboratory"/>
               </coding>
            </category>
            <code>
               <coding>
                  <system value="http://loinc.org"/>
                  <code value="6299-2"/>
                  <display value="Urea nitrogen [Mass/volume] in Blood"/>
               </coding>
               <text value="Urea nitrogen [Mass/volume] in Blood"/>
            </code>
            <subject>
               <reference value="urn:uuid:bcef1bb7-bb27-45c9-82a0-86d5a256e93d"/>
               <display value="Jele Jurković"/>
            </subject>
            <effectiveDateTime value="2025-03-05T18:07:38Z"/>
            <performer>
               <display value="The Central European Lab"/>
            </performer>
            <valueQuantity>
               <value value="7.8"/>
               <unit value="mg/dL"/>
               <system value="http://unitsofmeasure.org"/>
               <code value="mg/dL"/>
            </valueQuantity>
            <referenceRange>
               <low>
                  <value value="7"/>
                  <system value="http://unitsofmeasure.org"/>
                  <code value="mg/dL"/>
               </low>
            </referenceRange>
            <referenceRange>
               <high>
                  <value value="50"/>
                  <system value="http://unitsofmeasure.org"/>
                  <code value="mg/dL"/>
               </high>
            </referenceRange>
         </Observation>
      </resource>
   </entry>
   <entry>
      <fullUrl value="urn:uuid:ff290f4a-7eba-48de-9114-16966326d766"/>
      <resource>
         <Observation>
            <id value="ff290f4a-7eba-48de-9114-16966326d766"/>
            <meta>
               <profile value="http://hl7.eu/fhir/laboratory/StructureDefinition/Observation-resultslab-eu-lab"/>
            </meta>
            <text>
               <status value="generated"/>
               <div xmlns="http://www.w3.org/1999/xhtml">
                  <table class="hl7__eu__lab__report">
                     <tr>
                        <th>Test</th>
                        <th>05-Mar-2025</th>
                        <th>Reference Range</th>
                        <th>Unit</th>
                     </tr>
                     <tr>
                        <td>Creatinine [Mass/volume] in Blood</td>
                        <td>0.6</td>
                        <td>0.5 - 1.3</td>
                        <td/>
                        <td>mg/dL</td>
                     </tr>
                  </table>
               </div>
            </text>
            <status value="final"/>
            <category>
               <coding>
                  <system value="http://terminology.hl7.org/CodeSystem/observation-category"/>
                  <code value="laboratory"/>
               </coding>
            </category>
            <code>
               <coding>
                  <system value="http://loinc.org"/>
                  <code value="38483-4"/>
                  <display value="Creatinine [Mass/volume] in Blood"/>
               </coding>
               <text value="Creatinine [Mass/volume] in Blood"/>
            </code>
            <subject>
               <reference value="urn:uuid:bcef1bb7-bb27-45c9-82a0-86d5a256e93d"/>
               <display value="Jele Jurković"/>
            </subject>
            <effectiveDateTime value="2025-03-05T18:07:38Z"/>
            <performer>
               <display value="The Central European Lab"/>
            </performer>
            <valueQuantity>
               <value value="0.6"/>
               <unit value="mg/dL"/>
               <system value="http://unitsofmeasure.org"/>
               <code value="mg/dL"/>
            </valueQuantity>
            <referenceRange>
               <low>
                  <value value="0.5"/>
                  <system value="http://unitsofmeasure.org"/>
                  <code value="mg/dL"/>
               </low>
            </referenceRange>
            <referenceRange>
               <high>
                  <value value="1.3"/>
                  <system value="http://unitsofmeasure.org"/>
                  <code value="mg/dL"/>
               </high>
            </referenceRange>
         </Observation>
      </resource>
   </entry>
   <entry>
      <fullUrl value="urn:uuid:bc567b87-c950-4055-bbae-b34ea17772ff"/>
      <resource>
         <Observation>
            <id value="bc567b87-c950-4055-bbae-b34ea17772ff"/>
            <meta>
               <profile value="http://hl7.eu/fhir/laboratory/StructureDefinition/Observation-resultslab-eu-lab"/>
            </meta>
            <text>
               <status value="generated"/>
               <div xmlns="http://www.w3.org/1999/xhtml">
                  <table class="hl7__eu__lab__report">
                     <tr>
                        <th>Test</th>
                        <th>05-Mar-2025</th>
                        <th>Reference Range</th>
                        <th>Unit</th>
                     </tr>
                     <tr>
                        <td>Calcium [Mass/volume] in Blood</td>
                        <td>10.0</td>
                        <td>8.5 - 10.4</td>
                        <td/>
                        <td>mg/dL</td>
                     </tr>
                  </table>
               </div>
            </text>
            <status value="final"/>
            <category>
               <coding>
                  <system value="http://terminology.hl7.org/CodeSystem/observation-category"/>
                  <code value="laboratory"/>
               </coding>
            </category>
            <code>
               <coding>
                  <system value="http://loinc.org"/>
                  <code value="49765-1"/>
                  <display value="Calcium [Mass/volume] in Blood"/>
               </coding>
               <text value="Calcium [Mass/volume] in Blood"/>
            </code>
            <subject>
               <reference value="urn:uuid:bcef1bb7-bb27-45c9-82a0-86d5a256e93d"/>
               <display value="Jele Jurković"/>
            </subject>
            <effectiveDateTime value="2025-03-05T18:07:38Z"/>
            <performer>
               <display value="The Central European Lab"/>
            </performer>
            <valueQuantity>
               <value value="10"/>
               <unit value="mg/dL"/>
               <system value="http://unitsofmeasure.org"/>
               <code value="mg/dL"/>
            </valueQuantity>
            <referenceRange>
               <low>
                  <value value="8.5"/>
                  <system value="http://unitsofmeasure.org"/>
                  <code value="mg/dL"/>
               </low>
            </referenceRange>
            <referenceRange>
               <high>
                  <value value="10.4"/>
                  <system value="http://unitsofmeasure.org"/>
                  <code value="mg/dL"/>
               </high>
            </referenceRange>
         </Observation>
      </resource>
   </entry>
   <entry>
      <fullUrl value="urn:uuid:26cf85a2-d16b-412c-9f06-9d48142b3ec1"/>
      <resource>
         <Observation>
            <id value="26cf85a2-d16b-412c-9f06-9d48142b3ec1"/>
            <meta>
               <profile value="http://hl7.eu/fhir/laboratory/StructureDefinition/Observation-resultslab-eu-lab"/>
            </meta>
            <text>
               <status value="generated"/>
               <div xmlns="http://www.w3.org/1999/xhtml">
                  <table class="hl7__eu__lab__report">
                     <tr>
                        <th>Test</th>
                        <th>05-Mar-2025</th>
                        <th>Reference Range</th>
                        <th>Unit</th>
                     </tr>
                     <tr>
                        <td>Sodium [Moles/volume] in Blood</td>
                        <td>142.1</td>
                        <td>135 - 145</td>
                        <td/>
                        <td>mmol/L</td>
                     </tr>
                  </table>
               </div>
            </text>
            <status value="final"/>
            <category>
               <coding>
                  <system value="http://terminology.hl7.org/CodeSystem/observation-category"/>
                  <code value="laboratory"/>
               </coding>
            </category>
            <code>
               <coding>
                  <system value="http://loinc.org"/>
                  <code value="2947-0"/>
                  <display value="Sodium [Moles/volume] in Blood"/>
               </coding>
               <text value="Sodium [Moles/volume] in Blood"/>
            </code>
            <subject>
               <reference value="urn:uuid:bcef1bb7-bb27-45c9-82a0-86d5a256e93d"/>
               <display value="Jele Jurković"/>
            </subject>
            <effectiveDateTime value="2025-03-05T18:07:38Z"/>
            <performer>
               <display value="The Central European Lab"/>
            </performer>
            <valueQuantity>
               <value value="142.1"/>
               <unit value="mmol/L"/>
               <system value="http://unitsofmeasure.org"/>
               <code value="mmol/L"/>
            </valueQuantity>
            <referenceRange>
               <low>
                  <value value="135"/>
                  <system value="http://unitsofmeasure.org"/>
                  <code value="mmol/L"/>
               </low>
            </referenceRange>
            <referenceRange>
               <high>
                  <value value="145"/>
                  <system value="http://unitsofmeasure.org"/>
                  <code value="mmol/L"/>
               </high>
            </referenceRange>
         </Observation>
      </resource>
   </entry>
   <entry>
      <fullUrl value="urn:uuid:9d149d55-303e-43a9-ac54-5f1331132c14"/>
      <resource>
         <Observation>
            <id value="9d149d55-303e-43a9-ac54-5f1331132c14"/>
            <meta>
               <profile value="http://hl7.eu/fhir/laboratory/StructureDefinition/Observation-resultslab-eu-lab"/>
            </meta>
            <text>
               <status value="generated"/>
               <div xmlns="http://www.w3.org/1999/xhtml">
                  <table class="hl7__eu__lab__report">
                     <tr>
                        <th>Test</th>
                        <th>05-Mar-2025</th>
                        <th>Reference Range</th>
                        <th>Unit</th>
                     </tr>
                     <tr>
                        <td>Potassium [Moles/volume] in Blood</td>
                        <td>4.8</td>
                        <td>3.5 - 5.3</td>
                        <td/>
                        <td>mmol/L</td>
                     </tr>
                  </table>
               </div>
            </text>
            <status value="final"/>
            <category>
               <coding>
                  <system value="http://terminology.hl7.org/CodeSystem/observation-category"/>
                  <code value="laboratory"/>
               </coding>
            </category>
            <code>
               <coding>
                  <system value="http://loinc.org"/>
                  <code value="6298-4"/>
                  <display value="Potassium [Moles/volume] in Blood"/>
               </coding>
               <text value="Potassium [Moles/volume] in Blood"/>
            </code>
            <subject>
               <reference value="urn:uuid:bcef1bb7-bb27-45c9-82a0-86d5a256e93d"/>
               <display value="Jele Jurković"/>
            </subject>
            <effectiveDateTime value="2025-03-05T18:07:38Z"/>
            <performer>
               <display value="The Central European Lab"/>
            </performer>
            <valueQuantity>
               <value value="4.8"/>
               <unit value="mmol/L"/>
               <system value="http://unitsofmeasure.org"/>
               <code value="mmol/L"/>
            </valueQuantity>
            <referenceRange>
               <low>
                  <value value="3.5"/>
                  <system value="http://unitsofmeasure.org"/>
                  <code value="mmol/L"/>
               </low>
            </referenceRange>
            <referenceRange>
               <high>
                  <value value="5.3"/>
                  <system value="http://unitsofmeasure.org"/>
                  <code value="mmol/L"/>
               </high>
            </referenceRange>
         </Observation>
      </resource>
   </entry>
   <entry>
      <fullUrl value="urn:uuid:cc7265e4-907c-49c5-beae-ecb660b0c3a8"/>
      <resource>
         <Observation>
            <id value="cc7265e4-907c-49c5-beae-ecb660b0c3a8"/>
            <meta>
               <profile value="http://hl7.eu/fhir/laboratory/StructureDefinition/Observation-resultslab-eu-lab"/>
            </meta>
            <text>
               <status value="generated"/>
               <div xmlns="http://www.w3.org/1999/xhtml">
                  <table class="hl7__eu__lab__report">
                     <tr>
                        <th>Test</th>
                        <th>05-Mar-2025</th>
                        <th>Reference Range</th>
                        <th>Unit</th>
                     </tr>
                     <tr>
                        <td>Chloride [Moles/volume] in Blood</td>
                        <td>103.4</td>
                        <td>98 - 110</td>
                        <td/>
                        <td>mmol/L</td>
                     </tr>
                  </table>
               </div>
            </text>
            <status value="final"/>
            <category>
               <coding>
                  <system value="http://terminology.hl7.org/CodeSystem/observation-category"/>
                  <code value="laboratory"/>
               </coding>
            </category>
            <code>
               <coding>
                  <system value="http://loinc.org"/>
                  <code value="2069-3"/>
                  <display value="Chloride [Moles/volume] in Blood"/>
               </coding>
               <text value="Chloride [Moles/volume] in Blood"/>
            </code>
            <subject>
               <reference value="urn:uuid:bcef1bb7-bb27-45c9-82a0-86d5a256e93d"/>
               <display value="Jele Jurković"/>
            </subject>
            <effectiveDateTime value="2025-03-05T18:07:38Z"/>
            <performer>
               <display value="The Central European Lab"/>
            </performer>
            <valueQuantity>
               <value value="103.4"/>
               <unit value="mmol/L"/>
               <system value="http://unitsofmeasure.org"/>
               <code value="mmol/L"/>
            </valueQuantity>
            <referenceRange>
               <low>
                  <value value="98"/>
                  <system value="http://unitsofmeasure.org"/>
                  <code value="mmol/L"/>
               </low>
            </referenceRange>
            <referenceRange>
               <high>
                  <value value="110"/>
                  <system value="http://unitsofmeasure.org"/>
                  <code value="mmol/L"/>
               </high>
            </referenceRange>
         </Observation>
      </resource>
   </entry>
   <entry>
      <fullUrl value="urn:uuid:020400f9-01e0-41d8-8d61-81d671aac6a6"/>
      <resource>
         <Observation>
            <id value="020400f9-01e0-41d8-8d61-81d671aac6a6"/>
            <meta>
               <profile value="http://hl7.eu/fhir/laboratory/StructureDefinition/Observation-resultslab-eu-lab"/>
            </meta>
            <text>
               <status value="generated"/>
               <div xmlns="http://www.w3.org/1999/xhtml">
                  <table class="hl7__eu__lab__report">
                     <tr>
                        <th>Test</th>
                        <th>05-Mar-2025</th>
                        <th>Reference Range</th>
                        <th>Unit</th>
                     </tr>
                     <tr>
                        <td>Carbon dioxide, total [Moles/volume] in Blood</td>
                        <td>24.6</td>
                        <td>22 - 32</td>
                        <td/>
                        <td>mmol/L</td>
                     </tr>
                  </table>
               </div>
            </text>
            <status value="final"/>
            <category>
               <coding>
                  <system value="http://terminology.hl7.org/CodeSystem/observation-category"/>
                  <code value="laboratory"/>
               </coding>
            </category>
            <code>
               <coding>
                  <system value="http://loinc.org"/>
                  <code value="20565-8"/>
                  <display value="Carbon dioxide, total [Moles/volume] in Blood"/>
               </coding>
               <text value="Carbon dioxide, total [Moles/volume] in Blood"/>
            </code>
            <subject>
               <reference value="urn:uuid:bcef1bb7-bb27-45c9-82a0-86d5a256e93d"/>
               <display value="Jele Jurković"/>
            </subject>
            <effectiveDateTime value="2025-03-05T18:07:38Z"/>
            <performer>
               <display value="The Central European Lab"/>
            </performer>
            <valueQuantity>
               <value value="24.6"/>
               <unit value="mmol/L"/>
               <system value="http://unitsofmeasure.org"/>
               <code value="mmol/L"/>
            </valueQuantity>
            <referenceRange>
               <low>
                  <value value="22"/>
                  <system value="http://unitsofmeasure.org"/>
                  <code value="mmol/L"/>
               </low>
            </referenceRange>
            <referenceRange>
               <high>
                  <value value="32"/>
                  <system value="http://unitsofmeasure.org"/>
                  <code value="mmol/L"/>
               </high>
            </referenceRange>
         </Observation>
      </resource>
   </entry>
   <entry>
      <fullUrl value="urn:uuid:a5107fde-2a28-4949-8fd4-c556d0529b97"/>
      <resource>
         <DeviceUseStatement>
            <id value="a5107fde-2a28-4949-8fd4-c556d0529b97"/>
            <meta>
               <profile value="http://hl7.eu/fhir/eps/StructureDefinition/deviceUseStatement-eu-eps"/>
            </meta>
            <text>
               <status value="generated"/>
               <div xmlns="http://www.w3.org/1999/xhtml">
                  <table class="hl7__ips">
                     <tr>
                        <td>Blood glucose meter (physical object)</td>
                        <td>
                           <span class="nb">05-Dec-1973</span>
                        </td>
                     </tr>
                  </table>
               </div>
            </text>
            <status value="active"/>
            <subject>
               <reference value="urn:uuid:bcef1bb7-bb27-45c9-82a0-86d5a256e93d"/>
               <display value="Jele Jurković"/>
            </subject>
            <timingPeriod>
               <start value="1973-12-05"/>
            </timingPeriod>
            <device>
               <reference value="urn:uuid:310723d5-9b03-4f34-8df2-b9839f5fd0da"/>
               <display value="Blood glucose meter (physical object)"/>
            </device>
         </DeviceUseStatement>
      </resource>
   </entry>
   <entry>
      <fullUrl value="urn:uuid:310723d5-9b03-4f34-8df2-b9839f5fd0da"/>
      <resource>
         <Device>
            <id value="310723d5-9b03-4f34-8df2-b9839f5fd0da"/>
            <meta>
               <profile value="http://hl7.eu/fhir/eps/StructureDefinition/device-eu-eps"/>
            </meta>
            <udiCarrier id="(01)69889514035536(11)731114(17)981129(10)3084052321650802(21)2971644095"/>
            <status value="active"/>
            <type>
               <coding>
                  <system value="http://snomed.info/sct"/>
                  <code value="337414009"/>
                  <display value="Blood glucose meter (physical object)"/>
               </coding>
            </type>
            <patient>
               <reference value="urn:uuid:bcef1bb7-bb27-45c9-82a0-86d5a256e93d"/>
               <display value="Jele Jurković"/>
            </patient>
         </Device>
      </resource>
   </entry>
   <entry>
      <fullUrl value="urn:uuid:d8a08023-dfb4-44ae-8859-496f09234b54"/>
      <resource>
         <Device>
            <id value="d8a08023-dfb4-44ae-8859-496f09234b54"/>
            <text>
               <status value="generated"/>
               <div xmlns="http://www.w3.org/1999/xhtml">SYNDERAI Synthetic Generator v5.0</div>
            </text>
            <status value="active&#34;"/>
            <distinctIdentifier value="synderai-generator-50"/>
            <manufacturer value="SYNDERAI Project"/>
            <deviceName>
               <name value="SYNDERAI Synthetic Generator"/>
               <type value="manufacturer-name"/>
            </deviceName>
            <version>
               <value value="5.0"/>
            </version>
         </Device>
      </resource>
   </entry>
   <entry>
      <fullUrl value="urn:uuid:3b107459-99dd-42db-8d3c-35af8d5b836c"/>
      <resource>
         <Provenance>
            <id value="3b107459-99dd-42db-8d3c-35af8d5b836c"/>
            <text>
               <status value="generated"/>
               <div xmlns="http://www.w3.org/1999/xhtml">Provenance for SYNDERAI Synthetic Example Data Resource</div>
            </text>
            <target>
               <reference value="Patient/bcef1bb7-bb27-45c9-82a0-86d5a256e93d"/>
            </target>
            <target>
               <reference value="Bundle/3f901372-6cdb-4033-918a-7e45c704d619"/>
            </target>
            <target>
               <reference value="Composition/f8bd5811-768b-4c7d-83e3-86d192996fed"/>
            </target>
            <target>
               <reference value="PractitionerRole/d3f90690-5754-487c-ad53-f0c6cff9eeeb"/>
            </target>
            <target>
               <reference value="Organization/a2f91b0f-3092-4048-9498-4e73153252b7"/>
            </target>
            <target>
               <reference value="Practitioner/7995c38b-dc81-4919-9125-fe6138ec5126"/>
            </target>
            <recorded value="2025-03-05T18:07:38Z"/>
            <policy value="https://synderai.net/synderai-synthetic-data-policy"/>
            <reason>
               <text value="Interoperability Testing and Training (non-clinical use)"/>
            </reason>
            <activity>
               <text value="Synthetic Example Data Generation"/>
            </activity>
            <agent>
               <type>
                  <text value="author"/>
               </type>
               <who>
                  <reference value="Device/d8a08023-dfb4-44ae-8859-496f09234b54"/>
               </who>
            </agent>
         </Provenance>
      </resource>
   </entry>
</Bundle>