{
  "resourceType": "Bundle",
  "id": "c4a9b3de-f8a9-4725-a576-eda6e37820c7",
  "meta": {
    "profile": [
      "http://hl7.eu/fhir/eps/StructureDefinition/bundle-eu-eps"
    ]
  },
  "identifier": {
    "assigner": {
      "display": "HL7 Europe"
    },
    "system": "urn:oid:2.16.840.1.113883.2.51.999",
    "value": "dcd6069f-5234-4e70-b818-11022e288491"
  },
  "entry": [
    {
      "fullUrl": "urn:uuid:df578f42-3e2c-49b4-9e65-80caa1300b0d",
      "resource": {
        "resourceType": "Composition",
        "id": "df578f42-3e2c-49b4-9e65-80caa1300b0d",
        "meta": {
          "security": [
            {
              "system": "http://terminology.hl7.org/CodeSystem/v3-ActReason",
              "code": "HTEST"
            },
            {
              "system": "http://terminology.hl7.org/CodeSystem/v3-ActReason",
              "code": "TRAIN"
            }
          ],
          "tag": [
            {
              "system": "https://synderai.net/fhir/CodeSystem/tags",
              "code": "synthetic",
              "display": "SYNDERAI Synthetic data"
            }
          ],
          "profile": [
            "http://hl7.eu/fhir/eps/StructureDefinition/composition-eu-eps"
          ]
        },
        "identifier": {
          "assigner": {
            "display": "HL7 Europe"
          },
          "system": "urn:oid:2.16.840.1.113883.2.51.999",
          "value": "c87fbf4c-4fd7-4346-8612-e1a7032f9643"
        },
        "type": {
          "coding": [
            {
              "system": "http://loinc.org",
              "code": "60591-5",
              "display": "Patient summary Document"
            }
          ],
          "text": "Patient summary Document"
        },
        "author": [
          {
            "reference": "urn:uuid:fa0b9c5e-2339-4d29-8512-60a4f11d5cc0"
          }
        ],
        "section": [
          {
            "text": {
              "status": "generated",
              "div": "<div xmlns=\"http://www.w3.org/1999/xhtml\"><table class=\"hl7__ips\"><tr><th>Condition</th><th>Onset Date</th><th>Status</th></tr><tr><td>Hyperlipidemia</td><td><span class=\"nb\">22-Mar-2022</span></td><td>active</td></tr><tr><td>Acute non-ST segment elevation myocardial infarction</td><td><span class=\"nb\">15-Sep-2000</span></td><td>active</td></tr><tr><td>Dependent drug abuse</td><td><span class=\"nb\">27-Oct-1991</span></td><td>active</td></tr><tr><td>Chronic intractable migraine without aura</td><td><span class=\"nb\">28-Apr-1990</span></td><td>active</td></tr><tr><td>Ischemic heart disease</td><td><span class=\"nb\">06-Sep-1988</span></td><td>active</td></tr><tr><td>Neuropathy due to type 2 diabetes mellitus</td><td><span class=\"nb\">09-Aug-1983</span></td><td>active</td></tr><tr><td>Hyperglycemia</td><td><span class=\"nb\">25-Nov-1975</span></td><td>active</td></tr><tr><td>Metabolic syndrome X</td><td><span class=\"nb\">24-Jun-1975</span></td><td>active</td></tr><tr><td>Hypertriglyceridemia</td><td><span class=\"nb\">18-Jun-1974</span></td><td>active</td></tr><tr><td>Type 2 diabetes mellitus</td><td><span class=\"nb\">12-Jun-1973</span></td><td>active</td></tr><tr><td>Essential hypertension</td><td><span class=\"nb\">12-Jun-1973</span></td><td>active</td></tr><tr><td>Anemia</td><td><span class=\"nb\">12-Jun-1973</span></td><td>active</td></tr><tr><td>Chronic sinusitis</td><td><span class=\"nb\">08-Feb-1965</span></td><td>active</td></tr></table></div>"
            },
            "entry": [
              {
                "reference": "urn:uuid:e56553a4-4360-4aed-a808-fbb493ca1ecc"
              },
              {
                "reference": "urn:uuid:64773fd8-66e8-45d2-ab3f-e5f1f153d4d9"
              },
              {
                "reference": "urn:uuid:bb01a866-10ed-45f5-b93d-acadf33e2e01"
              },
              {
                "reference": "urn:uuid:6948183e-f943-4650-aefb-7ad961267028"
              },
              {
                "reference": "urn:uuid:4327af84-ecfb-4655-a51f-1397964e4109"
              },
              {
                "reference": "urn:uuid:41ac2aaa-d2c7-4d32-b22a-8d9ebee5923f"
              },
              {
                "reference": "urn:uuid:4fc5adba-84cd-4f18-a2eb-66b198d49982"
              },
              {
                "reference": "urn:uuid:4243acde-1cee-424f-9b61-25f639416c10"
              },
              {
                "reference": "urn:uuid:7dd3dc6c-1fd7-414e-a2a2-6f57ede11afe"
              },
              {
                "reference": "urn:uuid:fe487142-7ffc-459d-8203-77c625575b5b"
              },
              {
                "reference": "urn:uuid:1ae12259-9153-407d-b88a-66094f5cacdd"
              },
              {
                "reference": "urn:uuid:b536970a-1602-4530-8076-775bc3bb1144"
              },
              {
                "reference": "urn:uuid:8f058de7-bfe2-4e86-a9c7-4986d29f0642"
              }
            ],
            "code": {
              "coding": [
                {
                  "system": "http://loinc.org",
                  "code": "11450-4",
                  "display": "Problem list - Reported"
                }
              ]
            },
            "title": "Problem list"
          },
          {
            "text": {
              "status": "generated",
              "div": "<div xmlns=\"http://www.w3.org/1999/xhtml\"><table class=\"hl7__ips\"><tr><th>Medication</th><th>Since</th><th>Form</th><th>Dosage</th><th>Reason</th></tr><tr><td>Simvastatin 10 mg oral tablet</td><td><span class=\"nb\">2025-04-11</span></td><td>-</td><td>1 tablet (10 mg) by mouth once daily</td><td>Hyperlipidemia</td></tr><tr><td>Hydrochlorothiazide 25 mg oral tablet</td><td><span class=\"nb\">2025-04-08</span></td><td>-</td><td>1 tablet (25 mg) by mouth once daily</td><td>Essential hypertension (disorder)</td></tr><tr><td>Lisinopril 10 mg oral tablet</td><td><span class=\"nb\">2025-04-08</span></td><td>-</td><td>1 tablet (10 mg) by mouth once daily</td><td>Essential hypertension (disorder)</td></tr><tr><td>Metformin hydrochloride 500 mg prolonged-release oral tablet</td><td><span class=\"nb\">2025-04-08</span></td><td>-</td><td>1 tablet (500 mg) once daily</td><td>Diabetes mellitus type 2 (disorder)</td></tr><tr><td>Nitroglycerin 400 microgram/actuation sublingual spray</td><td><span class=\"nb\">1988-09-13</span></td><td>-</td><td>400 micrograms (1 spray) sublingually as needed for chest pain, may repeat every 5 minutes as needed, up to 3 sprays in 15 minutes</td><td>-</td></tr><tr><td>Metoprolol tartrate (as metoprolol succinate) 100 mg prolonged-release oral tablet</td><td><span class=\"nb\">1988-09-13</span></td><td>-</td><td>1 tablet (100 mg) once daily</td><td>-</td></tr><tr><td>Vitamin B12 5 MG/ML Injectable Solution</td><td><span class=\"nb\">1973-06-19</span></td><td>-</td><td>1 mL (5 mg) intramuscularly once monthly</td><td>-</td></tr></table></div>"
            },
            "entry": [
              {
                "reference": "urn:uuid:b52296a6-0584-48f3-9b48-574f6c65bb9e"
              },
              {
                "reference": "urn:uuid:a96764a2-fa18-4cb0-bd79-2bbdb42caf3b"
              },
              {
                "reference": "urn:uuid:cc5b2fe9-db8a-4cab-955f-220e2b651940"
              },
              {
                "reference": "urn:uuid:ec3242bd-c52d-4848-9cc9-dce87f781c6d"
              },
              {
                "reference": "urn:uuid:2ba372f4-1516-4ce4-a49d-034f3657dc94"
              },
              {
                "reference": "urn:uuid:dac9fa6f-b5e0-4798-9b9d-63d05ddcc43e"
              },
              {
                "reference": "urn:uuid:edd65ed6-4a72-4651-97e6-0c723b58c422"
              }
            ],
            "code": {
              "coding": [
                {
                  "system": "http://loinc.org",
                  "code": "10160-0",
                  "display": "History of Medication use Narrative"
                }
              ]
            },
            "title": "Medication list"
          },
          {
            "text": {
              "status": "generated",
              "div": "<div xmlns=\"http://www.w3.org/1999/xhtml\"><table class=\"hl7__ips\"><tr><th>Vaccine</th><th>Date</th></tr><tr><td>Influenza virus antigen only vaccine product</td><td><span class=\"nb\">08-Apr-2025</span></td></tr><tr><td>Clostridium tetani toxoid antigen adsorbed only vaccine product</td><td><span class=\"nb\">28-Mar-2023</span></td></tr><tr><td>SARS-CoV-2 mRNA vaccine</td><td><span class=\"nb\">05-Oct-2021</span></td></tr></table></div>"
            },
            "entry": [
              {
                "reference": "urn:uuid:dc754a7b-b67e-495a-a26d-1ae530c49dfb"
              },
              {
                "reference": "urn:uuid:64710a98-2a3c-4005-9491-70067af39391"
              },
              {
                "reference": "urn:uuid:c204de17-545f-4f06-8b3b-74f0ba6e14a9"
              }
            ],
            "code": {
              "coding": [
                {
                  "system": "http://loinc.org",
                  "code": "11369-6",
                  "display": "History of Immunization note"
                }
              ]
            },
            "title": "Immunizations list"
          },
          {
            "text": {
              "status": "generated",
              "div": "<div xmlns=\"http://www.w3.org/1999/xhtml\"><table class=\"hl7__ips\"><tr><th>Procedure</th><th>Date</th><th>Reason</th></tr><tr><td>Depression screening</td><td><span class=\"nb\">22-Sep-2020</span></td><td>-</td></tr><tr><td>Medication reconciliation</td><td><span class=\"nb\">22-Sep-2020</span></td><td>-</td></tr><tr><td>Assessment of health and social care needs</td><td><span class=\"nb\">22-Sep-2020</span></td><td>-</td></tr><tr><td>Depression screening using Patient Health Questionnaire Two-Item score (procedure)</td><td><span class=\"nb\">22-Sep-2020</span></td><td>-</td></tr><tr><td>Assessment using Morse Fall Scale</td><td><span class=\"nb\">18-Aug-2020</span></td><td>-</td></tr><tr><td>Radiography of wrist</td><td><span class=\"nb\">03-Oct-2019</span></td><td>-</td></tr><tr><td>Bone immobilization</td><td><span class=\"nb\">03-Oct-2019</span></td><td>Fracture subluxation of wrist</td></tr><tr><td>Bone density scan</td><td><span class=\"nb\">03-Oct-2019</span></td><td>Fracture subluxation of wrist</td></tr><tr><td>Pre-discharge assessment</td><td><span class=\"nb\">04-May-2017</span></td><td>-</td></tr><tr><td>Discharge from skilled nursing facility (procedure)</td><td><span class=\"nb\">04-May-2017</span></td><td>-</td></tr><tr><td>Nursing care/supplementary surveillance</td><td><span class=\"nb\">03-May-2017</span></td><td>-</td></tr><tr><td>Physical therapy procedure</td><td><span class=\"nb\">01-May-2017</span></td><td>-</td></tr><tr><td>Speech and language therapy regime</td><td><span class=\"nb\">28-Apr-2017</span></td><td>-</td></tr><tr><td>Professional / ancillary services care</td><td><span class=\"nb\">28-Apr-2017</span></td><td>-</td></tr><tr><td>Occupational therapy</td><td><span class=\"nb\">16-Apr-2017</span></td><td>-</td></tr><tr><td>History AND physical examination</td><td><span class=\"nb\">28-Mar-2017</span></td><td>-</td></tr><tr><td>Initial patient assessment</td><td><span class=\"nb\">28-Mar-2017</span></td><td>-</td></tr><tr><td>Development of individualized plan of care</td><td><span class=\"nb\">28-Mar-2017</span></td><td>-</td></tr><tr><td>Screening for domestic abuse</td><td><span class=\"nb\">07-Jun-2016</span></td><td>-</td></tr></table></div>"
            },
            "entry": [
              {
                "reference": "urn:uuid:9a2c7f6d-7c24-4c1f-9476-093614e62c7a"
              },
              {
                "reference": "urn:uuid:df2b39f1-196c-4f27-9923-688758cad507"
              },
              {
                "reference": "urn:uuid:c18b8ce7-1e3b-4180-8708-17c871a62194"
              },
              {
                "reference": "urn:uuid:81628388-97e7-430f-82dd-9de048f97243"
              },
              {
                "reference": "urn:uuid:a42cd0b9-a117-449e-8fe0-d6e3707fb069"
              },
              {
                "reference": "urn:uuid:c85f677b-5979-421d-9d7c-5f4465c54e00"
              },
              {
                "reference": "urn:uuid:c69bb76e-f94d-4055-8043-b789e8b53281"
              },
              {
                "reference": "urn:uuid:fa267e55-c36a-490d-b6e5-ad3807801267"
              },
              {
                "reference": "urn:uuid:81058f98-1062-4859-b80a-cfba50f56baf"
              },
              {
                "reference": "urn:uuid:121f776c-5a03-4223-a827-a2c7c4569307"
              },
              {
                "reference": "urn:uuid:b76c5018-0635-4440-aebd-aa0b68a3fec0"
              },
              {
                "reference": "urn:uuid:fafdc028-fea7-449f-bf2c-f51b19f06ee1"
              },
              {
                "reference": "urn:uuid:4ae635d7-56ab-4afc-8bd4-9cbc3eed7e60"
              },
              {
                "reference": "urn:uuid:69a4fcc3-ecbe-4227-853c-b80b2bf03dc9"
              },
              {
                "reference": "urn:uuid:b0263220-ada4-43ca-94d5-623e2770d8da"
              },
              {
                "reference": "urn:uuid:0356d505-f13c-416c-9e91-0175cb331eb6"
              },
              {
                "reference": "urn:uuid:893eee77-9c42-4e5d-953e-5963405d081b"
              },
              {
                "reference": "urn:uuid:f224c732-2962-4a68-8abd-31874537587f"
              },
              {
                "reference": "urn:uuid:72609e80-751e-4f00-b672-f8eda2877908"
              }
            ],
            "code": {
              "coding": [
                {
                  "system": "http://loinc.org",
                  "code": "47519-4",
                  "display": "History of Procedures Document"
                }
              ]
            },
            "title": "Procedure History list"
          },
          {
            "text": {
              "status": "generated",
              "div": "<div xmlns=\"http://www.w3.org/1999/xhtml\"><table class=\"hl7__ips\"><tr><th>Allergy/Intolerance</th><th>Onset Date</th><th>Status</th><th>Type</th><th>Reaction</th></tr><tr><td></td><td>?</td><td>active</td><td>?</td><td></td></tr></table></div>"
            },
            "entry": [
              {
                "reference": "urn:uuid:f52ed969-3688-4795-9d66-5cf0097fb706"
              }
            ],
            "code": {
              "coding": [
                {
                  "system": "http://loinc.org",
                  "code": "48765-2",
                  "display": "Allergies and adverse reactions Document"
                }
              ]
            },
            "title": "Allergies and Intolerances"
          },
          {
            "text": {
              "status": "generated",
              "div": "<div xmlns=\"http://www.w3.org/1999/xhtml\"><table class=\"hl7__ips\"><tr><th>Active Planned Care / Goals</th><th>Start Date</th><th>Reason</th></tr><tr><td>Hyperlipidemia clinical management plan</td><td><span class=\"nb\">12-Apr-2022</span></td><td>Hyperlipidemia</td></tr><tr><td><ul><li>Achieve and maintain LDL cholesterol below 1.8 mmol/L to reduce cardiovascular risk.</li><li>Achieve and maintain total cholesterol below 4.0 mmol/L.</li><li>Achieve and maintain fasting triglycerides below 1.7 mmol/L.</li><li>Maintain HDL cholesterol above 1.0 mmol/L.</li></ul></td><td></td><td></td></tr><tr><td>Care plan</td><td><span class=\"nb\">14-Nov-1992</span></td><td>-</td></tr><tr><td>Lifestyle education regarding hypertension</td><td><span class=\"nb\">12-Jun-1973</span></td><td>Essential hypertension (disorder)</td></tr><tr><td><ul><li>Patient will receive education on lifestyle modifications to help control blood pressure, including diet, exercise, and medication adherence.</li><li>Maintain blood pressure below 130/80 mmHg</li></ul></td><td></td><td></td></tr><tr><td>Diabetes self management plan</td><td><span class=\"nb\">12-Jun-1973</span></td><td>Diabetes mellitus type 2 (disorder)</td></tr><tr><td><ul><li>Patient will demonstrate understanding of diabetes self-management principles including medication adherence, blood glucose monitoring, diet, and physical activity.</li><li>Achieve and maintain target hemoglobin A1c level as recommended for older adults with comorbidities.</li><li>Maintain fasting blood glucose within individualized target range.</li><li>Maintain blood pressure within individualized target range to reduce cardiovascular risk.</li><li>Achieve and maintain LDL cholesterol at target level to reduce cardiovascular risk.</li></ul></td><td></td><td></td></tr><tr><th>Immunization Recommendation</th><th>Due Date</th><th>Reason</th></tr><tr><td>Vaccine product containing only Influenza virus antigen (medicinal product)</td><td><span class=\"nb\">01-Oct-2025</span></td><td>Annual seasonal influenza vaccination</td></tr></table></div>"
            },
            "entry": [
              {
                "reference": "urn:uuid:16c4e009-b8b5-476d-ba42-cabd9cd8de39"
              },
              {
                "reference": "urn:uuid:67371e33-098c-4f03-9d79-5709d13f0bc8"
              },
              {
                "reference": "urn:uuid:247e2cbe-25fa-4926-a053-da6612d3b5fe"
              },
              {
                "reference": "urn:uuid:53021f1b-6a4a-452d-aea9-f49bc7e3de54"
              },
              {
                "reference": "urn:uuid:4fe385b4-7652-46dc-a7d2-20c41263733d"
              }
            ],
            "code": {
              "coding": [
                {
                  "system": "http://loinc.org",
                  "code": "18776-5",
                  "display": "Plan of care note"
                }
              ]
            },
            "title": "Care Plan"
          },
          {
            "text": {
              "status": "generated",
              "div": "<div xmlns=\"http://www.w3.org/1999/xhtml\"><table class=\"hl7__ips\"><tr><th>Vital Signs</th><th>2025-04-08</th><th>2024-04-02</th></tr><tr><td>Body Height</td><td>164.3 cm</td><td>164.3 cm</td></tr><tr><td>Pain severity - 0-10 verbal numeric rating [Score] - Reported</td><td>1 {score}</td><td>2 {score}</td></tr><tr><td>Body Weight</td><td>74.8 kg</td><td>74.8 kg</td></tr><tr><td>Body mass index (BMI) [Ratio]</td><td>27.7 kg/m2</td><td>27.7 kg/m2</td></tr><tr><td>Diastolic Blood Pressure</td><td>83 mm[Hg]</td><td>82 mm[Hg]</td></tr><tr><td>Systolic Blood Pressure</td><td>109 mm[Hg]</td><td>113 mm[Hg]</td></tr><tr><td>Heart rate</td><td>88 /min</td><td>71 /min</td></tr><tr><td>Respiratory rate</td><td>12 /min</td><td>14 /min</td></tr></table></div>"
            },
            "entry": [
              {
                "reference": "urn:uuid:12dc8bf7-e942-4d99-aece-ad1af124afd0"
              },
              {
                "reference": "urn:uuid:0eee0596-876e-4de5-a633-e03e2821c10f"
              },
              {
                "reference": "urn:uuid:cadb951a-bcbc-46a7-8512-6b0caadc17a6"
              },
              {
                "reference": "urn:uuid:350897a3-11c4-402e-be73-5c7f220d8cb6"
              },
              {
                "reference": "urn:uuid:3dc28632-6c41-48be-8528-a670f8646c02"
              },
              {
                "reference": "urn:uuid:5daff2cd-89ed-4743-a6f3-2b2f11623cea"
              },
              {
                "reference": "urn:uuid:5a209e2d-f3d5-4ef8-894a-f7df0055b710"
              },
              {
                "reference": "urn:uuid:7df645a8-328c-4171-b6aa-d9605d0a5c02"
              },
              {
                "reference": "urn:uuid:78668035-9f48-455f-abcb-70c407ceda4d"
              },
              {
                "reference": "urn:uuid:dbd7f31d-9f90-4e34-a441-b48c03903115"
              },
              {
                "reference": "urn:uuid:10e7214d-01fb-4b90-bdec-6a079eaecefd"
              },
              {
                "reference": "urn:uuid:a6940dd7-75ff-4707-8b6c-4b7710ecf821"
              },
              {
                "reference": "urn:uuid:539ded7f-3e01-4e89-b6ad-4bf2608c9f1f"
              },
              {
                "reference": "urn:uuid:23d17c50-5dce-4f19-93bf-0ecf746a2307"
              },
              {
                "reference": "urn:uuid:a012eca3-f28c-4c89-8b51-a72077019dd4"
              },
              {
                "reference": "urn:uuid:83f86545-7298-4912-be3c-84177edda954"
              }
            ],
            "code": {
              "coding": [
                {
                  "system": "http://loinc.org",
                  "code": "8716-3",
                  "display": "Vital signs note"
                }
              ]
            },
            "title": "Vital Signs"
          },
          {
            "text": {
              "status": "generated",
              "div": "<div xmlns=\"http://www.w3.org/1999/xhtml\"><table class=\"hl7__ips\"><table class=\"hl7__ips\"><thead><tr><th>Recent Lab Observations</th><th>11-APR-2025</th><th>Reference&#xA0;Range</th><th>Unit</th></tr></thead><tbody><tr><td>Glucose [Mass/volume] in Blood</td><td>81.2</td><td>70 - 140</td><td>mg/dL</td></tr><tr><td>Urea nitrogen [Mass/volume] in Blood</td><td>10.3</td><td>7 - 25</td><td>mg/dL</td></tr><tr><td>Creatinine [Mass/volume] in Blood</td><td><strong>2.6 H</strong></td><td>0.9 - 1.3</td><td>mg/dL</td></tr><tr><td>Calcium [Mass/volume] in Blood</td><td>9.0</td><td>8.5 - 10.5</td><td>mg/dL</td></tr><tr><td>Sodium [Moles/volume] in Blood</td><td>138.9</td><td>135 - 145</td><td>mmol/L</td></tr><tr><td>Potassium [Moles/volume] in Blood</td><td>4.6</td><td>3.5 - 5.1</td><td>mmol/L</td></tr><tr><td>Chloride [Moles/volume] in Blood</td><td>108.3</td><td>98 - 110</td><td>mmol/L</td></tr><tr><td>Carbon dioxide, total [Moles/volume] in Blood</td><td>23.2</td><td>22 - 29</td><td>mmol/L</td></tr><tr><td>Protein [Mass/volume] in Serum or Plasma</td><td>7.0</td><td>6 - 8.3</td><td>g/dL</td></tr><tr><td>Albumin [Mass/volume] in Serum or Plasma</td><td>3.8</td><td>3.2 - 5.5</td><td>g/dL</td></tr><tr><td>Globulin [Mass/volume] in Serum by calculation</td><td>2.2</td><td>1.5 - 3.5</td><td>g/L</td></tr><tr><td>Bilirubin.total [Mass/volume] in Serum or Plasma</td><td>1.1</td><td>0.3 - 1.2</td><td>mg/dL</td></tr><tr><td>Alkaline phosphatase [Enzymatic activity/volume] in Serum or Plasma</td><td>101.7</td><td>39 - 147</td><td>U/L</td></tr><tr><td>Alanine aminotransferase [Enzymatic activity/volume] in Serum or Plasma</td><td>42.8</td><td>7 - 60</td><td>U/L</td></tr><tr><td>Aspartate aminotransferase [Enzymatic activity/volume] in Serum or Plasma</td><td>29.3</td><td>10 - 40</td><td>U/L</td></tr><tr><td>Cholesterol [Mass/volume] in Serum or Plasma</td><td>197.6</td><td>100 - 200</td><td>mg/dL</td></tr><tr><td>Triglyceride [Mass/volume] in Serum or Plasma</td><td><strong>192.1 H</strong></td><td>45 - 175</td><td>mg/dL</td></tr><tr><td>Cholesterol in LDL [Mass/volume] in Serum or Plasma by Direct assay</td><td>134.4</td><td>0 - 190</td><td>mg/dL</td></tr><tr><td>Cholesterol in HDL [Mass/volume] in Serum or Plasma</td><td>59.4</td><td>40 - 100</td><td>mg/dL</td></tr></tbody></table></table></div>"
            },
            "entry": [
              {
                "reference": "urn:uuid:d9f6ca27-ecd4-46f6-9487-88564b948ac3"
              },
              {
                "reference": "urn:uuid:099f750e-d654-4594-b5fb-0f0dedc3edbe"
              },
              {
                "reference": "urn:uuid:b93e8641-53d5-4280-9328-c798b0edaabe"
              },
              {
                "reference": "urn:uuid:78461409-bc23-4f56-acd7-1c59907515e0"
              },
              {
                "reference": "urn:uuid:53b50520-7ee4-444a-b946-9a4ab2776416"
              },
              {
                "reference": "urn:uuid:28cae2f3-7a40-4368-adeb-b03390e47509"
              },
              {
                "reference": "urn:uuid:ac9a87dd-7f0e-4294-8e9b-8c1b0ef96f24"
              },
              {
                "reference": "urn:uuid:fcaf59c3-e981-4aea-86ba-bc599d922b25"
              },
              {
                "reference": "urn:uuid:09339bdc-4c8c-472c-b0f9-1cb33cd3c992"
              },
              {
                "reference": "urn:uuid:592ed40a-f989-4840-b919-4e8962c90ddb"
              },
              {
                "reference": "urn:uuid:a46e2fee-95e4-40c8-a880-89ec0866b302"
              },
              {
                "reference": "urn:uuid:308bc448-de0d-4072-9f3f-93e906c889c6"
              },
              {
                "reference": "urn:uuid:7cb1048c-6d9f-415c-8967-a83a57bbf3dd"
              },
              {
                "reference": "urn:uuid:169e0978-8ecd-444a-b6fc-ebfb27d80f86"
              },
              {
                "reference": "urn:uuid:70d9ac59-f7c0-4e96-a3a5-5214f42baac6"
              },
              {
                "reference": "urn:uuid:cd416e49-dfc3-44a7-8d09-6c598b4da0c4"
              },
              {
                "reference": "urn:uuid:3b773df2-9209-4458-986b-3982872562a9"
              },
              {
                "reference": "urn:uuid:f1904038-db48-4b5b-954a-891dae9b45da"
              },
              {
                "reference": "urn:uuid:97cd457f-514f-455b-b18a-7a598a7aba27"
              }
            ],
            "code": {
              "coding": [
                {
                  "system": "http://loinc.org",
                  "code": "30954-2",
                  "display": "Relevant diagnostic tests/laboratory data note"
                }
              ]
            },
            "title": "Relevant diagnostic tests/laboratory data"
          },
          {
            "text": {
              "status": "generated",
              "div": "<div xmlns=\"http://www.w3.org/1999/xhtml\"><table class=\"hl7__ips\"><tr><th>Device</th><th>Date (since)</th></tr><tr><td>Blood glucose meter (physical object)</td><td><span class=\"nb\">12-Jun-1973</span></td></tr><tr><td>Home nebulizer (physical object)</td><td><span class=\"nb\">08-Feb-1965</span></td></tr></table></div>"
            },
            "entry": [
              {
                "reference": "urn:uuid:e9e4df26-e1f4-48e7-82c2-7aee4afd73d8"
              },
              {
                "reference": "urn:uuid:a4438550-35e3-4262-8da3-eefbd8189219"
              }
            ],
            "code": {
              "coding": [
                {
                  "system": "http://loinc.org",
                  "code": "46264-8",
                  "display": "History of medical device use"
                }
              ]
            },
            "title": "Device Use"
          }
        ],
        "title": "European Patient Summary",
        "status": "final",
        "subject": {
          "reference": "urn:uuid:9e5a1ef9-5e87-4d4a-8bc3-e1b38c83f095",
          "display": "Urbano Cantón"
        },
        "custodian": {
          "reference": "urn:uuid:8efc3744-af9c-4bb4-bb09-9913e31fcd2c"
        },
        "date": "2025-04-11",
        "confidentiality": "N"
      }
    },
    {
      "fullUrl": "urn:uuid:9e5a1ef9-5e87-4d4a-8bc3-e1b38c83f095",
      "resource": {
        "resourceType": "Patient",
        "id": "9e5a1ef9-5e87-4d4a-8bc3-e1b38c83f095",
        "meta": {
          "security": [
            {
              "system": "http://terminology.hl7.org/CodeSystem/v3-ActReason",
              "code": "HTEST"
            },
            {
              "system": "http://terminology.hl7.org/CodeSystem/v3-ActReason",
              "code": "TRAIN"
            }
          ],
          "tag": [
            {
              "system": "https://synderai.net/fhir/CodeSystem/tags",
              "code": "synthetic",
              "display": "SYNDERAI Synthetic data"
            }
          ],
          "profile": [
            "http://hl7.eu/fhir/eps/StructureDefinition/patient-eu-eps"
          ]
        },
        "identifier": [
          {
            "type": {
              "coding": [
                {
                  "code": "PT",
                  "system": "http://terminology.hl7.org/CodeSystem/v2-0203"
                }
              ]
            },
            "system": "http://ec.europa.eu/identifier/eci",
            "value": "8854-480268-4"
          },
          {
            "type": {
              "coding": [
                {
                  "code": "MR",
                  "system": "http://terminology.hl7.org/CodeSystem/v2-0203"
                }
              ]
            },
            "system": "http://local.setting.eu/identifier",
            "value": "91128f5c-658f-cfab-4640-b680ec2e24a1"
          }
        ],
        "name": [
          {
            "family": "Cantón"
          },
          {
            "given": [
              "Urbano"
            ]
          },
          {
            "text": "Urbano Cantón"
          }
        ],
        "address": [
          {
            "line": [
              "Vial Vito Trujillo 29 Piso 2 "
            ],
            "use": "home",
            "type": "physical",
            "postalCode": "38001",
            "city": "Santa Cruz de Tenerife",
            "country": "Spain"
          }
        ],
        "telecom": [
          {
            "system": "phone",
            "value": "+34 740 588 857"
          }
        ],
        "extension": [
          {
            "url": "http://hl7.org/fhir/StructureDefinition/patient-nationality",
            "valueCodeableConcept": {
              "coding": [
                {
                  "code": "ES",
                  "system": "http://hl7.org/fhir/ValueSet/country"
                }
              ]
            }
          }
        ],
        "text": {
          "status": "generated",
          "div": "<div xmlns=\"http://www.w3.org/1999/xhtml\"><table class=\"hl7__ips\"><tr><td>Urbano Cantón</td><td>male</td><td>01-Apr-1945</td></tr></table></div>"
        },
        "gender": "male",
        "birthDate": "1945-04-01"
      }
    },
    {
      "fullUrl": "urn:uuid:fa0b9c5e-2339-4d29-8512-60a4f11d5cc0",
      "resource": {
        "resourceType": "PractitionerRole",
        "id": "fa0b9c5e-2339-4d29-8512-60a4f11d5cc0",
        "meta": {
          "profile": [
            "http://hl7.eu/fhir/base/StructureDefinition/practitionerRole-eu"
          ]
        },
        "text": {
          "status": "generated",
          "div": "<div xmlns=\"http://www.w3.org/1999/xhtml\"><table class=\"hl7__ips\">Provider Role Id fa0b9c5e-2339-4d29-8512-60a4f11d5cc0</table></div>"
        },
        "practitioner": {
          "reference": "urn:uuid:eec6fa0f-aed1-485a-8b3f-b1d970b31d5a"
        },
        "organization": {
          "reference": "urn:uuid:8efc3744-af9c-4bb4-bb09-9913e31fcd2c"
        }
      }
    },
    {
      "fullUrl": "urn:uuid:eec6fa0f-aed1-485a-8b3f-b1d970b31d5a",
      "resource": {
        "resourceType": "Practitioner",
        "id": "eec6fa0f-aed1-485a-8b3f-b1d970b31d5a",
        "meta": {
          "profile": [
            "http://hl7.eu/fhir/base/StructureDefinition/practitioner-eu"
          ]
        },
        "name": [
          {
            "prefix": [
              "Dr."
            ],
            "given": [
              "Hel"
            ],
            "family": "Ping"
          }
        ],
        "text": {
          "status": "generated",
          "div": "<div xmlns=\"http://www.w3.org/1999/xhtml\"><table class=\"hl7__ips\">Dr. Hel Ping</table></div>"
        }
      }
    },
    {
      "fullUrl": "urn:uuid:8efc3744-af9c-4bb4-bb09-9913e31fcd2c",
      "resource": {
        "resourceType": "Organization",
        "id": "8efc3744-af9c-4bb4-bb09-9913e31fcd2c",
        "meta": {
          "profile": [
            "http://hl7.eu/fhir/base/StructureDefinition/organization-eu"
          ]
        },
        "identifier": [
          {
            "assigner": {
              "display": "HL7 Europe"
            },
            "system": "urn:oid:2.16.840.1.113883.2.51.999",
            "value": "d27eea5d-747c-4c73-a7ee-a67a600849aa"
          }
        ],
        "address": [
          {
            "country": "Spain"
          }
        ],
        "text": {
          "status": "generated",
          "div": "<div xmlns=\"http://www.w3.org/1999/xhtml\"><table class=\"hl7__ips\">Centro de Salud Ruiz de Padrón</table></div>"
        },
        "name": "Centro de Salud Ruiz de Padrón"
      }
    },
    {
      "fullUrl": "urn:uuid:e56553a4-4360-4aed-a808-fbb493ca1ecc",
      "resource": {
        "resourceType": "Condition",
        "id": "e56553a4-4360-4aed-a808-fbb493ca1ecc",
        "meta": {
          "profile": [
            "http://hl7.org/fhir/uv/ips/StructureDefinition/Condition-uv-ips"
          ]
        },
        "category": [
          {
            "coding": [
              {
                "code": "problem-list-item",
                "system": "http://terminology.hl7.org/CodeSystem/condition-category",
                "display": "Problem List Item"
              }
            ]
          }
        ],
        "code": {
          "coding": [
            {
              "code": "55822004",
              "system": "http://snomed.info/sct",
              "display": "Hyperlipidemia (disorder)"
            }
          ],
          "text": "Hyperlipidemia"
        },
        "text": {
          "status": "generated",
          "div": "<div xmlns=\"http://www.w3.org/1999/xhtml\"><table class=\"hl7__ips\"><tr><td>Hyperlipidemia</td><td><span class=\"nb\">22-Mar-2022</span></td><td>active</td></tr></table></div>"
        },
        "onsetDateTime": "2022-03-22",
        "subject": {
          "reference": "urn:uuid:",
          "display": "Urbano Cantón"
        },
        "asserter": {
          "reference": "urn:uuid:",
          "display": "Centro de Salud Ruiz de Padrón"
        }
      }
    },
    {
      "fullUrl": "urn:uuid:64773fd8-66e8-45d2-ab3f-e5f1f153d4d9",
      "resource": {
        "resourceType": "Condition",
        "id": "64773fd8-66e8-45d2-ab3f-e5f1f153d4d9",
        "meta": {
          "profile": [
            "http://hl7.org/fhir/uv/ips/StructureDefinition/Condition-uv-ips"
          ]
        },
        "category": [
          {
            "coding": [
              {
                "code": "problem-list-item",
                "system": "http://terminology.hl7.org/CodeSystem/condition-category",
                "display": "Problem List Item"
              }
            ]
          }
        ],
        "code": {
          "coding": [
            {
              "code": "401314000",
              "system": "http://snomed.info/sct",
              "display": "Acute non-ST segment elevation myocardial infarction (disorder)"
            }
          ],
          "text": "Acute non-ST segment elevation myocardial infarction"
        },
        "text": {
          "status": "generated",
          "div": "<div xmlns=\"http://www.w3.org/1999/xhtml\"><table class=\"hl7__ips\"><tr><td>Acute non-ST segment elevation myocardial infarction</td><td><span class=\"nb\">15-Sep-2000</span></td><td>active</td></tr></table></div>"
        },
        "onsetDateTime": "2000-09-15",
        "subject": {
          "reference": "urn:uuid:",
          "display": "Urbano Cantón"
        },
        "asserter": {
          "reference": "urn:uuid:",
          "display": "Centro de Salud Ruiz de Padrón"
        }
      }
    },
    {
      "fullUrl": "urn:uuid:bb01a866-10ed-45f5-b93d-acadf33e2e01",
      "resource": {
        "resourceType": "Condition",
        "id": "bb01a866-10ed-45f5-b93d-acadf33e2e01",
        "meta": {
          "profile": [
            "http://hl7.org/fhir/uv/ips/StructureDefinition/Condition-uv-ips"
          ]
        },
        "category": [
          {
            "coding": [
              {
                "code": "problem-list-item",
                "system": "http://terminology.hl7.org/CodeSystem/condition-category",
                "display": "Problem List Item"
              }
            ]
          }
        ],
        "code": {
          "coding": [
            {
              "code": "6525002",
              "system": "http://snomed.info/sct",
              "display": "Dependent drug abuse (disorder)"
            }
          ],
          "text": "Dependent drug abuse"
        },
        "text": {
          "status": "generated",
          "div": "<div xmlns=\"http://www.w3.org/1999/xhtml\"><table class=\"hl7__ips\"><tr><td>Dependent drug abuse</td><td><span class=\"nb\">27-Oct-1991</span></td><td>active</td></tr></table></div>"
        },
        "onsetDateTime": "1991-10-27",
        "subject": {
          "reference": "urn:uuid:",
          "display": "Urbano Cantón"
        },
        "asserter": {
          "reference": "urn:uuid:",
          "display": "Centro de Salud Ruiz de Padrón"
        }
      }
    },
    {
      "fullUrl": "urn:uuid:6948183e-f943-4650-aefb-7ad961267028",
      "resource": {
        "resourceType": "Condition",
        "id": "6948183e-f943-4650-aefb-7ad961267028",
        "meta": {
          "profile": [
            "http://hl7.org/fhir/uv/ips/StructureDefinition/Condition-uv-ips"
          ]
        },
        "category": [
          {
            "coding": [
              {
                "code": "problem-list-item",
                "system": "http://terminology.hl7.org/CodeSystem/condition-category",
                "display": "Problem List Item"
              }
            ]
          }
        ],
        "code": {
          "coding": [
            {
              "code": "124171000119105",
              "system": "http://snomed.info/sct",
              "display": "Chronic intractable migraine without aura (disorder)"
            }
          ],
          "text": "Chronic intractable migraine without aura"
        },
        "text": {
          "status": "generated",
          "div": "<div xmlns=\"http://www.w3.org/1999/xhtml\"><table class=\"hl7__ips\"><tr><td>Chronic intractable migraine without aura</td><td><span class=\"nb\">28-Apr-1990</span></td><td>active</td></tr></table></div>"
        },
        "onsetDateTime": "1990-04-28",
        "subject": {
          "reference": "urn:uuid:",
          "display": "Urbano Cantón"
        },
        "asserter": {
          "reference": "urn:uuid:",
          "display": "Centro de Salud Ruiz de Padrón"
        }
      }
    },
    {
      "fullUrl": "urn:uuid:4327af84-ecfb-4655-a51f-1397964e4109",
      "resource": {
        "resourceType": "Condition",
        "id": "4327af84-ecfb-4655-a51f-1397964e4109",
        "meta": {
          "profile": [
            "http://hl7.org/fhir/uv/ips/StructureDefinition/Condition-uv-ips"
          ]
        },
        "category": [
          {
            "coding": [
              {
                "code": "problem-list-item",
                "system": "http://terminology.hl7.org/CodeSystem/condition-category",
                "display": "Problem List Item"
              }
            ]
          }
        ],
        "code": {
          "coding": [
            {
              "code": "414545008",
              "system": "http://snomed.info/sct",
              "display": "Ischemic heart disease (disorder)"
            }
          ],
          "text": "Ischemic heart disease"
        },
        "text": {
          "status": "generated",
          "div": "<div xmlns=\"http://www.w3.org/1999/xhtml\"><table class=\"hl7__ips\"><tr><td>Ischemic heart disease</td><td><span class=\"nb\">06-Sep-1988</span></td><td>active</td></tr></table></div>"
        },
        "onsetDateTime": "1988-09-06",
        "subject": {
          "reference": "urn:uuid:",
          "display": "Urbano Cantón"
        },
        "asserter": {
          "reference": "urn:uuid:",
          "display": "Centro de Salud Ruiz de Padrón"
        }
      }
    },
    {
      "fullUrl": "urn:uuid:41ac2aaa-d2c7-4d32-b22a-8d9ebee5923f",
      "resource": {
        "resourceType": "Condition",
        "id": "41ac2aaa-d2c7-4d32-b22a-8d9ebee5923f",
        "meta": {
          "profile": [
            "http://hl7.org/fhir/uv/ips/StructureDefinition/Condition-uv-ips"
          ]
        },
        "category": [
          {
            "coding": [
              {
                "code": "problem-list-item",
                "system": "http://terminology.hl7.org/CodeSystem/condition-category",
                "display": "Problem List Item"
              }
            ]
          }
        ],
        "code": {
          "coding": [
            {
              "code": "368581000119106",
              "system": "http://snomed.info/sct",
              "display": "Neuropathy due to type 2 diabetes mellitus (disorder)"
            }
          ],
          "text": "Neuropathy due to type 2 diabetes mellitus"
        },
        "text": {
          "status": "generated",
          "div": "<div xmlns=\"http://www.w3.org/1999/xhtml\"><table class=\"hl7__ips\"><tr><td>Neuropathy due to type 2 diabetes mellitus</td><td><span class=\"nb\">09-Aug-1983</span></td><td>active</td></tr></table></div>"
        },
        "onsetDateTime": "1983-08-09",
        "subject": {
          "reference": "urn:uuid:",
          "display": "Urbano Cantón"
        },
        "asserter": {
          "reference": "urn:uuid:",
          "display": "Centro de Salud Ruiz de Padrón"
        }
      }
    },
    {
      "fullUrl": "urn:uuid:4fc5adba-84cd-4f18-a2eb-66b198d49982",
      "resource": {
        "resourceType": "Condition",
        "id": "4fc5adba-84cd-4f18-a2eb-66b198d49982",
        "meta": {
          "profile": [
            "http://hl7.org/fhir/uv/ips/StructureDefinition/Condition-uv-ips"
          ]
        },
        "category": [
          {
            "coding": [
              {
                "code": "problem-list-item",
                "system": "http://terminology.hl7.org/CodeSystem/condition-category",
                "display": "Problem List Item"
              }
            ]
          }
        ],
        "code": {
          "coding": [
            {
              "code": "80394007",
              "system": "http://snomed.info/sct",
              "display": "Hyperglycemia (disorder)"
            }
          ],
          "text": "Hyperglycemia"
        },
        "text": {
          "status": "generated",
          "div": "<div xmlns=\"http://www.w3.org/1999/xhtml\"><table class=\"hl7__ips\"><tr><td>Hyperglycemia</td><td><span class=\"nb\">25-Nov-1975</span></td><td>active</td></tr></table></div>"
        },
        "onsetDateTime": "1975-11-25",
        "subject": {
          "reference": "urn:uuid:",
          "display": "Urbano Cantón"
        },
        "asserter": {
          "reference": "urn:uuid:",
          "display": "Centro de Salud Ruiz de Padrón"
        }
      }
    },
    {
      "fullUrl": "urn:uuid:4243acde-1cee-424f-9b61-25f639416c10",
      "resource": {
        "resourceType": "Condition",
        "id": "4243acde-1cee-424f-9b61-25f639416c10",
        "meta": {
          "profile": [
            "http://hl7.org/fhir/uv/ips/StructureDefinition/Condition-uv-ips"
          ]
        },
        "category": [
          {
            "coding": [
              {
                "code": "problem-list-item",
                "system": "http://terminology.hl7.org/CodeSystem/condition-category",
                "display": "Problem List Item"
              }
            ]
          }
        ],
        "code": {
          "coding": [
            {
              "code": "237602007",
              "system": "http://snomed.info/sct",
              "display": "Metabolic syndrome X (disorder)"
            }
          ],
          "text": "Metabolic syndrome X"
        },
        "text": {
          "status": "generated",
          "div": "<div xmlns=\"http://www.w3.org/1999/xhtml\"><table class=\"hl7__ips\"><tr><td>Metabolic syndrome X</td><td><span class=\"nb\">24-Jun-1975</span></td><td>active</td></tr></table></div>"
        },
        "onsetDateTime": "1975-06-24",
        "subject": {
          "reference": "urn:uuid:",
          "display": "Urbano Cantón"
        },
        "asserter": {
          "reference": "urn:uuid:",
          "display": "Centro de Salud Ruiz de Padrón"
        }
      }
    },
    {
      "fullUrl": "urn:uuid:7dd3dc6c-1fd7-414e-a2a2-6f57ede11afe",
      "resource": {
        "resourceType": "Condition",
        "id": "7dd3dc6c-1fd7-414e-a2a2-6f57ede11afe",
        "meta": {
          "profile": [
            "http://hl7.org/fhir/uv/ips/StructureDefinition/Condition-uv-ips"
          ]
        },
        "category": [
          {
            "coding": [
              {
                "code": "problem-list-item",
                "system": "http://terminology.hl7.org/CodeSystem/condition-category",
                "display": "Problem List Item"
              }
            ]
          }
        ],
        "code": {
          "coding": [
            {
              "code": "302870006",
              "system": "http://snomed.info/sct",
              "display": "Hypertriglyceridemia (disorder)"
            }
          ],
          "text": "Hypertriglyceridemia"
        },
        "text": {
          "status": "generated",
          "div": "<div xmlns=\"http://www.w3.org/1999/xhtml\"><table class=\"hl7__ips\"><tr><td>Hypertriglyceridemia</td><td><span class=\"nb\">18-Jun-1974</span></td><td>active</td></tr></table></div>"
        },
        "onsetDateTime": "1974-06-18",
        "subject": {
          "reference": "urn:uuid:",
          "display": "Urbano Cantón"
        },
        "asserter": {
          "reference": "urn:uuid:",
          "display": "Centro de Salud Ruiz de Padrón"
        }
      }
    },
    {
      "fullUrl": "urn:uuid:fe487142-7ffc-459d-8203-77c625575b5b",
      "resource": {
        "resourceType": "Condition",
        "id": "fe487142-7ffc-459d-8203-77c625575b5b",
        "meta": {
          "profile": [
            "http://hl7.org/fhir/uv/ips/StructureDefinition/Condition-uv-ips"
          ]
        },
        "category": [
          {
            "coding": [
              {
                "code": "problem-list-item",
                "system": "http://terminology.hl7.org/CodeSystem/condition-category",
                "display": "Problem List Item"
              }
            ]
          }
        ],
        "code": {
          "coding": [
            {
              "code": "44054006",
              "system": "http://snomed.info/sct",
              "display": "Diabetes mellitus type 2 (disorder)"
            }
          ],
          "text": "Type 2 diabetes mellitus"
        },
        "text": {
          "status": "generated",
          "div": "<div xmlns=\"http://www.w3.org/1999/xhtml\"><table class=\"hl7__ips\"><tr><td>Type 2 diabetes mellitus</td><td><span class=\"nb\">12-Jun-1973</span></td><td>active</td></tr></table></div>"
        },
        "onsetDateTime": "1973-06-12",
        "subject": {
          "reference": "urn:uuid:",
          "display": "Urbano Cantón"
        },
        "asserter": {
          "reference": "urn:uuid:",
          "display": "Centro de Salud Ruiz de Padrón"
        }
      }
    },
    {
      "fullUrl": "urn:uuid:1ae12259-9153-407d-b88a-66094f5cacdd",
      "resource": {
        "resourceType": "Condition",
        "id": "1ae12259-9153-407d-b88a-66094f5cacdd",
        "meta": {
          "profile": [
            "http://hl7.org/fhir/uv/ips/StructureDefinition/Condition-uv-ips"
          ]
        },
        "category": [
          {
            "coding": [
              {
                "code": "problem-list-item",
                "system": "http://terminology.hl7.org/CodeSystem/condition-category",
                "display": "Problem List Item"
              }
            ]
          }
        ],
        "code": {
          "coding": [
            {
              "code": "59621000",
              "system": "http://snomed.info/sct",
              "display": "Essential hypertension (disorder)"
            }
          ],
          "text": "Essential hypertension"
        },
        "text": {
          "status": "generated",
          "div": "<div xmlns=\"http://www.w3.org/1999/xhtml\"><table class=\"hl7__ips\"><tr><td>Essential hypertension</td><td><span class=\"nb\">12-Jun-1973</span></td><td>active</td></tr></table></div>"
        },
        "onsetDateTime": "1973-06-12",
        "subject": {
          "reference": "urn:uuid:",
          "display": "Urbano Cantón"
        },
        "asserter": {
          "reference": "urn:uuid:",
          "display": "Centro de Salud Ruiz de Padrón"
        }
      }
    },
    {
      "fullUrl": "urn:uuid:b536970a-1602-4530-8076-775bc3bb1144",
      "resource": {
        "resourceType": "Condition",
        "id": "b536970a-1602-4530-8076-775bc3bb1144",
        "meta": {
          "profile": [
            "http://hl7.org/fhir/uv/ips/StructureDefinition/Condition-uv-ips"
          ]
        },
        "category": [
          {
            "coding": [
              {
                "code": "problem-list-item",
                "system": "http://terminology.hl7.org/CodeSystem/condition-category",
                "display": "Problem List Item"
              }
            ]
          }
        ],
        "code": {
          "coding": [
            {
              "code": "271737000",
              "system": "http://snomed.info/sct",
              "display": "Anemia (disorder)"
            }
          ],
          "text": "Anemia"
        },
        "text": {
          "status": "generated",
          "div": "<div xmlns=\"http://www.w3.org/1999/xhtml\"><table class=\"hl7__ips\"><tr><td>Anemia</td><td><span class=\"nb\">12-Jun-1973</span></td><td>active</td></tr></table></div>"
        },
        "onsetDateTime": "1973-06-12",
        "subject": {
          "reference": "urn:uuid:",
          "display": "Urbano Cantón"
        },
        "asserter": {
          "reference": "urn:uuid:",
          "display": "Centro de Salud Ruiz de Padrón"
        }
      }
    },
    {
      "fullUrl": "urn:uuid:8f058de7-bfe2-4e86-a9c7-4986d29f0642",
      "resource": {
        "resourceType": "Condition",
        "id": "8f058de7-bfe2-4e86-a9c7-4986d29f0642",
        "meta": {
          "profile": [
            "http://hl7.org/fhir/uv/ips/StructureDefinition/Condition-uv-ips"
          ]
        },
        "category": [
          {
            "coding": [
              {
                "code": "problem-list-item",
                "system": "http://terminology.hl7.org/CodeSystem/condition-category",
                "display": "Problem List Item"
              }
            ]
          }
        ],
        "code": {
          "coding": [
            {
              "code": "40055000",
              "system": "http://snomed.info/sct",
              "display": "Chronic sinusitis (disorder)"
            }
          ],
          "text": "Chronic sinusitis"
        },
        "text": {
          "status": "generated",
          "div": "<div xmlns=\"http://www.w3.org/1999/xhtml\"><table class=\"hl7__ips\"><tr><td>Chronic sinusitis</td><td><span class=\"nb\">08-Feb-1965</span></td><td>active</td></tr></table></div>"
        },
        "onsetDateTime": "1965-02-08",
        "subject": {
          "reference": "urn:uuid:",
          "display": "Urbano Cantón"
        },
        "asserter": {
          "reference": "urn:uuid:",
          "display": "Centro de Salud Ruiz de Padrón"
        }
      }
    },
    {
      "fullUrl": "urn:uuid:fde9f5eb-f1a2-4ca8-9eba-5f423546e3b4",
      "resource": {
        "resourceType": "Condition",
        "id": "fde9f5eb-f1a2-4ca8-9eba-5f423546e3b4",
        "meta": {
          "profile": [
            "http://hl7.org/fhir/uv/ips/StructureDefinition/Condition-uv-ips"
          ]
        },
        "category": [
          {
            "coding": [
              {
                "code": "problem-list-item",
                "system": "http://terminology.hl7.org/CodeSystem/condition-category",
                "display": "Problem List Item"
              }
            ]
          }
        ],
        "code": {
          "coding": [
            {
              "code": "70704007",
              "system": "http://snomed.info/sct",
              "display": "Sprain of wrist (disorder)"
            }
          ],
          "text": "Sprain of wrist"
        },
        "text": {
          "status": "generated",
          "div": "<div xmlns=\"http://www.w3.org/1999/xhtml\"><table class=\"hl7__ips\"><tr><td><span class=\"grayedout\">Sprain of wrist</span></td><td><span class=\"nb\">24-Feb-2025 - 15-Mar-2025</span></td><td><span class=\"grayedout\">inactive</span></td></tr></table></div>"
        },
        "onsetDateTime": "2025-02-24",
        "abatementDateTime": "2025-03-15",
        "subject": {
          "reference": "urn:uuid:",
          "display": "Urbano Cantón"
        },
        "asserter": {
          "reference": "urn:uuid:",
          "display": "Centro de Salud Ruiz de Padrón"
        }
      }
    },
    {
      "fullUrl": "urn:uuid:8466bd96-5669-4bb3-ad0b-4436b74bcd4f",
      "resource": {
        "resourceType": "Condition",
        "id": "8466bd96-5669-4bb3-ad0b-4436b74bcd4f",
        "meta": {
          "profile": [
            "http://hl7.org/fhir/uv/ips/StructureDefinition/Condition-uv-ips"
          ]
        },
        "category": [
          {
            "coding": [
              {
                "code": "problem-list-item",
                "system": "http://terminology.hl7.org/CodeSystem/condition-category",
                "display": "Problem List Item"
              }
            ]
          }
        ],
        "code": {
          "coding": [
            {
              "code": "55680006",
              "system": "http://snomed.info/sct",
              "display": "Drug overdose (disorder)"
            }
          ],
          "text": "Drug overdose"
        },
        "text": {
          "status": "generated",
          "div": "<div xmlns=\"http://www.w3.org/1999/xhtml\"><table class=\"hl7__ips\"><tr><td><span class=\"grayedout\">Drug overdose</span></td><td><span class=\"nb\">12-Mar-2022 - 12-Mar-2022</span></td><td><span class=\"grayedout\">inactive</span></td></tr></table></div>"
        },
        "onsetDateTime": "2022-03-12",
        "abatementDateTime": "2022-03-12",
        "subject": {
          "reference": "urn:uuid:",
          "display": "Urbano Cantón"
        },
        "asserter": {
          "reference": "urn:uuid:",
          "display": "Centro de Salud Ruiz de Padrón"
        }
      }
    },
    {
      "fullUrl": "urn:uuid:1336526f-993b-4188-849d-b49e1081cbfc",
      "resource": {
        "resourceType": "Condition",
        "id": "1336526f-993b-4188-849d-b49e1081cbfc",
        "meta": {
          "profile": [
            "http://hl7.org/fhir/uv/ips/StructureDefinition/Condition-uv-ips"
          ]
        },
        "category": [
          {
            "coding": [
              {
                "code": "problem-list-item",
                "system": "http://terminology.hl7.org/CodeSystem/condition-category",
                "display": "Problem List Item"
              }
            ]
          }
        ],
        "code": {
          "coding": [
            {
              "code": "10509002",
              "system": "http://snomed.info/sct",
              "display": "Acute bronchitis (disorder)"
            }
          ],
          "text": "Acute bronchitis"
        },
        "text": {
          "status": "generated",
          "div": "<div xmlns=\"http://www.w3.org/1999/xhtml\"><table class=\"hl7__ips\"><tr><td><span class=\"grayedout\">Acute bronchitis</span></td><td><span class=\"nb\">08-Sep-2020 - 25-Sep-2020</span></td><td><span class=\"grayedout\">inactive</span></td></tr></table></div>"
        },
        "onsetDateTime": "2020-09-08",
        "abatementDateTime": "2020-09-25",
        "subject": {
          "reference": "urn:uuid:",
          "display": "Urbano Cantón"
        },
        "asserter": {
          "reference": "urn:uuid:",
          "display": "Centro de Salud Ruiz de Padrón"
        }
      }
    },
    {
      "fullUrl": "urn:uuid:cf06ea54-0c62-4ab5-b46a-2ebba40853e4",
      "resource": {
        "resourceType": "Condition",
        "id": "cf06ea54-0c62-4ab5-b46a-2ebba40853e4",
        "meta": {
          "profile": [
            "http://hl7.org/fhir/uv/ips/StructureDefinition/Condition-uv-ips"
          ]
        },
        "category": [
          {
            "coding": [
              {
                "code": "problem-list-item",
                "system": "http://terminology.hl7.org/CodeSystem/condition-category",
                "display": "Problem List Item"
              }
            ]
          }
        ],
        "code": {
          "coding": [
            {
              "code": "125605004",
              "system": "http://snomed.info/sct",
              "display": "Fracture of bone (disorder)"
            }
          ],
          "text": "Fracture of bone"
        },
        "text": {
          "status": "generated",
          "div": "<div xmlns=\"http://www.w3.org/1999/xhtml\"><table class=\"hl7__ips\"><tr><td><span class=\"grayedout\">Fracture of bone</span></td><td><span class=\"nb\">03-Oct-2019 - 27-Jan-2020</span></td><td><span class=\"grayedout\">inactive</span></td></tr></table></div>"
        },
        "onsetDateTime": "2019-10-03",
        "abatementDateTime": "2020-01-27",
        "subject": {
          "reference": "urn:uuid:",
          "display": "Urbano Cantón"
        },
        "asserter": {
          "reference": "urn:uuid:",
          "display": "Centro de Salud Ruiz de Padrón"
        }
      }
    },
    {
      "fullUrl": "urn:uuid:27d88de6-5f8c-41b6-9f3c-c7161874496b",
      "resource": {
        "resourceType": "Condition",
        "id": "27d88de6-5f8c-41b6-9f3c-c7161874496b",
        "meta": {
          "profile": [
            "http://hl7.org/fhir/uv/ips/StructureDefinition/Condition-uv-ips"
          ]
        },
        "category": [
          {
            "coding": [
              {
                "code": "problem-list-item",
                "system": "http://terminology.hl7.org/CodeSystem/condition-category",
                "display": "Problem List Item"
              }
            ]
          }
        ],
        "code": {
          "coding": [
            {
              "code": "263102004",
              "system": "http://snomed.info/sct",
              "display": "Fracture subluxation of wrist (disorder)"
            }
          ],
          "text": "Fracture subluxation of wrist"
        },
        "text": {
          "status": "generated",
          "div": "<div xmlns=\"http://www.w3.org/1999/xhtml\"><table class=\"hl7__ips\"><tr><td><span class=\"grayedout\">Fracture subluxation of wrist</span></td><td><span class=\"nb\">03-Oct-2019 - 27-Jan-2020</span></td><td><span class=\"grayedout\">inactive</span></td></tr></table></div>"
        },
        "onsetDateTime": "2019-10-03",
        "abatementDateTime": "2020-01-27",
        "subject": {
          "reference": "urn:uuid:",
          "display": "Urbano Cantón"
        },
        "asserter": {
          "reference": "urn:uuid:",
          "display": "Centro de Salud Ruiz de Padrón"
        }
      }
    },
    {
      "fullUrl": "urn:uuid:311a746f-b39a-4059-84ce-e5a08772673f",
      "resource": {
        "resourceType": "Condition",
        "id": "311a746f-b39a-4059-84ce-e5a08772673f",
        "meta": {
          "profile": [
            "http://hl7.org/fhir/uv/ips/StructureDefinition/Condition-uv-ips"
          ]
        },
        "category": [
          {
            "coding": [
              {
                "code": "problem-list-item",
                "system": "http://terminology.hl7.org/CodeSystem/condition-category",
                "display": "Problem List Item"
              }
            ]
          }
        ],
        "code": {
          "coding": [
            {
              "code": "195662009",
              "system": "http://snomed.info/sct",
              "display": "Acute viral pharyngitis (disorder)"
            }
          ],
          "text": "Acute viral pharyngitis"
        },
        "text": {
          "status": "generated",
          "div": "<div xmlns=\"http://www.w3.org/1999/xhtml\"><table class=\"hl7__ips\"><tr><td><span class=\"grayedout\">Acute viral pharyngitis</span></td><td><span class=\"nb\">30-May-2016 - 11-Jun-2016</span></td><td><span class=\"grayedout\">inactive</span></td></tr></table></div>"
        },
        "onsetDateTime": "2016-05-30",
        "abatementDateTime": "2016-06-11",
        "subject": {
          "reference": "urn:uuid:",
          "display": "Urbano Cantón"
        },
        "asserter": {
          "reference": "urn:uuid:",
          "display": "Centro de Salud Ruiz de Padrón"
        }
      }
    },
    {
      "fullUrl": "urn:uuid:132df3e7-c30a-41da-8f34-b23808b3203d",
      "resource": {
        "resourceType": "Condition",
        "id": "132df3e7-c30a-41da-8f34-b23808b3203d",
        "meta": {
          "profile": [
            "http://hl7.org/fhir/uv/ips/StructureDefinition/Condition-uv-ips"
          ]
        },
        "category": [
          {
            "coding": [
              {
                "code": "problem-list-item",
                "system": "http://terminology.hl7.org/CodeSystem/condition-category",
                "display": "Problem List Item"
              }
            ]
          }
        ],
        "code": {
          "coding": [
            {
              "code": "55680006",
              "system": "http://snomed.info/sct",
              "display": "Drug overdose (disorder)"
            }
          ],
          "text": "Drug overdose"
        },
        "text": {
          "status": "generated",
          "div": "<div xmlns=\"http://www.w3.org/1999/xhtml\"><table class=\"hl7__ips\"><tr><td><span class=\"grayedout\">Drug overdose</span></td><td><span class=\"nb\">21-Jan-2016 - 22-Jan-2016</span></td><td><span class=\"grayedout\">inactive</span></td></tr></table></div>"
        },
        "onsetDateTime": "2016-01-21",
        "abatementDateTime": "2016-01-22",
        "subject": {
          "reference": "urn:uuid:",
          "display": "Urbano Cantón"
        },
        "asserter": {
          "reference": "urn:uuid:",
          "display": "Centro de Salud Ruiz de Padrón"
        }
      }
    },
    {
      "fullUrl": "urn:uuid:74e3c1c0-606d-461f-bfca-1b8e99e4223e",
      "resource": {
        "resourceType": "Medication",
        "id": "74e3c1c0-606d-461f-bfca-1b8e99e4223e",
        "meta": {
          "profile": [
            "http://hl7.eu/fhir/eps/StructureDefinition/Medication-eu-eps"
          ]
        },
        "code": {
          "coding": [
            {
              "code": "319996000",
              "system": "http://snomed.info/sct",
              "display": "Simvastatin 10 mg oral tablet"
            }
          ],
          "text": "Simvastatin 10 mg oral tablet"
        },
        "text": {
          "status": "generated",
          "div": "<div xmlns=\"http://www.w3.org/1999/xhtml\">Simvastatin 10 mg oral tablet</div>"
        }
      }
    },
    {
      "fullUrl": "urn:uuid:b52296a6-0584-48f3-9b48-574f6c65bb9e",
      "resource": {
        "resourceType": "MedicationStatement",
        "id": "b52296a6-0584-48f3-9b48-574f6c65bb9e",
        "meta": {
          "profile": [
            "http://hl7.eu/fhir/eps/StructureDefinition/MedicationStatement-eu-eps"
          ]
        },
        "effectivePeriod": {
          "start": "2025-04-11"
        },
        "dosage": [
          {
            "doseAndRate": [
              {
                "doseQuantity": {
                  "value": 1,
                  "unit": "{tbl}",
                  "code": "{tbl}"
                }
              }
            ],
            "timing": {
              "repeat": {
                "frequency": 1,
                "period": 1,
                "periodUnit": "d"
              }
            },
            "text": "1 tablet (10 mg) by mouth once daily",
            "asNeededBoolean": false
          }
        ],
        "reasonCode": [
          {
            "coding": [
              {
                "code": "55822004",
                "system": "http://snomed.info/sct",
                "display": "Hyperlipidemia"
              }
            ]
          }
        ],
        "text": {
          "status": "generated",
          "div": "<div xmlns=\"http://www.w3.org/1999/xhtml\"><table class=\"hl7__ips first25\"><tr><th>Medication</th><th>Since</th><th>Form</th><th>Dosage</th><th>Reason</th></tr><tr><td>Simvastatin 10 mg oral tablet</td><td><span class=\"nb\">2025-04-11</span></td><td>-</td><td>1 tablet (10 mg) by mouth once daily</td><td>Hyperlipidemia</td></tr></table></div>"
        },
        "status": "active",
        "medicationReference": {
          "reference": "urn:uuid:74e3c1c0-606d-461f-bfca-1b8e99e4223e",
          "display": "Simvastatin 10 mg oral tablet"
        },
        "subject": {
          "reference": "urn:uuid:9e5a1ef9-5e87-4d4a-8bc3-e1b38c83f095",
          "display": "Urbano Cantón"
        }
      }
    },
    {
      "fullUrl": "urn:uuid:a7caa486-17ea-42b9-aeb8-2b2721359f9b",
      "resource": {
        "resourceType": "Medication",
        "id": "a7caa486-17ea-42b9-aeb8-2b2721359f9b",
        "meta": {
          "profile": [
            "http://hl7.eu/fhir/eps/StructureDefinition/Medication-eu-eps"
          ]
        },
        "code": {
          "coding": [
            {
              "code": "376209006",
              "system": "http://snomed.info/sct",
              "display": "Hydrochlorothiazide 25 mg oral tablet"
            }
          ],
          "text": "Hydrochlorothiazide 25 mg oral tablet"
        },
        "text": {
          "status": "generated",
          "div": "<div xmlns=\"http://www.w3.org/1999/xhtml\">Hydrochlorothiazide 25 mg oral tablet</div>"
        }
      }
    },
    {
      "fullUrl": "urn:uuid:a96764a2-fa18-4cb0-bd79-2bbdb42caf3b",
      "resource": {
        "resourceType": "MedicationStatement",
        "id": "a96764a2-fa18-4cb0-bd79-2bbdb42caf3b",
        "meta": {
          "profile": [
            "http://hl7.eu/fhir/eps/StructureDefinition/MedicationStatement-eu-eps"
          ]
        },
        "effectivePeriod": {
          "start": "2025-04-08"
        },
        "dosage": [
          {
            "doseAndRate": [
              {
                "doseQuantity": {
                  "value": 1,
                  "unit": "{tbl}",
                  "code": "{tbl}"
                }
              }
            ],
            "timing": {
              "repeat": {
                "frequency": 1,
                "period": 1,
                "periodUnit": "d"
              }
            },
            "text": "1 tablet (25 mg) by mouth once daily",
            "asNeededBoolean": false
          }
        ],
        "reasonCode": [
          {
            "coding": [
              {
                "code": "59621000",
                "system": "http://snomed.info/sct",
                "display": "Essential hypertension (disorder)"
              }
            ]
          }
        ],
        "text": {
          "status": "generated",
          "div": "<div xmlns=\"http://www.w3.org/1999/xhtml\"><table class=\"hl7__ips first25\"><tr><th>Medication</th><th>Since</th><th>Form</th><th>Dosage</th><th>Reason</th></tr><tr><td>Hydrochlorothiazide 25 mg oral tablet</td><td><span class=\"nb\">2025-04-08</span></td><td>-</td><td>1 tablet (25 mg) by mouth once daily</td><td>Essential hypertension (disorder)</td></tr></table></div>"
        },
        "status": "active",
        "medicationReference": {
          "reference": "urn:uuid:a7caa486-17ea-42b9-aeb8-2b2721359f9b",
          "display": "Hydrochlorothiazide 25 mg oral tablet"
        },
        "subject": {
          "reference": "urn:uuid:9e5a1ef9-5e87-4d4a-8bc3-e1b38c83f095",
          "display": "Urbano Cantón"
        }
      }
    },
    {
      "fullUrl": "urn:uuid:212f92f2-b6e7-4aec-ac61-3ee9ac58dfb1",
      "resource": {
        "resourceType": "Medication",
        "id": "212f92f2-b6e7-4aec-ac61-3ee9ac58dfb1",
        "meta": {
          "profile": [
            "http://hl7.eu/fhir/eps/StructureDefinition/Medication-eu-eps"
          ]
        },
        "code": {
          "coding": [
            {
              "code": "318859000",
              "system": "http://snomed.info/sct",
              "display": "Lisinopril 10 mg oral tablet"
            }
          ],
          "text": "Lisinopril 10 mg oral tablet"
        },
        "text": {
          "status": "generated",
          "div": "<div xmlns=\"http://www.w3.org/1999/xhtml\">Lisinopril 10 mg oral tablet</div>"
        }
      }
    },
    {
      "fullUrl": "urn:uuid:cc5b2fe9-db8a-4cab-955f-220e2b651940",
      "resource": {
        "resourceType": "MedicationStatement",
        "id": "cc5b2fe9-db8a-4cab-955f-220e2b651940",
        "meta": {
          "profile": [
            "http://hl7.eu/fhir/eps/StructureDefinition/MedicationStatement-eu-eps"
          ]
        },
        "effectivePeriod": {
          "start": "2025-04-08"
        },
        "dosage": [
          {
            "doseAndRate": [
              {
                "doseQuantity": {
                  "value": 1,
                  "unit": "{tbl} (10 mg)",
                  "system": "$ucum",
                  "code": "{tbl}"
                }
              }
            ],
            "timing": {
              "repeat": {
                "frequency": 1,
                "period": 1,
                "periodUnit": "d"
              }
            },
            "text": "1 tablet (10 mg) by mouth once daily",
            "asNeededBoolean": false
          }
        ],
        "reasonCode": [
          {
            "coding": [
              {
                "code": "59621000",
                "system": "http://snomed.info/sct",
                "display": "Essential hypertension (disorder)"
              }
            ]
          }
        ],
        "text": {
          "status": "generated",
          "div": "<div xmlns=\"http://www.w3.org/1999/xhtml\"><table class=\"hl7__ips first25\"><tr><th>Medication</th><th>Since</th><th>Form</th><th>Dosage</th><th>Reason</th></tr><tr><td>Lisinopril 10 mg oral tablet</td><td><span class=\"nb\">2025-04-08</span></td><td>-</td><td>1 tablet (10 mg) by mouth once daily</td><td>Essential hypertension (disorder)</td></tr></table></div>"
        },
        "status": "active",
        "medicationReference": {
          "reference": "urn:uuid:212f92f2-b6e7-4aec-ac61-3ee9ac58dfb1",
          "display": "Lisinopril 10 mg oral tablet"
        },
        "subject": {
          "reference": "urn:uuid:9e5a1ef9-5e87-4d4a-8bc3-e1b38c83f095",
          "display": "Urbano Cantón"
        }
      }
    },
    {
      "fullUrl": "urn:uuid:bce1dd04-c28f-4648-b746-1014aa9cddef",
      "resource": {
        "resourceType": "Medication",
        "id": "bce1dd04-c28f-4648-b746-1014aa9cddef",
        "meta": {
          "profile": [
            "http://hl7.eu/fhir/eps/StructureDefinition/Medication-eu-eps"
          ]
        },
        "code": {
          "coding": [
            {
              "code": "765507008",
              "system": "http://snomed.info/sct",
              "display": "Metformin hydrochloride 500 mg prolonged-release oral tablet"
            }
          ],
          "text": "Metformin hydrochloride 500 mg prolonged-release oral tablet"
        },
        "text": {
          "status": "generated",
          "div": "<div xmlns=\"http://www.w3.org/1999/xhtml\">Metformin hydrochloride 500 mg prolonged-release oral tablet</div>"
        }
      }
    },
    {
      "fullUrl": "urn:uuid:ec3242bd-c52d-4848-9cc9-dce87f781c6d",
      "resource": {
        "resourceType": "MedicationStatement",
        "id": "ec3242bd-c52d-4848-9cc9-dce87f781c6d",
        "meta": {
          "profile": [
            "http://hl7.eu/fhir/eps/StructureDefinition/MedicationStatement-eu-eps"
          ]
        },
        "effectivePeriod": {
          "start": "2025-04-08"
        },
        "dosage": [
          {
            "doseAndRate": [
              {
                "doseQuantity": {
                  "value": 1,
                  "unit": "{tbl} (500 mg)",
                  "system": "$ucum",
                  "code": "{tbl}"
                }
              }
            ],
            "timing": {
              "repeat": {
                "frequency": 1,
                "period": 1,
                "periodUnit": "d"
              }
            },
            "text": "1 tablet (500 mg) once daily",
            "asNeededBoolean": false
          }
        ],
        "reasonCode": [
          {
            "coding": [
              {
                "code": "44054006",
                "system": "http://snomed.info/sct",
                "display": "Diabetes mellitus type 2 (disorder)"
              }
            ]
          }
        ],
        "text": {
          "status": "generated",
          "div": "<div xmlns=\"http://www.w3.org/1999/xhtml\"><table class=\"hl7__ips first25\"><tr><th>Medication</th><th>Since</th><th>Form</th><th>Dosage</th><th>Reason</th></tr><tr><td>Metformin hydrochloride 500 mg prolonged-release oral tablet</td><td><span class=\"nb\">2025-04-08</span></td><td>-</td><td>1 tablet (500 mg) once daily</td><td>Diabetes mellitus type 2 (disorder)</td></tr></table></div>"
        },
        "status": "active",
        "medicationReference": {
          "reference": "urn:uuid:bce1dd04-c28f-4648-b746-1014aa9cddef",
          "display": "Metformin hydrochloride 500 mg prolonged-release oral tablet"
        },
        "subject": {
          "reference": "urn:uuid:9e5a1ef9-5e87-4d4a-8bc3-e1b38c83f095",
          "display": "Urbano Cantón"
        }
      }
    },
    {
      "fullUrl": "urn:uuid:69ad5a82-16c2-4724-b2cc-5de38f4470e0",
      "resource": {
        "resourceType": "Medication",
        "id": "69ad5a82-16c2-4724-b2cc-5de38f4470e0",
        "meta": {
          "profile": [
            "http://hl7.eu/fhir/eps/StructureDefinition/Medication-eu-eps"
          ]
        },
        "code": {
          "coding": [
            {
              "code": "425176000",
              "system": "http://snomed.info/sct",
              "display": "Nitroglycerin 400 microgram/actuation sublingual spray"
            }
          ],
          "text": "Nitroglycerin 400 microgram/actuation sublingual spray"
        },
        "text": {
          "status": "generated",
          "div": "<div xmlns=\"http://www.w3.org/1999/xhtml\">Nitroglycerin 400 microgram/actuation sublingual spray</div>"
        }
      }
    },
    {
      "fullUrl": "urn:uuid:2ba372f4-1516-4ce4-a49d-034f3657dc94",
      "resource": {
        "resourceType": "MedicationStatement",
        "id": "2ba372f4-1516-4ce4-a49d-034f3657dc94",
        "meta": {
          "profile": [
            "http://hl7.eu/fhir/eps/StructureDefinition/MedicationStatement-eu-eps"
          ]
        },
        "effectivePeriod": {
          "start": "1988-09-13"
        },
        "dosage": [
          {
            "doseAndRate": [
              {
                "doseQuantity": {
                  "value": 400,
                  "unit": "microgram",
                  "code": "ug"
                }
              }
            ],
            "timing": {
              "repeat": {
                "frequency": 1,
                "period": 5,
                "periodUnit": "min"
              }
            },
            "text": "400 micrograms (1 spray) sublingually as needed for chest pain, may repeat every 5 minutes as needed, up to 3 sprays in 15 minutes",
            "asNeededBoolean": true
          }
        ],
        "text": {
          "status": "generated",
          "div": "<div xmlns=\"http://www.w3.org/1999/xhtml\"><table class=\"hl7__ips first25\"><tr><th>Medication</th><th>Since</th><th>Form</th><th>Dosage</th><th>Reason</th></tr><tr><td>Nitroglycerin 400 microgram/actuation sublingual spray</td><td><span class=\"nb\">1988-09-13</span></td><td>-</td><td>400 micrograms (1 spray) sublingually as needed for chest pain, may repeat every 5 minutes as needed, up to 3 sprays in 15 minutes</td><td>-</td></tr></table></div>"
        },
        "status": "active",
        "medicationReference": {
          "reference": "urn:uuid:69ad5a82-16c2-4724-b2cc-5de38f4470e0",
          "display": "Nitroglycerin 400 microgram/actuation sublingual spray"
        },
        "subject": {
          "reference": "urn:uuid:9e5a1ef9-5e87-4d4a-8bc3-e1b38c83f095",
          "display": "Urbano Cantón"
        }
      }
    },
    {
      "fullUrl": "urn:uuid:6e0365d2-e1d7-4163-bcd1-395b54a3db5b",
      "resource": {
        "resourceType": "Medication",
        "id": "6e0365d2-e1d7-4163-bcd1-395b54a3db5b",
        "meta": {
          "profile": [
            "http://hl7.eu/fhir/eps/StructureDefinition/Medication-eu-eps"
          ]
        },
        "code": {
          "coding": [
            {
              "code": "879980009",
              "system": "http://snomed.info/sct",
              "display": "Metoprolol tartrate (as metoprolol succinate) 100 mg prolonged-release oral tablet"
            }
          ],
          "text": "Metoprolol tartrate (as metoprolol succinate) 100 mg prolonged-release oral tablet"
        },
        "text": {
          "status": "generated",
          "div": "<div xmlns=\"http://www.w3.org/1999/xhtml\">Metoprolol tartrate (as metoprolol succinate) 100 mg prolonged-release oral tablet</div>"
        }
      }
    },
    {
      "fullUrl": "urn:uuid:dac9fa6f-b5e0-4798-9b9d-63d05ddcc43e",
      "resource": {
        "resourceType": "MedicationStatement",
        "id": "dac9fa6f-b5e0-4798-9b9d-63d05ddcc43e",
        "meta": {
          "profile": [
            "http://hl7.eu/fhir/eps/StructureDefinition/MedicationStatement-eu-eps"
          ]
        },
        "effectivePeriod": {
          "start": "1988-09-13"
        },
        "dosage": [
          {
            "doseAndRate": [
              {
                "doseQuantity": {
                  "value": 1,
                  "unit": "{tbl}",
                  "code": "{tbl}"
                }
              }
            ],
            "timing": {
              "repeat": {
                "frequency": 1,
                "period": 1,
                "periodUnit": "d"
              }
            },
            "text": "1 tablet (100 mg) once daily",
            "asNeededBoolean": false
          }
        ],
        "text": {
          "status": "generated",
          "div": "<div xmlns=\"http://www.w3.org/1999/xhtml\"><table class=\"hl7__ips first25\"><tr><th>Medication</th><th>Since</th><th>Form</th><th>Dosage</th><th>Reason</th></tr><tr><td>Metoprolol tartrate (as metoprolol succinate) 100 mg prolonged-release oral tablet</td><td><span class=\"nb\">1988-09-13</span></td><td>-</td><td>1 tablet (100 mg) once daily</td><td>-</td></tr></table></div>"
        },
        "status": "active",
        "medicationReference": {
          "reference": "urn:uuid:6e0365d2-e1d7-4163-bcd1-395b54a3db5b",
          "display": "Metoprolol tartrate (as metoprolol succinate) 100 mg prolonged-release oral tablet"
        },
        "subject": {
          "reference": "urn:uuid:9e5a1ef9-5e87-4d4a-8bc3-e1b38c83f095",
          "display": "Urbano Cantón"
        }
      }
    },
    {
      "fullUrl": "urn:uuid:77ff6eac-7de7-4299-a604-33daf20e99e3",
      "resource": {
        "resourceType": "Medication",
        "id": "77ff6eac-7de7-4299-a604-33daf20e99e3",
        "meta": {
          "profile": [
            "http://hl7.eu/fhir/eps/StructureDefinition/Medication-eu-eps"
          ]
        },
        "code": {
          "coding": [
            {
              "code": "2001499",
              "system": "http://www.nlm.nih.gov/research/umls/rxnorm",
              "display": "Vitamin B12 5 MG/ML Injectable Solution"
            }
          ],
          "text": "Vitamin B12 5 MG/ML Injectable Solution"
        },
        "text": {
          "status": "generated",
          "div": "<div xmlns=\"http://www.w3.org/1999/xhtml\">Vitamin B12 5 MG/ML Injectable Solution</div>"
        }
      }
    },
    {
      "fullUrl": "urn:uuid:edd65ed6-4a72-4651-97e6-0c723b58c422",
      "resource": {
        "resourceType": "MedicationStatement",
        "id": "edd65ed6-4a72-4651-97e6-0c723b58c422",
        "meta": {
          "profile": [
            "http://hl7.eu/fhir/eps/StructureDefinition/MedicationStatement-eu-eps"
          ]
        },
        "effectivePeriod": {
          "start": "1973-06-19"
        },
        "dosage": [
          {
            "doseAndRate": [
              {
                "doseQuantity": {
                  "value": 1,
                  "unit": "mL",
                  "system": "$ucum",
                  "code": "mL"
                }
              }
            ],
            "timing": {
              "repeat": {
                "frequency": 1,
                "period": 1,
                "periodUnit": "mo"
              }
            },
            "text": "1 mL (5 mg) intramuscularly once monthly",
            "asNeededBoolean": false
          }
        ],
        "text": {
          "status": "generated",
          "div": "<div xmlns=\"http://www.w3.org/1999/xhtml\"><table class=\"hl7__ips first25\"><tr><th>Medication</th><th>Since</th><th>Form</th><th>Dosage</th><th>Reason</th></tr><tr><td>Vitamin B12 5 MG/ML Injectable Solution</td><td><span class=\"nb\">1973-06-19</span></td><td>-</td><td>1 mL (5 mg) intramuscularly once monthly</td><td>-</td></tr></table></div>"
        },
        "status": "active",
        "medicationReference": {
          "reference": "urn:uuid:77ff6eac-7de7-4299-a604-33daf20e99e3",
          "display": "Vitamin B12 5 MG/ML Injectable Solution"
        },
        "subject": {
          "reference": "urn:uuid:9e5a1ef9-5e87-4d4a-8bc3-e1b38c83f095",
          "display": "Urbano Cantón"
        }
      }
    },
    {
      "fullUrl": "urn:uuid:dc754a7b-b67e-495a-a26d-1ae530c49dfb",
      "resource": {
        "resourceType": "Immunization",
        "id": "dc754a7b-b67e-495a-a26d-1ae530c49dfb",
        "meta": {
          "profile": [
            "http://hl7.org/fhir/uv/ips/StructureDefinition/Immunization-uv-ips"
          ]
        },
        "vaccineCode": {
          "coding": [
            {
              "code": "1181000221105",
              "system": "http://snomed.info/sct",
              "display": "Vaccine product containing Influenza virus antigen"
            },
            {
              "code": "J07BB02",
              "system": "http://www.whocc.no/atc",
              "display": "Influenza, inactivated, split virus"
            }
          ],
          "text": "Influenza virus antigen only vaccine product"
        },
        "site": {
          "coding": [
            {
              "code": "244979005",
              "system": "http://snomed.info/sct",
              "display": "Entire muscle of upper arm"
            }
          ],
          "text": "Entire muscle of upper arm"
        },
        "route": {
          "coding": [
            {
              "code": "78421000",
              "system": "http://snomed.info/sct",
              "display": "Intramuscular route"
            }
          ],
          "text": "Intramuscular route"
        },
        "text": {
          "status": "generated",
          "div": "<div xmlns=\"http://www.w3.org/1999/xhtml\"><table class=\"hl7__ips\"><tr><td>Influenza virus antigen only vaccine product</td><td><span class=\"nb\">08-Apr-2025</span></td></tr></table></div>"
        },
        "status": "completed",
        "patient": {
          "reference": "urn:uuid:9e5a1ef9-5e87-4d4a-8bc3-e1b38c83f095",
          "display": "Urbano Cantón"
        },
        "occurrenceDateTime": "2025-04-08",
        "lotNumber": "KO-57EFnw",
        "expirationDate": "2025-09-30"
      }
    },
    {
      "fullUrl": "urn:uuid:64710a98-2a3c-4005-9491-70067af39391",
      "resource": {
        "resourceType": "Immunization",
        "id": "64710a98-2a3c-4005-9491-70067af39391",
        "meta": {
          "profile": [
            "http://hl7.org/fhir/uv/ips/StructureDefinition/Immunization-uv-ips"
          ]
        },
        "vaccineCode": {
          "coding": [
            {
              "code": "777725002",
              "system": "http://snomed.info/sct",
              "display": "Vaccine product containing only Clostridium tetani toxoid antigen adsorbed"
            },
            {
              "code": "J07AM51",
              "system": "http://www.whocc.no/atc",
              "display": "Diphtheria-tetanus vaccines, adult type"
            }
          ],
          "text": "Clostridium tetani toxoid antigen adsorbed only vaccine product"
        },
        "site": {
          "coding": [
            {
              "code": "244979005",
              "system": "http://snomed.info/sct",
              "display": "Entire muscle of upper arm"
            }
          ],
          "text": "Entire muscle of upper arm"
        },
        "route": {
          "coding": [
            {
              "code": "78421000",
              "system": "http://snomed.info/sct",
              "display": "Intramuscular route"
            }
          ],
          "text": "Intramuscular route"
        },
        "text": {
          "status": "generated",
          "div": "<div xmlns=\"http://www.w3.org/1999/xhtml\"><table class=\"hl7__ips\"><tr><td>Clostridium tetani toxoid antigen adsorbed only vaccine product</td><td><span class=\"nb\">28-Mar-2023</span></td></tr></table></div>"
        },
        "status": "completed",
        "patient": {
          "reference": "urn:uuid:9e5a1ef9-5e87-4d4a-8bc3-e1b38c83f095",
          "display": "Urbano Cantón"
        },
        "occurrenceDateTime": "2023-03-28",
        "lotNumber": "IX-djnplaXjK",
        "expirationDate": "2023-08-14"
      }
    },
    {
      "fullUrl": "urn:uuid:c204de17-545f-4f06-8b3b-74f0ba6e14a9",
      "resource": {
        "resourceType": "Immunization",
        "id": "c204de17-545f-4f06-8b3b-74f0ba6e14a9",
        "meta": {
          "profile": [
            "http://hl7.org/fhir/uv/ips/StructureDefinition/Immunization-uv-ips"
          ]
        },
        "vaccineCode": {
          "coding": [
            {
              "code": "1119349007",
              "system": "http://snomed.info/sct",
              "display": "Vaccine product containing SARS-CoV-2 mRNA"
            },
            {
              "code": "J07BX03",
              "system": "http://www.whocc.no/atc",
              "display": "COVID-19 mRNA vaccines"
            }
          ],
          "text": "SARS-CoV-2 mRNA vaccine"
        },
        "site": {
          "coding": [
            {
              "code": "244979005",
              "system": "http://snomed.info/sct",
              "display": "Entire muscle of upper arm"
            }
          ],
          "text": "Entire muscle of upper arm"
        },
        "route": {
          "coding": [
            {
              "code": "78421000",
              "system": "http://snomed.info/sct",
              "display": "Intramuscular route"
            }
          ],
          "text": "Intramuscular route"
        },
        "text": {
          "status": "generated",
          "div": "<div xmlns=\"http://www.w3.org/1999/xhtml\"><table class=\"hl7__ips\"><tr><td>SARS-CoV-2 mRNA vaccine</td><td><span class=\"nb\">05-Oct-2021</span></td></tr></table></div>"
        },
        "status": "completed",
        "patient": {
          "reference": "urn:uuid:9e5a1ef9-5e87-4d4a-8bc3-e1b38c83f095",
          "display": "Urbano Cantón"
        },
        "occurrenceDateTime": "2021-10-05",
        "lotNumber": "QU-RASc",
        "expirationDate": "2022-06-02"
      }
    },
    {
      "fullUrl": "urn:uuid:9a2c7f6d-7c24-4c1f-9476-093614e62c7a",
      "resource": {
        "resourceType": "Procedure",
        "id": "9a2c7f6d-7c24-4c1f-9476-093614e62c7a",
        "meta": {
          "profile": [
            "http://hl7.org/fhir/uv/ips/StructureDefinition/Procedure-uv-ips"
          ]
        },
        "code": {
          "coding": [
            {
              "code": "171207006",
              "system": "http://snomed.info/sct",
              "display": "Depression screening (procedure)"
            }
          ],
          "text": "Depression screening"
        },
        "text": {
          "status": "generated",
          "div": "<div xmlns=\"http://www.w3.org/1999/xhtml\"><table class=\"hl7__ips\"><tr><td>Depression screening</td><td><span class=\"nb\">22-Sep-2020</span></td><td>-</td></tr></table></div>"
        },
        "status": "completed",
        "performedDateTime": "2020-09-22",
        "subject": {
          "reference": "urn:uuid:",
          "display": "Urbano Cantón"
        }
      }
    },
    {
      "fullUrl": "urn:uuid:df2b39f1-196c-4f27-9923-688758cad507",
      "resource": {
        "resourceType": "Procedure",
        "id": "df2b39f1-196c-4f27-9923-688758cad507",
        "meta": {
          "profile": [
            "http://hl7.org/fhir/uv/ips/StructureDefinition/Procedure-uv-ips"
          ]
        },
        "code": {
          "coding": [
            {
              "code": "430193006",
              "system": "http://snomed.info/sct",
              "display": "Medication Reconciliation (procedure)"
            }
          ],
          "text": "Medication reconciliation"
        },
        "text": {
          "status": "generated",
          "div": "<div xmlns=\"http://www.w3.org/1999/xhtml\"><table class=\"hl7__ips\"><tr><td>Medication reconciliation</td><td><span class=\"nb\">22-Sep-2020</span></td><td>-</td></tr></table></div>"
        },
        "status": "completed",
        "performedDateTime": "2020-09-22",
        "subject": {
          "reference": "urn:uuid:",
          "display": "Urbano Cantón"
        }
      }
    },
    {
      "fullUrl": "urn:uuid:c18b8ce7-1e3b-4180-8708-17c871a62194",
      "resource": {
        "resourceType": "Procedure",
        "id": "c18b8ce7-1e3b-4180-8708-17c871a62194",
        "meta": {
          "profile": [
            "http://hl7.org/fhir/uv/ips/StructureDefinition/Procedure-uv-ips"
          ]
        },
        "code": {
          "coding": [
            {
              "code": "710824005",
              "system": "http://snomed.info/sct",
              "display": "Assessment of health and social care needs (procedure)"
            }
          ],
          "text": "Assessment of health and social care needs"
        },
        "text": {
          "status": "generated",
          "div": "<div xmlns=\"http://www.w3.org/1999/xhtml\"><table class=\"hl7__ips\"><tr><td>Assessment of health and social care needs</td><td><span class=\"nb\">22-Sep-2020</span></td><td>-</td></tr></table></div>"
        },
        "status": "completed",
        "performedDateTime": "2020-09-22",
        "subject": {
          "reference": "urn:uuid:",
          "display": "Urbano Cantón"
        }
      }
    },
    {
      "fullUrl": "urn:uuid:81628388-97e7-430f-82dd-9de048f97243",
      "resource": {
        "resourceType": "Procedure",
        "id": "81628388-97e7-430f-82dd-9de048f97243",
        "meta": {
          "profile": [
            "http://hl7.org/fhir/uv/ips/StructureDefinition/Procedure-uv-ips"
          ]
        },
        "code": {
          "coding": [
            {
              "code": "454711000124102",
              "system": "http://snomed.info/sct",
              "display": "Depression screening using Patient Health Questionnaire Two-Item score (procedure)"
            }
          ]
        },
        "text": {
          "status": "generated",
          "div": "<div xmlns=\"http://www.w3.org/1999/xhtml\"><table class=\"hl7__ips\"><tr><td>Depression screening using Patient Health Questionnaire Two-Item score (procedure)</td><td><span class=\"nb\">22-Sep-2020</span></td><td>-</td></tr></table></div>"
        },
        "status": "completed",
        "performedDateTime": "2020-09-22",
        "subject": {
          "reference": "urn:uuid:",
          "display": "Urbano Cantón"
        }
      }
    },
    {
      "fullUrl": "urn:uuid:a42cd0b9-a117-449e-8fe0-d6e3707fb069",
      "resource": {
        "resourceType": "Procedure",
        "id": "a42cd0b9-a117-449e-8fe0-d6e3707fb069",
        "meta": {
          "profile": [
            "http://hl7.org/fhir/uv/ips/StructureDefinition/Procedure-uv-ips"
          ]
        },
        "code": {
          "coding": [
            {
              "code": "762993000",
              "system": "http://snomed.info/sct",
              "display": "Assessment using Morse Fall Scale (procedure)"
            }
          ],
          "text": "Assessment using Morse Fall Scale"
        },
        "text": {
          "status": "generated",
          "div": "<div xmlns=\"http://www.w3.org/1999/xhtml\"><table class=\"hl7__ips\"><tr><td>Assessment using Morse Fall Scale</td><td><span class=\"nb\">18-Aug-2020</span></td><td>-</td></tr></table></div>"
        },
        "status": "completed",
        "performedDateTime": "2020-08-18",
        "subject": {
          "reference": "urn:uuid:",
          "display": "Urbano Cantón"
        }
      }
    },
    {
      "fullUrl": "urn:uuid:c85f677b-5979-421d-9d7c-5f4465c54e00",
      "resource": {
        "resourceType": "Procedure",
        "id": "c85f677b-5979-421d-9d7c-5f4465c54e00",
        "meta": {
          "profile": [
            "http://hl7.org/fhir/uv/ips/StructureDefinition/Procedure-uv-ips"
          ]
        },
        "code": {
          "coding": [
            {
              "code": "60027007",
              "system": "http://snomed.info/sct",
              "display": "Radiography of wrist (procedure)"
            }
          ],
          "text": "Radiography of wrist"
        },
        "text": {
          "status": "generated",
          "div": "<div xmlns=\"http://www.w3.org/1999/xhtml\"><table class=\"hl7__ips\"><tr><td>Radiography of wrist</td><td><span class=\"nb\">03-Oct-2019</span></td><td>-</td></tr></table></div>"
        },
        "status": "completed",
        "performedDateTime": "2019-10-03",
        "subject": {
          "reference": "urn:uuid:",
          "display": "Urbano Cantón"
        }
      }
    },
    {
      "fullUrl": "urn:uuid:c69bb76e-f94d-4055-8043-b789e8b53281",
      "resource": {
        "resourceType": "Procedure",
        "id": "c69bb76e-f94d-4055-8043-b789e8b53281",
        "meta": {
          "profile": [
            "http://hl7.org/fhir/uv/ips/StructureDefinition/Procedure-uv-ips"
          ]
        },
        "code": {
          "coding": [
            {
              "code": "274474001",
              "system": "http://snomed.info/sct",
              "display": "Bone immobilization"
            }
          ],
          "text": "Bone immobilization"
        },
        "reasonCode": [
          {
            "coding": [
              {
                "code": "263102004",
                "system": "http://snomed.info/sct",
                "display": "Fracture subluxation of wrist"
              }
            ]
          }
        ],
        "text": {
          "status": "generated",
          "div": "<div xmlns=\"http://www.w3.org/1999/xhtml\"><table class=\"hl7__ips\"><tr><td>Bone immobilization</td><td><span class=\"nb\">03-Oct-2019</span></td><td>Fracture subluxation of wrist</td></tr></table></div>"
        },
        "status": "completed",
        "performedDateTime": "2019-10-03",
        "subject": {
          "reference": "urn:uuid:",
          "display": "Urbano Cantón"
        }
      }
    },
    {
      "fullUrl": "urn:uuid:fa267e55-c36a-490d-b6e5-ad3807801267",
      "resource": {
        "resourceType": "Procedure",
        "id": "fa267e55-c36a-490d-b6e5-ad3807801267",
        "meta": {
          "profile": [
            "http://hl7.org/fhir/uv/ips/StructureDefinition/Procedure-uv-ips"
          ]
        },
        "code": {
          "coding": [
            {
              "code": "312681000",
              "system": "http://snomed.info/sct",
              "display": "Bone density scan (procedure)"
            }
          ],
          "text": "Bone density scan"
        },
        "reasonCode": [
          {
            "coding": [
              {
                "code": "263102004",
                "system": "http://snomed.info/sct",
                "display": "Fracture subluxation of wrist"
              }
            ]
          }
        ],
        "text": {
          "status": "generated",
          "div": "<div xmlns=\"http://www.w3.org/1999/xhtml\"><table class=\"hl7__ips\"><tr><td>Bone density scan</td><td><span class=\"nb\">03-Oct-2019</span></td><td>Fracture subluxation of wrist</td></tr></table></div>"
        },
        "status": "completed",
        "performedDateTime": "2019-10-03",
        "subject": {
          "reference": "urn:uuid:",
          "display": "Urbano Cantón"
        }
      }
    },
    {
      "fullUrl": "urn:uuid:81058f98-1062-4859-b80a-cfba50f56baf",
      "resource": {
        "resourceType": "Procedure",
        "id": "81058f98-1062-4859-b80a-cfba50f56baf",
        "meta": {
          "profile": [
            "http://hl7.org/fhir/uv/ips/StructureDefinition/Procedure-uv-ips"
          ]
        },
        "code": {
          "coding": [
            {
              "code": "225386006",
              "system": "http://snomed.info/sct",
              "display": "Pre-discharge assessment (procedure)"
            }
          ],
          "text": "Pre-discharge assessment"
        },
        "text": {
          "status": "generated",
          "div": "<div xmlns=\"http://www.w3.org/1999/xhtml\"><table class=\"hl7__ips\"><tr><td>Pre-discharge assessment</td><td><span class=\"nb\">04-May-2017</span></td><td>-</td></tr></table></div>"
        },
        "status": "completed",
        "performedDateTime": "2017-05-04",
        "subject": {
          "reference": "urn:uuid:",
          "display": "Urbano Cantón"
        }
      }
    },
    {
      "fullUrl": "urn:uuid:121f776c-5a03-4223-a827-a2c7c4569307",
      "resource": {
        "resourceType": "Procedure",
        "id": "121f776c-5a03-4223-a827-a2c7c4569307",
        "meta": {
          "profile": [
            "http://hl7.org/fhir/uv/ips/StructureDefinition/Procedure-uv-ips"
          ]
        },
        "code": {
          "coding": [
            {
              "code": "449381000124108",
              "system": "http://snomed.info/sct",
              "display": "Discharge from skilled nursing facility (procedure)"
            }
          ]
        },
        "text": {
          "status": "generated",
          "div": "<div xmlns=\"http://www.w3.org/1999/xhtml\"><table class=\"hl7__ips\"><tr><td>Discharge from skilled nursing facility (procedure)</td><td><span class=\"nb\">04-May-2017</span></td><td>-</td></tr></table></div>"
        },
        "status": "completed",
        "performedDateTime": "2017-05-04",
        "subject": {
          "reference": "urn:uuid:",
          "display": "Urbano Cantón"
        }
      }
    },
    {
      "fullUrl": "urn:uuid:b76c5018-0635-4440-aebd-aa0b68a3fec0",
      "resource": {
        "resourceType": "Procedure",
        "id": "b76c5018-0635-4440-aebd-aa0b68a3fec0",
        "meta": {
          "profile": [
            "http://hl7.org/fhir/uv/ips/StructureDefinition/Procedure-uv-ips"
          ]
        },
        "code": {
          "coding": [
            {
              "code": "410401003",
              "system": "http://snomed.info/sct",
              "display": "Nursing care/supplementary surveillance (regime/therapy)"
            }
          ],
          "text": "Nursing care/supplementary surveillance"
        },
        "text": {
          "status": "generated",
          "div": "<div xmlns=\"http://www.w3.org/1999/xhtml\"><table class=\"hl7__ips\"><tr><td>Nursing care/supplementary surveillance</td><td><span class=\"nb\">03-May-2017</span></td><td>-</td></tr></table></div>"
        },
        "status": "completed",
        "performedDateTime": "2017-05-03",
        "subject": {
          "reference": "urn:uuid:",
          "display": "Urbano Cantón"
        }
      }
    },
    {
      "fullUrl": "urn:uuid:fafdc028-fea7-449f-bf2c-f51b19f06ee1",
      "resource": {
        "resourceType": "Procedure",
        "id": "fafdc028-fea7-449f-bf2c-f51b19f06ee1",
        "meta": {
          "profile": [
            "http://hl7.org/fhir/uv/ips/StructureDefinition/Procedure-uv-ips"
          ]
        },
        "code": {
          "coding": [
            {
              "code": "91251008",
              "system": "http://snomed.info/sct",
              "display": "Physical therapy procedure (regime/therapy)"
            }
          ],
          "text": "Physical therapy procedure"
        },
        "text": {
          "status": "generated",
          "div": "<div xmlns=\"http://www.w3.org/1999/xhtml\"><table class=\"hl7__ips\"><tr><td>Physical therapy procedure</td><td><span class=\"nb\">01-May-2017</span></td><td>-</td></tr></table></div>"
        },
        "status": "completed",
        "performedDateTime": "2017-05-01",
        "subject": {
          "reference": "urn:uuid:",
          "display": "Urbano Cantón"
        }
      }
    },
    {
      "fullUrl": "urn:uuid:4ae635d7-56ab-4afc-8bd4-9cbc3eed7e60",
      "resource": {
        "resourceType": "Procedure",
        "id": "4ae635d7-56ab-4afc-8bd4-9cbc3eed7e60",
        "meta": {
          "profile": [
            "http://hl7.org/fhir/uv/ips/StructureDefinition/Procedure-uv-ips"
          ]
        },
        "code": {
          "coding": [
            {
              "code": "311555007",
              "system": "http://snomed.info/sct",
              "display": "Speech and language therapy regime (regime/therapy)"
            }
          ],
          "text": "Speech and language therapy regime"
        },
        "text": {
          "status": "generated",
          "div": "<div xmlns=\"http://www.w3.org/1999/xhtml\"><table class=\"hl7__ips\"><tr><td>Speech and language therapy regime</td><td><span class=\"nb\">28-Apr-2017</span></td><td>-</td></tr></table></div>"
        },
        "status": "completed",
        "performedDateTime": "2017-04-28",
        "subject": {
          "reference": "urn:uuid:",
          "display": "Urbano Cantón"
        }
      }
    },
    {
      "fullUrl": "urn:uuid:69a4fcc3-ecbe-4227-853c-b80b2bf03dc9",
      "resource": {
        "resourceType": "Procedure",
        "id": "69a4fcc3-ecbe-4227-853c-b80b2bf03dc9",
        "meta": {
          "profile": [
            "http://hl7.org/fhir/uv/ips/StructureDefinition/Procedure-uv-ips"
          ]
        },
        "code": {
          "coding": [
            {
              "code": "409023009",
              "system": "http://snomed.info/sct",
              "display": "Professional / ancillary services care (regime/therapy)"
            }
          ],
          "text": "Professional / ancillary services care"
        },
        "text": {
          "status": "generated",
          "div": "<div xmlns=\"http://www.w3.org/1999/xhtml\"><table class=\"hl7__ips\"><tr><td>Professional / ancillary services care</td><td><span class=\"nb\">28-Apr-2017</span></td><td>-</td></tr></table></div>"
        },
        "status": "completed",
        "performedDateTime": "2017-04-28",
        "subject": {
          "reference": "urn:uuid:",
          "display": "Urbano Cantón"
        }
      }
    },
    {
      "fullUrl": "urn:uuid:b0263220-ada4-43ca-94d5-623e2770d8da",
      "resource": {
        "resourceType": "Procedure",
        "id": "b0263220-ada4-43ca-94d5-623e2770d8da",
        "meta": {
          "profile": [
            "http://hl7.org/fhir/uv/ips/StructureDefinition/Procedure-uv-ips"
          ]
        },
        "code": {
          "coding": [
            {
              "code": "84478008",
              "system": "http://snomed.info/sct",
              "display": "Occupational therapy (regime/therapy)"
            }
          ],
          "text": "Occupational therapy"
        },
        "text": {
          "status": "generated",
          "div": "<div xmlns=\"http://www.w3.org/1999/xhtml\"><table class=\"hl7__ips\"><tr><td>Occupational therapy</td><td><span class=\"nb\">16-Apr-2017</span></td><td>-</td></tr></table></div>"
        },
        "status": "completed",
        "performedDateTime": "2017-04-16",
        "subject": {
          "reference": "urn:uuid:",
          "display": "Urbano Cantón"
        }
      }
    },
    {
      "fullUrl": "urn:uuid:0356d505-f13c-416c-9e91-0175cb331eb6",
      "resource": {
        "resourceType": "Procedure",
        "id": "0356d505-f13c-416c-9e91-0175cb331eb6",
        "meta": {
          "profile": [
            "http://hl7.org/fhir/uv/ips/StructureDefinition/Procedure-uv-ips"
          ]
        },
        "code": {
          "coding": [
            {
              "code": "63332003",
              "system": "http://snomed.info/sct",
              "display": "History AND physical examination (procedure)"
            }
          ],
          "text": "History AND physical examination"
        },
        "text": {
          "status": "generated",
          "div": "<div xmlns=\"http://www.w3.org/1999/xhtml\"><table class=\"hl7__ips\"><tr><td>History AND physical examination</td><td><span class=\"nb\">28-Mar-2017</span></td><td>-</td></tr></table></div>"
        },
        "status": "completed",
        "performedDateTime": "2017-03-28",
        "subject": {
          "reference": "urn:uuid:",
          "display": "Urbano Cantón"
        }
      }
    },
    {
      "fullUrl": "urn:uuid:893eee77-9c42-4e5d-953e-5963405d081b",
      "resource": {
        "resourceType": "Procedure",
        "id": "893eee77-9c42-4e5d-953e-5963405d081b",
        "meta": {
          "profile": [
            "http://hl7.org/fhir/uv/ips/StructureDefinition/Procedure-uv-ips"
          ]
        },
        "code": {
          "coding": [
            {
              "code": "315639002",
              "system": "http://snomed.info/sct",
              "display": "Initial patient assessment (procedure)"
            }
          ],
          "text": "Initial patient assessment"
        },
        "text": {
          "status": "generated",
          "div": "<div xmlns=\"http://www.w3.org/1999/xhtml\"><table class=\"hl7__ips\"><tr><td>Initial patient assessment</td><td><span class=\"nb\">28-Mar-2017</span></td><td>-</td></tr></table></div>"
        },
        "status": "completed",
        "performedDateTime": "2017-03-28",
        "subject": {
          "reference": "urn:uuid:",
          "display": "Urbano Cantón"
        }
      }
    },
    {
      "fullUrl": "urn:uuid:f224c732-2962-4a68-8abd-31874537587f",
      "resource": {
        "resourceType": "Procedure",
        "id": "f224c732-2962-4a68-8abd-31874537587f",
        "meta": {
          "profile": [
            "http://hl7.org/fhir/uv/ips/StructureDefinition/Procedure-uv-ips"
          ]
        },
        "code": {
          "coding": [
            {
              "code": "370789001",
              "system": "http://snomed.info/sct",
              "display": "Development of individualized plan of care (procedure)"
            }
          ],
          "text": "Development of individualized plan of care"
        },
        "text": {
          "status": "generated",
          "div": "<div xmlns=\"http://www.w3.org/1999/xhtml\"><table class=\"hl7__ips\"><tr><td>Development of individualized plan of care</td><td><span class=\"nb\">28-Mar-2017</span></td><td>-</td></tr></table></div>"
        },
        "status": "completed",
        "performedDateTime": "2017-03-28",
        "subject": {
          "reference": "urn:uuid:",
          "display": "Urbano Cantón"
        }
      }
    },
    {
      "fullUrl": "urn:uuid:72609e80-751e-4f00-b672-f8eda2877908",
      "resource": {
        "resourceType": "Procedure",
        "id": "72609e80-751e-4f00-b672-f8eda2877908",
        "meta": {
          "profile": [
            "http://hl7.org/fhir/uv/ips/StructureDefinition/Procedure-uv-ips"
          ]
        },
        "code": {
          "coding": [
            {
              "code": "866148006",
              "system": "http://snomed.info/sct",
              "display": "Screening for domestic abuse (procedure)"
            }
          ],
          "text": "Screening for domestic abuse"
        },
        "text": {
          "status": "generated",
          "div": "<div xmlns=\"http://www.w3.org/1999/xhtml\"><table class=\"hl7__ips\"><tr><td>Screening for domestic abuse</td><td><span class=\"nb\">07-Jun-2016</span></td><td>-</td></tr></table></div>"
        },
        "status": "completed",
        "performedDateTime": "2016-06-07",
        "subject": {
          "reference": "urn:uuid:",
          "display": "Urbano Cantón"
        }
      }
    },
    {
      "fullUrl": "urn:uuid:f52ed969-3688-4795-9d66-5cf0097fb706",
      "resource": {
        "resourceType": "AllergyIntolerance",
        "id": "f52ed969-3688-4795-9d66-5cf0097fb706",
        "meta": {
          "profile": [
            "http://hl7.eu/fhir/eps/StructureDefinition/allergyIntolerance-eu-eps"
          ]
        },
        "code": {
          "text": ""
        },
        "clinicalStatus": {
          "coding": [
            {
              "code": "active",
              "system": "http://terminology.hl7.org/CodeSystem/allergyintolerance-clinical"
            }
          ]
        },
        "text": {
          "status": "generated",
          "div": "<div xmlns=\"http://www.w3.org/1999/xhtml\"><table class=\"hl7__ips\"><tr><th>Allergy/Intolerance</th><th>Onset Date</th><th>Status</th><th>Type</th><th>Reaction</th></tr><tr><td></td><td>?</td><td>active</td><td>?</td><td></td></tr></table></div>"
        },
        "verificationStatus": {
          "coding": [
            {
              "code": "confirmed",
              "system": "http://terminology.hl7.org/CodeSystem/allergyintolerance-verification"
            }
          ]
        },
        "patient": {
          "reference": "urn:uuid:9e5a1ef9-5e87-4d4a-8bc3-e1b38c83f095",
          "display": "Urbano Cantón"
        },
        "_onsetDateTime": {
          "extension": [
            {
              "url": "http://hl7.org/fhir/StructureDefinition/data-absent-reason",
              "valueCode": "unknown"
            }
          ]
        }
      }
    },
    {
      "fullUrl": "urn:uuid:16c4e009-b8b5-476d-ba42-cabd9cd8de39",
      "resource": {
        "resourceType": "CarePlan",
        "id": "16c4e009-b8b5-476d-ba42-cabd9cd8de39",
        "category": [
          {
            "coding": [
              {
                "code": "assess-plan",
                "system": "http://terminology.hl7.org/CodeSystem/care-plan-category",
                "display": "Assessment and Plan"
              }
            ]
          }
        ],
        "activity": [
          {
            "detail": {
              "code": {
                "coding": [
                  {
                    "code": "736285004",
                    "system": "http://snomed.info/sct",
                    "display": "Hyperlipidemia clinical management plan (record artifact)"
                  }
                ]
              },
              "reasonCode": [
                {
                  "coding": [
                    {
                      "code": "55822004",
                      "system": "http://snomed.info/sct",
                      "display": "Hyperlipidemia"
                    }
                  ]
                }
              ],
              "status": "unknown",
              "description": "Hyperlipidemia clinical management plan",
              "kind": "Appointment"
            }
          }
        ],
        "period": {
          "start": "2022-04-12"
        },
        "goal": [
          {
            "reference": "urn:uuid:7a2addde-34d4-4302-9839-5de4a616c113"
          },
          {
            "reference": "urn:uuid:adb35cfa-3288-4f11-a018-a2c6aeb016cf"
          },
          {
            "reference": "urn:uuid:a179aa0d-2219-404a-91f0-016b36f7bfce"
          },
          {
            "reference": "urn:uuid:f87d93fa-15e4-423c-942a-9286a83d6a13"
          }
        ],
        "text": {
          "status": "generated",
          "div": "<div xmlns=\"http://www.w3.org/1999/xhtml\"><table class=\"hl7__ips first25\"><tr><th>Active Planned Care / Goals</th><th>Start Date</th><th>Reason</th></tr><tr><td>Hyperlipidemia clinical management plan</td><td><span class=\"nb\">12-Apr-2022</span></td><td>Hyperlipidemia</td></tr><tr><td><ul><li>Achieve and maintain LDL cholesterol below 1.8 mmol/L to reduce cardiovascular risk.</li><li>Achieve and maintain total cholesterol below 4.0 mmol/L.</li><li>Achieve and maintain fasting triglycerides below 1.7 mmol/L.</li><li>Maintain HDL cholesterol above 1.0 mmol/L.</li></ul></td><td></td><td></td></tr></table></div>"
        },
        "status": "active",
        "intent": "plan",
        "subject": {
          "reference": "urn:uuid:9e5a1ef9-5e87-4d4a-8bc3-e1b38c83f095",
          "display": "Urbano Cantón"
        }
      }
    },
    {
      "fullUrl": "urn:uuid:67371e33-098c-4f03-9d79-5709d13f0bc8",
      "resource": {
        "resourceType": "CarePlan",
        "id": "67371e33-098c-4f03-9d79-5709d13f0bc8",
        "category": [
          {
            "coding": [
              {
                "code": "assess-plan",
                "system": "http://terminology.hl7.org/CodeSystem/care-plan-category",
                "display": "Assessment and Plan"
              }
            ]
          }
        ],
        "activity": [
          {
            "detail": {
              "code": {
                "coding": [
                  {
                    "code": "734163000",
                    "system": "http://snomed.info/sct",
                    "display": "Care plan (record artifact)"
                  }
                ]
              },
              "status": "unknown",
              "description": "Care plan",
              "kind": "Appointment"
            }
          }
        ],
        "period": {
          "start": "1992-11-14"
        },
        "text": {
          "status": "generated",
          "div": "<div xmlns=\"http://www.w3.org/1999/xhtml\"><table class=\"hl7__ips first25\"><tr><th>Active Planned Care / Goals</th><th>Start Date</th><th>Reason</th></tr><tr><td>Care plan</td><td><span class=\"nb\">14-Nov-1992</span></td><td>-</td></tr></table></div>"
        },
        "status": "active",
        "intent": "plan",
        "subject": {
          "reference": "urn:uuid:9e5a1ef9-5e87-4d4a-8bc3-e1b38c83f095",
          "display": "Urbano Cantón"
        }
      }
    },
    {
      "fullUrl": "urn:uuid:247e2cbe-25fa-4926-a053-da6612d3b5fe",
      "resource": {
        "resourceType": "CarePlan",
        "id": "247e2cbe-25fa-4926-a053-da6612d3b5fe",
        "category": [
          {
            "coding": [
              {
                "code": "assess-plan",
                "system": "http://terminology.hl7.org/CodeSystem/care-plan-category",
                "display": "Assessment and Plan"
              }
            ]
          }
        ],
        "activity": [
          {
            "detail": {
              "code": {
                "coding": [
                  {
                    "code": "443402002",
                    "system": "http://snomed.info/sct",
                    "display": "Lifestyle education regarding hypertension (procedure)"
                  }
                ]
              },
              "reasonCode": [
                {
                  "coding": [
                    {
                      "code": "59621000",
                      "system": "http://snomed.info/sct",
                      "display": "Essential hypertension (disorder)"
                    }
                  ]
                }
              ],
              "status": "unknown",
              "description": "Lifestyle education regarding hypertension",
              "kind": "Appointment"
            }
          }
        ],
        "period": {
          "start": "1973-06-12"
        },
        "goal": [
          {
            "reference": "urn:uuid:dd8d67c7-af64-447c-96a7-e53a5c35e84b"
          },
          {
            "reference": "urn:uuid:2530e0c8-7749-4090-a954-61f2eb6c03b1"
          }
        ],
        "text": {
          "status": "generated",
          "div": "<div xmlns=\"http://www.w3.org/1999/xhtml\"><table class=\"hl7__ips first25\"><tr><th>Active Planned Care / Goals</th><th>Start Date</th><th>Reason</th></tr><tr><td>Lifestyle education regarding hypertension</td><td><span class=\"nb\">12-Jun-1973</span></td><td>Essential hypertension (disorder)</td></tr><tr><td><ul><li>Patient will receive education on lifestyle modifications to help control blood pressure, including diet, exercise, and medication adherence.</li><li>Maintain blood pressure below 130/80 mmHg</li></ul></td><td></td><td></td></tr></table></div>"
        },
        "status": "active",
        "intent": "plan",
        "subject": {
          "reference": "urn:uuid:9e5a1ef9-5e87-4d4a-8bc3-e1b38c83f095",
          "display": "Urbano Cantón"
        }
      }
    },
    {
      "fullUrl": "urn:uuid:53021f1b-6a4a-452d-aea9-f49bc7e3de54",
      "resource": {
        "resourceType": "CarePlan",
        "id": "53021f1b-6a4a-452d-aea9-f49bc7e3de54",
        "category": [
          {
            "coding": [
              {
                "code": "assess-plan",
                "system": "http://terminology.hl7.org/CodeSystem/care-plan-category",
                "display": "Assessment and Plan"
              }
            ]
          }
        ],
        "activity": [
          {
            "detail": {
              "code": {
                "coding": [
                  {
                    "code": "698360004",
                    "system": "http://snomed.info/sct",
                    "display": "Diabetes self management plan (qualifier value)"
                  }
                ]
              },
              "reasonCode": [
                {
                  "coding": [
                    {
                      "code": "44054006",
                      "system": "http://snomed.info/sct",
                      "display": "Diabetes mellitus type 2 (disorder)"
                    }
                  ]
                }
              ],
              "status": "unknown",
              "description": "Diabetes self management plan",
              "kind": "Appointment"
            }
          }
        ],
        "period": {
          "start": "1973-06-12"
        },
        "goal": [
          {
            "reference": "urn:uuid:8aeddbce-0973-460a-958f-897780b71d2c"
          },
          {
            "reference": "urn:uuid:a43f17be-0b89-4e18-9cf6-9af6c0acb682"
          },
          {
            "reference": "urn:uuid:2ed81fb2-5fd4-4a94-81e0-a7aab83bf276"
          },
          {
            "reference": "urn:uuid:dadd48fe-4315-41a0-8b7b-536dde33c239"
          },
          {
            "reference": "urn:uuid:d8fd61be-66be-4883-a9d4-23e844eebf55"
          }
        ],
        "text": {
          "status": "generated",
          "div": "<div xmlns=\"http://www.w3.org/1999/xhtml\"><table class=\"hl7__ips first25\"><tr><th>Active Planned Care / Goals</th><th>Start Date</th><th>Reason</th></tr><tr><td>Diabetes self management plan</td><td><span class=\"nb\">12-Jun-1973</span></td><td>Diabetes mellitus type 2 (disorder)</td></tr><tr><td><ul><li>Patient will demonstrate understanding of diabetes self-management principles including medication adherence, blood glucose monitoring, diet, and physical activity.</li><li>Achieve and maintain target hemoglobin A1c level as recommended for older adults with comorbidities.</li><li>Maintain fasting blood glucose within individualized target range.</li><li>Maintain blood pressure within individualized target range to reduce cardiovascular risk.</li><li>Achieve and maintain LDL cholesterol at target level to reduce cardiovascular risk.</li></ul></td><td></td><td></td></tr></table></div>"
        },
        "status": "active",
        "intent": "plan",
        "subject": {
          "reference": "urn:uuid:9e5a1ef9-5e87-4d4a-8bc3-e1b38c83f095",
          "display": "Urbano Cantón"
        }
      }
    },
    {
      "fullUrl": "urn:uuid:4fe385b4-7652-46dc-a7d2-20c41263733d",
      "resource": {
        "resourceType": "ImmunizationRecommendation",
        "id": "4fe385b4-7652-46dc-a7d2-20c41263733d",
        "recommendation": [
          {
            "vaccineCode": [
              {
                "coding": [
                  {
                    "code": "1181000221105",
                    "system": "http://snomed.info/sct",
                    "display": "Vaccine product containing only Influenza virus antigen (medicinal product)"
                  }
                ]
              }
            ],
            "dateCriterion": [
              {
                "code": {
                  "coding": [
                    {
                      "code": "30980-7",
                      "system": "http://loinc.org",
                      "display": "Date vaccine due"
                    }
                  ]
                },
                "value": "2025-10-01"
              }
            ],
            "targetDisease": {
              "coding": [
                {
                  "code": "6142004",
                  "system": "http://snomed.info/sct",
                  "display": "Influenza (disorder)"
                }
              ]
            },
            "series": "Annual seasonal influenza vaccination",
            "forecastStatus": {
              "coding": [
                {
                  "code": "due",
                  "system": "http://terminology.hl7.org/CodeSystem/immunization-recommendation-status",
                  "display": "Due"
                }
              ]
            }
          }
        ],
        "text": {
          "status": "generated",
          "div": "<div xmlns=\"http://www.w3.org/1999/xhtml\"><table class=\"hl7__ips\"><tr><td>Vaccine product containing only Influenza virus antigen (medicinal product)</td><td><span class=\"nb\">01-Oct-2025</span></td><td>Annual seasonal influenza vaccination</td></tr></table></div>"
        },
        "date": "2025-10-22",
        "patient": {
          "reference": "urn:uuid:9e5a1ef9-5e87-4d4a-8bc3-e1b38c83f095",
          "display": "Urbano Cantón"
        }
      }
    },
    {
      "fullUrl": "urn:uuid:12dc8bf7-e942-4d99-aece-ad1af124afd0",
      "resource": {
        "resourceType": "Observation",
        "id": "12dc8bf7-e942-4d99-aece-ad1af124afd0",
        "meta": {
          "profile": [
            "http://hl7.org/fhir/StructureDefinition/vitalsigns"
          ]
        },
        "category": [
          {
            "coding": [
              {
                "system": "http://terminology.hl7.org/CodeSystem/observation-category",
                "code": "vital-signs",
                "display": "Vital Signs"
              }
            ]
          }
        ],
        "valueQuantity": {
          "value": 164.3,
          "code": "cm",
          "unit": "cm"
        },
        "text": {
          "status": "generated",
          "div": "<div xmlns=\"http://www.w3.org/1999/xhtml\"><table class=\"hl7__ips\"><tr><th>Vital Sign</th><th>Date</th><th>Measurement</th></tr><tr><td>Body Height</td><td>08-Apr-2025</td><td>164.3 cm</td></tr></table></div>"
        },
        "status": "final",
        "code": {
          "coding": [
            {
              "code": "$8302-2",
              "system": "http://loinc.org",
              "display": "Body Height"
            }
          ]
        },
        "subject": {
          "reference": "urn:uuid:9e5a1ef9-5e87-4d4a-8bc3-e1b38c83f095",
          "display": "Urbano Cantón"
        },
        "effectiveDateTime": "2025-04-08"
      }
    },
    {
      "fullUrl": "urn:uuid:0eee0596-876e-4de5-a633-e03e2821c10f",
      "resource": {
        "resourceType": "Observation",
        "id": "0eee0596-876e-4de5-a633-e03e2821c10f",
        "meta": {
          "profile": [
            "http://hl7.org/fhir/StructureDefinition/vitalsigns"
          ]
        },
        "category": [
          {
            "coding": [
              {
                "system": "http://terminology.hl7.org/CodeSystem/observation-category",
                "code": "vital-signs",
                "display": "Vital Signs"
              }
            ]
          }
        ],
        "valueQuantity": {
          "value": 1,
          "code": "{score}",
          "unit": "{score}"
        },
        "text": {
          "status": "generated",
          "div": "<div xmlns=\"http://www.w3.org/1999/xhtml\"><table class=\"hl7__ips\"><tr><th>Vital Sign</th><th>Date</th><th>Measurement</th></tr><tr><td>Pain severity - 0-10 verbal numeric rating [Score] - Reported</td><td>08-Apr-2025</td><td>1 {score}</td></tr></table></div>"
        },
        "status": "final",
        "code": {
          "coding": [
            {
              "code": "$72514-3",
              "system": "http://loinc.org",
              "display": "Pain severity - 0-10 verbal numeric rating [Score] - Reported"
            }
          ]
        },
        "subject": {
          "reference": "urn:uuid:9e5a1ef9-5e87-4d4a-8bc3-e1b38c83f095",
          "display": "Urbano Cantón"
        },
        "effectiveDateTime": "2025-04-08"
      }
    },
    {
      "fullUrl": "urn:uuid:cadb951a-bcbc-46a7-8512-6b0caadc17a6",
      "resource": {
        "resourceType": "Observation",
        "id": "cadb951a-bcbc-46a7-8512-6b0caadc17a6",
        "meta": {
          "profile": [
            "http://hl7.org/fhir/StructureDefinition/vitalsigns"
          ]
        },
        "category": [
          {
            "coding": [
              {
                "system": "http://terminology.hl7.org/CodeSystem/observation-category",
                "code": "vital-signs",
                "display": "Vital Signs"
              }
            ]
          }
        ],
        "valueQuantity": {
          "value": 74.8,
          "code": "kg",
          "unit": "kg"
        },
        "text": {
          "status": "generated",
          "div": "<div xmlns=\"http://www.w3.org/1999/xhtml\"><table class=\"hl7__ips\"><tr><th>Vital Sign</th><th>Date</th><th>Measurement</th></tr><tr><td>Body Weight</td><td>08-Apr-2025</td><td>74.8 kg</td></tr></table></div>"
        },
        "status": "final",
        "code": {
          "coding": [
            {
              "code": "$29463-7",
              "system": "http://loinc.org",
              "display": "Body Weight"
            }
          ]
        },
        "subject": {
          "reference": "urn:uuid:9e5a1ef9-5e87-4d4a-8bc3-e1b38c83f095",
          "display": "Urbano Cantón"
        },
        "effectiveDateTime": "2025-04-08"
      }
    },
    {
      "fullUrl": "urn:uuid:350897a3-11c4-402e-be73-5c7f220d8cb6",
      "resource": {
        "resourceType": "Observation",
        "id": "350897a3-11c4-402e-be73-5c7f220d8cb6",
        "meta": {
          "profile": [
            "http://hl7.org/fhir/StructureDefinition/vitalsigns"
          ]
        },
        "category": [
          {
            "coding": [
              {
                "system": "http://terminology.hl7.org/CodeSystem/observation-category",
                "code": "vital-signs",
                "display": "Vital Signs"
              }
            ]
          }
        ],
        "valueQuantity": {
          "value": 27.7,
          "code": "kg/m2",
          "unit": "kg/m2"
        },
        "text": {
          "status": "generated",
          "div": "<div xmlns=\"http://www.w3.org/1999/xhtml\"><table class=\"hl7__ips\"><tr><th>Vital Sign</th><th>Date</th><th>Measurement</th></tr><tr><td>Body mass index (BMI) [Ratio]</td><td>08-Apr-2025</td><td>27.7 kg/m2</td></tr></table></div>"
        },
        "status": "final",
        "code": {
          "coding": [
            {
              "code": "$39156-5",
              "system": "http://loinc.org",
              "display": "Body mass index (BMI) [Ratio]"
            }
          ]
        },
        "subject": {
          "reference": "urn:uuid:9e5a1ef9-5e87-4d4a-8bc3-e1b38c83f095",
          "display": "Urbano Cantón"
        },
        "effectiveDateTime": "2025-04-08"
      }
    },
    {
      "fullUrl": "urn:uuid:3dc28632-6c41-48be-8528-a670f8646c02",
      "resource": {
        "resourceType": "Observation",
        "id": "3dc28632-6c41-48be-8528-a670f8646c02",
        "meta": {
          "profile": [
            "http://hl7.org/fhir/StructureDefinition/vitalsigns"
          ]
        },
        "category": [
          {
            "coding": [
              {
                "system": "http://terminology.hl7.org/CodeSystem/observation-category",
                "code": "vital-signs",
                "display": "Vital Signs"
              }
            ]
          }
        ],
        "valueQuantity": {
          "value": 83,
          "code": "mm[Hg]",
          "unit": "mm[Hg]"
        },
        "text": {
          "status": "generated",
          "div": "<div xmlns=\"http://www.w3.org/1999/xhtml\"><table class=\"hl7__ips\"><tr><th>Vital Sign</th><th>Date</th><th>Measurement</th></tr><tr><td>Diastolic Blood Pressure</td><td>08-Apr-2025</td><td>83 mm[Hg]</td></tr></table></div>"
        },
        "status": "final",
        "code": {
          "coding": [
            {
              "code": "$8462-4",
              "system": "http://loinc.org",
              "display": "Diastolic Blood Pressure"
            }
          ]
        },
        "subject": {
          "reference": "urn:uuid:9e5a1ef9-5e87-4d4a-8bc3-e1b38c83f095",
          "display": "Urbano Cantón"
        },
        "effectiveDateTime": "2025-04-08"
      }
    },
    {
      "fullUrl": "urn:uuid:5daff2cd-89ed-4743-a6f3-2b2f11623cea",
      "resource": {
        "resourceType": "Observation",
        "id": "5daff2cd-89ed-4743-a6f3-2b2f11623cea",
        "meta": {
          "profile": [
            "http://hl7.org/fhir/StructureDefinition/vitalsigns"
          ]
        },
        "category": [
          {
            "coding": [
              {
                "system": "http://terminology.hl7.org/CodeSystem/observation-category",
                "code": "vital-signs",
                "display": "Vital Signs"
              }
            ]
          }
        ],
        "valueQuantity": {
          "value": 109,
          "code": "mm[Hg]",
          "unit": "mm[Hg]"
        },
        "text": {
          "status": "generated",
          "div": "<div xmlns=\"http://www.w3.org/1999/xhtml\"><table class=\"hl7__ips\"><tr><th>Vital Sign</th><th>Date</th><th>Measurement</th></tr><tr><td>Systolic Blood Pressure</td><td>08-Apr-2025</td><td>109 mm[Hg]</td></tr></table></div>"
        },
        "status": "final",
        "code": {
          "coding": [
            {
              "code": "$8480-6",
              "system": "http://loinc.org",
              "display": "Systolic Blood Pressure"
            }
          ]
        },
        "subject": {
          "reference": "urn:uuid:9e5a1ef9-5e87-4d4a-8bc3-e1b38c83f095",
          "display": "Urbano Cantón"
        },
        "effectiveDateTime": "2025-04-08"
      }
    },
    {
      "fullUrl": "urn:uuid:5a209e2d-f3d5-4ef8-894a-f7df0055b710",
      "resource": {
        "resourceType": "Observation",
        "id": "5a209e2d-f3d5-4ef8-894a-f7df0055b710",
        "meta": {
          "profile": [
            "http://hl7.org/fhir/StructureDefinition/vitalsigns"
          ]
        },
        "category": [
          {
            "coding": [
              {
                "system": "http://terminology.hl7.org/CodeSystem/observation-category",
                "code": "vital-signs",
                "display": "Vital Signs"
              }
            ]
          }
        ],
        "valueQuantity": {
          "value": 88,
          "code": "/min",
          "unit": "/min"
        },
        "text": {
          "status": "generated",
          "div": "<div xmlns=\"http://www.w3.org/1999/xhtml\"><table class=\"hl7__ips\"><tr><th>Vital Sign</th><th>Date</th><th>Measurement</th></tr><tr><td>Heart rate</td><td>08-Apr-2025</td><td>88 /min</td></tr></table></div>"
        },
        "status": "final",
        "code": {
          "coding": [
            {
              "code": "$8867-4",
              "system": "http://loinc.org",
              "display": "Heart rate"
            }
          ]
        },
        "subject": {
          "reference": "urn:uuid:9e5a1ef9-5e87-4d4a-8bc3-e1b38c83f095",
          "display": "Urbano Cantón"
        },
        "effectiveDateTime": "2025-04-08"
      }
    },
    {
      "fullUrl": "urn:uuid:7df645a8-328c-4171-b6aa-d9605d0a5c02",
      "resource": {
        "resourceType": "Observation",
        "id": "7df645a8-328c-4171-b6aa-d9605d0a5c02",
        "meta": {
          "profile": [
            "http://hl7.org/fhir/StructureDefinition/vitalsigns"
          ]
        },
        "category": [
          {
            "coding": [
              {
                "system": "http://terminology.hl7.org/CodeSystem/observation-category",
                "code": "vital-signs",
                "display": "Vital Signs"
              }
            ]
          }
        ],
        "valueQuantity": {
          "value": 12,
          "code": "/min",
          "unit": "/min"
        },
        "text": {
          "status": "generated",
          "div": "<div xmlns=\"http://www.w3.org/1999/xhtml\"><table class=\"hl7__ips\"><tr><th>Vital Sign</th><th>Date</th><th>Measurement</th></tr><tr><td>Respiratory rate</td><td>08-Apr-2025</td><td>12 /min</td></tr></table></div>"
        },
        "status": "final",
        "code": {
          "coding": [
            {
              "code": "$9279-1",
              "system": "http://loinc.org",
              "display": "Respiratory rate"
            }
          ]
        },
        "subject": {
          "reference": "urn:uuid:9e5a1ef9-5e87-4d4a-8bc3-e1b38c83f095",
          "display": "Urbano Cantón"
        },
        "effectiveDateTime": "2025-04-08"
      }
    },
    {
      "fullUrl": "urn:uuid:78668035-9f48-455f-abcb-70c407ceda4d",
      "resource": {
        "resourceType": "Observation",
        "id": "78668035-9f48-455f-abcb-70c407ceda4d",
        "meta": {
          "profile": [
            "http://hl7.org/fhir/StructureDefinition/vitalsigns"
          ]
        },
        "category": [
          {
            "coding": [
              {
                "system": "http://terminology.hl7.org/CodeSystem/observation-category",
                "code": "vital-signs",
                "display": "Vital Signs"
              }
            ]
          }
        ],
        "valueQuantity": {
          "value": 164.3,
          "code": "cm",
          "unit": "cm"
        },
        "text": {
          "status": "generated",
          "div": "<div xmlns=\"http://www.w3.org/1999/xhtml\"><table class=\"hl7__ips\"><tr><th>Vital Sign</th><th>Date</th><th>Measurement</th></tr><tr><td>Body Height</td><td>02-Apr-2024</td><td>164.3 cm</td></tr></table></div>"
        },
        "status": "final",
        "code": {
          "coding": [
            {
              "code": "$8302-2",
              "system": "http://loinc.org",
              "display": "Body Height"
            }
          ]
        },
        "subject": {
          "reference": "urn:uuid:9e5a1ef9-5e87-4d4a-8bc3-e1b38c83f095",
          "display": "Urbano Cantón"
        },
        "effectiveDateTime": "2024-04-02"
      }
    },
    {
      "fullUrl": "urn:uuid:dbd7f31d-9f90-4e34-a441-b48c03903115",
      "resource": {
        "resourceType": "Observation",
        "id": "dbd7f31d-9f90-4e34-a441-b48c03903115",
        "meta": {
          "profile": [
            "http://hl7.org/fhir/StructureDefinition/vitalsigns"
          ]
        },
        "category": [
          {
            "coding": [
              {
                "system": "http://terminology.hl7.org/CodeSystem/observation-category",
                "code": "vital-signs",
                "display": "Vital Signs"
              }
            ]
          }
        ],
        "valueQuantity": {
          "value": 2,
          "code": "{score}",
          "unit": "{score}"
        },
        "text": {
          "status": "generated",
          "div": "<div xmlns=\"http://www.w3.org/1999/xhtml\"><table class=\"hl7__ips\"><tr><th>Vital Sign</th><th>Date</th><th>Measurement</th></tr><tr><td>Pain severity - 0-10 verbal numeric rating [Score] - Reported</td><td>02-Apr-2024</td><td>2 {score}</td></tr></table></div>"
        },
        "status": "final",
        "code": {
          "coding": [
            {
              "code": "$72514-3",
              "system": "http://loinc.org",
              "display": "Pain severity - 0-10 verbal numeric rating [Score] - Reported"
            }
          ]
        },
        "subject": {
          "reference": "urn:uuid:9e5a1ef9-5e87-4d4a-8bc3-e1b38c83f095",
          "display": "Urbano Cantón"
        },
        "effectiveDateTime": "2024-04-02"
      }
    },
    {
      "fullUrl": "urn:uuid:10e7214d-01fb-4b90-bdec-6a079eaecefd",
      "resource": {
        "resourceType": "Observation",
        "id": "10e7214d-01fb-4b90-bdec-6a079eaecefd",
        "meta": {
          "profile": [
            "http://hl7.org/fhir/StructureDefinition/vitalsigns"
          ]
        },
        "category": [
          {
            "coding": [
              {
                "system": "http://terminology.hl7.org/CodeSystem/observation-category",
                "code": "vital-signs",
                "display": "Vital Signs"
              }
            ]
          }
        ],
        "valueQuantity": {
          "value": 74.8,
          "code": "kg",
          "unit": "kg"
        },
        "text": {
          "status": "generated",
          "div": "<div xmlns=\"http://www.w3.org/1999/xhtml\"><table class=\"hl7__ips\"><tr><th>Vital Sign</th><th>Date</th><th>Measurement</th></tr><tr><td>Body Weight</td><td>02-Apr-2024</td><td>74.8 kg</td></tr></table></div>"
        },
        "status": "final",
        "code": {
          "coding": [
            {
              "code": "$29463-7",
              "system": "http://loinc.org",
              "display": "Body Weight"
            }
          ]
        },
        "subject": {
          "reference": "urn:uuid:9e5a1ef9-5e87-4d4a-8bc3-e1b38c83f095",
          "display": "Urbano Cantón"
        },
        "effectiveDateTime": "2024-04-02"
      }
    },
    {
      "fullUrl": "urn:uuid:a6940dd7-75ff-4707-8b6c-4b7710ecf821",
      "resource": {
        "resourceType": "Observation",
        "id": "a6940dd7-75ff-4707-8b6c-4b7710ecf821",
        "meta": {
          "profile": [
            "http://hl7.org/fhir/StructureDefinition/vitalsigns"
          ]
        },
        "category": [
          {
            "coding": [
              {
                "system": "http://terminology.hl7.org/CodeSystem/observation-category",
                "code": "vital-signs",
                "display": "Vital Signs"
              }
            ]
          }
        ],
        "valueQuantity": {
          "value": 27.7,
          "code": "kg/m2",
          "unit": "kg/m2"
        },
        "text": {
          "status": "generated",
          "div": "<div xmlns=\"http://www.w3.org/1999/xhtml\"><table class=\"hl7__ips\"><tr><th>Vital Sign</th><th>Date</th><th>Measurement</th></tr><tr><td>Body mass index (BMI) [Ratio]</td><td>02-Apr-2024</td><td>27.7 kg/m2</td></tr></table></div>"
        },
        "status": "final",
        "code": {
          "coding": [
            {
              "code": "$39156-5",
              "system": "http://loinc.org",
              "display": "Body mass index (BMI) [Ratio]"
            }
          ]
        },
        "subject": {
          "reference": "urn:uuid:9e5a1ef9-5e87-4d4a-8bc3-e1b38c83f095",
          "display": "Urbano Cantón"
        },
        "effectiveDateTime": "2024-04-02"
      }
    },
    {
      "fullUrl": "urn:uuid:539ded7f-3e01-4e89-b6ad-4bf2608c9f1f",
      "resource": {
        "resourceType": "Observation",
        "id": "539ded7f-3e01-4e89-b6ad-4bf2608c9f1f",
        "meta": {
          "profile": [
            "http://hl7.org/fhir/StructureDefinition/vitalsigns"
          ]
        },
        "category": [
          {
            "coding": [
              {
                "system": "http://terminology.hl7.org/CodeSystem/observation-category",
                "code": "vital-signs",
                "display": "Vital Signs"
              }
            ]
          }
        ],
        "valueQuantity": {
          "value": 82,
          "code": "mm[Hg]",
          "unit": "mm[Hg]"
        },
        "text": {
          "status": "generated",
          "div": "<div xmlns=\"http://www.w3.org/1999/xhtml\"><table class=\"hl7__ips\"><tr><th>Vital Sign</th><th>Date</th><th>Measurement</th></tr><tr><td>Diastolic Blood Pressure</td><td>02-Apr-2024</td><td>82 mm[Hg]</td></tr></table></div>"
        },
        "status": "final",
        "code": {
          "coding": [
            {
              "code": "$8462-4",
              "system": "http://loinc.org",
              "display": "Diastolic Blood Pressure"
            }
          ]
        },
        "subject": {
          "reference": "urn:uuid:9e5a1ef9-5e87-4d4a-8bc3-e1b38c83f095",
          "display": "Urbano Cantón"
        },
        "effectiveDateTime": "2024-04-02"
      }
    },
    {
      "fullUrl": "urn:uuid:23d17c50-5dce-4f19-93bf-0ecf746a2307",
      "resource": {
        "resourceType": "Observation",
        "id": "23d17c50-5dce-4f19-93bf-0ecf746a2307",
        "meta": {
          "profile": [
            "http://hl7.org/fhir/StructureDefinition/vitalsigns"
          ]
        },
        "category": [
          {
            "coding": [
              {
                "system": "http://terminology.hl7.org/CodeSystem/observation-category",
                "code": "vital-signs",
                "display": "Vital Signs"
              }
            ]
          }
        ],
        "valueQuantity": {
          "value": 113,
          "code": "mm[Hg]",
          "unit": "mm[Hg]"
        },
        "text": {
          "status": "generated",
          "div": "<div xmlns=\"http://www.w3.org/1999/xhtml\"><table class=\"hl7__ips\"><tr><th>Vital Sign</th><th>Date</th><th>Measurement</th></tr><tr><td>Systolic Blood Pressure</td><td>02-Apr-2024</td><td>113 mm[Hg]</td></tr></table></div>"
        },
        "status": "final",
        "code": {
          "coding": [
            {
              "code": "$8480-6",
              "system": "http://loinc.org",
              "display": "Systolic Blood Pressure"
            }
          ]
        },
        "subject": {
          "reference": "urn:uuid:9e5a1ef9-5e87-4d4a-8bc3-e1b38c83f095",
          "display": "Urbano Cantón"
        },
        "effectiveDateTime": "2024-04-02"
      }
    },
    {
      "fullUrl": "urn:uuid:a012eca3-f28c-4c89-8b51-a72077019dd4",
      "resource": {
        "resourceType": "Observation",
        "id": "a012eca3-f28c-4c89-8b51-a72077019dd4",
        "meta": {
          "profile": [
            "http://hl7.org/fhir/StructureDefinition/vitalsigns"
          ]
        },
        "category": [
          {
            "coding": [
              {
                "system": "http://terminology.hl7.org/CodeSystem/observation-category",
                "code": "vital-signs",
                "display": "Vital Signs"
              }
            ]
          }
        ],
        "valueQuantity": {
          "value": 71,
          "code": "/min",
          "unit": "/min"
        },
        "text": {
          "status": "generated",
          "div": "<div xmlns=\"http://www.w3.org/1999/xhtml\"><table class=\"hl7__ips\"><tr><th>Vital Sign</th><th>Date</th><th>Measurement</th></tr><tr><td>Heart rate</td><td>02-Apr-2024</td><td>71 /min</td></tr></table></div>"
        },
        "status": "final",
        "code": {
          "coding": [
            {
              "code": "$8867-4",
              "system": "http://loinc.org",
              "display": "Heart rate"
            }
          ]
        },
        "subject": {
          "reference": "urn:uuid:9e5a1ef9-5e87-4d4a-8bc3-e1b38c83f095",
          "display": "Urbano Cantón"
        },
        "effectiveDateTime": "2024-04-02"
      }
    },
    {
      "fullUrl": "urn:uuid:83f86545-7298-4912-be3c-84177edda954",
      "resource": {
        "resourceType": "Observation",
        "id": "83f86545-7298-4912-be3c-84177edda954",
        "meta": {
          "profile": [
            "http://hl7.org/fhir/StructureDefinition/vitalsigns"
          ]
        },
        "category": [
          {
            "coding": [
              {
                "system": "http://terminology.hl7.org/CodeSystem/observation-category",
                "code": "vital-signs",
                "display": "Vital Signs"
              }
            ]
          }
        ],
        "valueQuantity": {
          "value": 14,
          "code": "/min",
          "unit": "/min"
        },
        "text": {
          "status": "generated",
          "div": "<div xmlns=\"http://www.w3.org/1999/xhtml\"><table class=\"hl7__ips\"><tr><th>Vital Sign</th><th>Date</th><th>Measurement</th></tr><tr><td>Respiratory rate</td><td>02-Apr-2024</td><td>14 /min</td></tr></table></div>"
        },
        "status": "final",
        "code": {
          "coding": [
            {
              "code": "$9279-1",
              "system": "http://loinc.org",
              "display": "Respiratory rate"
            }
          ]
        },
        "subject": {
          "reference": "urn:uuid:9e5a1ef9-5e87-4d4a-8bc3-e1b38c83f095",
          "display": "Urbano Cantón"
        },
        "effectiveDateTime": "2024-04-02"
      }
    },
    {
      "fullUrl": "urn:uuid:d9f6ca27-ecd4-46f6-9487-88564b948ac3",
      "resource": {
        "resourceType": "Observation",
        "id": "d9f6ca27-ecd4-46f6-9487-88564b948ac3",
        "meta": {
          "profile": [
            "http://hl7.eu/fhir/laboratory/StructureDefinition/Observation-resultslab-eu-lab"
          ]
        },
        "performer": [
          {
            "display": "The Central European Lab"
          }
        ],
        "category": [
          {
            "coding": [
              {
                "system": "http://terminology.hl7.org/CodeSystem/observation-category",
                "code": "laboratory"
              }
            ]
          }
        ],
        "code": {
          "coding": [
            {
              "code": "2339-0",
              "system": "http://loinc.org",
              "display": "Glucose [Mass/volume] in Blood"
            }
          ],
          "text": "Glucose [Mass/volume] in Blood"
        },
        "valueQuantity": {
          "system": "http://unitsofmeasure.org",
          "value": 81.2,
          "unit": "mg/dL",
          "code": "mg/dL"
        },
        "referenceRange": [
          {
            "low": {
              "value": 70,
              "code": "mg/dL",
              "system": "http://unitsofmeasure.org"
            }
          },
          {
            "high": {
              "value": 140,
              "code": "mg/dL",
              "system": "http://unitsofmeasure.org"
            }
          }
        ],
        "text": {
          "status": "generated",
          "div": "<div xmlns=\"http://www.w3.org/1999/xhtml\"><table class=\"hl7__eu__lab__report\"><tr><th>Test</th><th>11-Apr-2025</th><th>Reference&#xA0;Range</th><th>Unit</th></tr><tr><td>Glucose [Mass/volume] in Blood</td><td>81.2</td><td>70 - 140</td><td></td><td>mg/dL</td></tr></table></div>"
        },
        "status": "final",
        "subject": {
          "reference": "urn:uuid:9e5a1ef9-5e87-4d4a-8bc3-e1b38c83f095",
          "display": "Urbano Cantón"
        },
        "effectiveDateTime": "2025-04-11T17:07:13Z"
      }
    },
    {
      "fullUrl": "urn:uuid:099f750e-d654-4594-b5fb-0f0dedc3edbe",
      "resource": {
        "resourceType": "Observation",
        "id": "099f750e-d654-4594-b5fb-0f0dedc3edbe",
        "meta": {
          "profile": [
            "http://hl7.eu/fhir/laboratory/StructureDefinition/Observation-resultslab-eu-lab"
          ]
        },
        "performer": [
          {
            "display": "The Central European Lab"
          }
        ],
        "category": [
          {
            "coding": [
              {
                "system": "http://terminology.hl7.org/CodeSystem/observation-category",
                "code": "laboratory"
              }
            ]
          }
        ],
        "code": {
          "coding": [
            {
              "code": "6299-2",
              "system": "http://loinc.org",
              "display": "Urea nitrogen [Mass/volume] in Blood"
            }
          ],
          "text": "Urea nitrogen [Mass/volume] in Blood"
        },
        "valueQuantity": {
          "system": "http://unitsofmeasure.org",
          "value": 10.3,
          "unit": "mg/dL",
          "code": "mg/dL"
        },
        "referenceRange": [
          {
            "low": {
              "value": 7,
              "code": "mg/dL",
              "system": "http://unitsofmeasure.org"
            }
          },
          {
            "high": {
              "value": 25,
              "code": "mg/dL",
              "system": "http://unitsofmeasure.org"
            }
          }
        ],
        "text": {
          "status": "generated",
          "div": "<div xmlns=\"http://www.w3.org/1999/xhtml\"><table class=\"hl7__eu__lab__report\"><tr><th>Test</th><th>11-Apr-2025</th><th>Reference&#xA0;Range</th><th>Unit</th></tr><tr><td>Urea nitrogen [Mass/volume] in Blood</td><td>10.3</td><td>7 - 25</td><td></td><td>mg/dL</td></tr></table></div>"
        },
        "status": "final",
        "subject": {
          "reference": "urn:uuid:9e5a1ef9-5e87-4d4a-8bc3-e1b38c83f095",
          "display": "Urbano Cantón"
        },
        "effectiveDateTime": "2025-04-11T17:07:13Z"
      }
    },
    {
      "fullUrl": "urn:uuid:b93e8641-53d5-4280-9328-c798b0edaabe",
      "resource": {
        "resourceType": "Observation",
        "id": "b93e8641-53d5-4280-9328-c798b0edaabe",
        "meta": {
          "profile": [
            "http://hl7.eu/fhir/laboratory/StructureDefinition/Observation-resultslab-eu-lab"
          ]
        },
        "performer": [
          {
            "display": "The Central European Lab"
          }
        ],
        "category": [
          {
            "coding": [
              {
                "system": "http://terminology.hl7.org/CodeSystem/observation-category",
                "code": "laboratory"
              }
            ]
          }
        ],
        "code": {
          "coding": [
            {
              "code": "38483-4",
              "system": "http://loinc.org",
              "display": "Creatinine [Mass/volume] in Blood"
            }
          ],
          "text": "Creatinine [Mass/volume] in Blood"
        },
        "valueQuantity": {
          "system": "http://unitsofmeasure.org",
          "value": 2.6,
          "unit": "mg/dL",
          "code": "mg/dL"
        },
        "referenceRange": [
          {
            "low": {
              "value": 0.9,
              "code": "mg/dL",
              "system": "http://unitsofmeasure.org"
            }
          },
          {
            "high": {
              "value": 1.3,
              "code": "mg/dL",
              "system": "http://unitsofmeasure.org"
            }
          }
        ],
        "interpretation": [
          {
            "coding": [
              {
                "code": "H",
                "system": "http://terminology.hl7.org/CodeSystem/v3-ObservationInterpretation",
                "display": "High"
              }
            ]
          }
        ],
        "text": {
          "status": "generated",
          "div": "<div xmlns=\"http://www.w3.org/1999/xhtml\"><table class=\"hl7__eu__lab__report\"><tr><th>Test</th><th>11-Apr-2025</th><th>Reference&#xA0;Range</th><th>Unit</th></tr><tr><td>Creatinine [Mass/volume] in Blood</td><td>2.6</td><td>0.9 - 1.3</td><td>H</td><td>mg/dL</td></tr></table></div>"
        },
        "status": "final",
        "subject": {
          "reference": "urn:uuid:9e5a1ef9-5e87-4d4a-8bc3-e1b38c83f095",
          "display": "Urbano Cantón"
        },
        "effectiveDateTime": "2025-04-11T17:07:13Z"
      }
    },
    {
      "fullUrl": "urn:uuid:78461409-bc23-4f56-acd7-1c59907515e0",
      "resource": {
        "resourceType": "Observation",
        "id": "78461409-bc23-4f56-acd7-1c59907515e0",
        "meta": {
          "profile": [
            "http://hl7.eu/fhir/laboratory/StructureDefinition/Observation-resultslab-eu-lab"
          ]
        },
        "performer": [
          {
            "display": "The Central European Lab"
          }
        ],
        "category": [
          {
            "coding": [
              {
                "system": "http://terminology.hl7.org/CodeSystem/observation-category",
                "code": "laboratory"
              }
            ]
          }
        ],
        "code": {
          "coding": [
            {
              "code": "49765-1",
              "system": "http://loinc.org",
              "display": "Calcium [Mass/volume] in Blood"
            }
          ],
          "text": "Calcium [Mass/volume] in Blood"
        },
        "valueQuantity": {
          "system": "http://unitsofmeasure.org",
          "value": 9,
          "unit": "mg/dL",
          "code": "mg/dL"
        },
        "referenceRange": [
          {
            "low": {
              "value": 8.5,
              "code": "mg/dL",
              "system": "http://unitsofmeasure.org"
            }
          },
          {
            "high": {
              "value": 10.5,
              "code": "mg/dL",
              "system": "http://unitsofmeasure.org"
            }
          }
        ],
        "text": {
          "status": "generated",
          "div": "<div xmlns=\"http://www.w3.org/1999/xhtml\"><table class=\"hl7__eu__lab__report\"><tr><th>Test</th><th>11-Apr-2025</th><th>Reference&#xA0;Range</th><th>Unit</th></tr><tr><td>Calcium [Mass/volume] in Blood</td><td>9.0</td><td>8.5 - 10.5</td><td></td><td>mg/dL</td></tr></table></div>"
        },
        "status": "final",
        "subject": {
          "reference": "urn:uuid:9e5a1ef9-5e87-4d4a-8bc3-e1b38c83f095",
          "display": "Urbano Cantón"
        },
        "effectiveDateTime": "2025-04-11T17:07:13Z"
      }
    },
    {
      "fullUrl": "urn:uuid:53b50520-7ee4-444a-b946-9a4ab2776416",
      "resource": {
        "resourceType": "Observation",
        "id": "53b50520-7ee4-444a-b946-9a4ab2776416",
        "meta": {
          "profile": [
            "http://hl7.eu/fhir/laboratory/StructureDefinition/Observation-resultslab-eu-lab"
          ]
        },
        "performer": [
          {
            "display": "The Central European Lab"
          }
        ],
        "category": [
          {
            "coding": [
              {
                "system": "http://terminology.hl7.org/CodeSystem/observation-category",
                "code": "laboratory"
              }
            ]
          }
        ],
        "code": {
          "coding": [
            {
              "code": "2947-0",
              "system": "http://loinc.org",
              "display": "Sodium [Moles/volume] in Blood"
            }
          ],
          "text": "Sodium [Moles/volume] in Blood"
        },
        "valueQuantity": {
          "system": "http://unitsofmeasure.org",
          "value": 138.9,
          "unit": "mmol/L",
          "code": "mmol/L"
        },
        "referenceRange": [
          {
            "low": {
              "value": 135,
              "code": "mmol/L",
              "system": "http://unitsofmeasure.org"
            }
          },
          {
            "high": {
              "value": 145,
              "code": "mmol/L",
              "system": "http://unitsofmeasure.org"
            }
          }
        ],
        "text": {
          "status": "generated",
          "div": "<div xmlns=\"http://www.w3.org/1999/xhtml\"><table class=\"hl7__eu__lab__report\"><tr><th>Test</th><th>11-Apr-2025</th><th>Reference&#xA0;Range</th><th>Unit</th></tr><tr><td>Sodium [Moles/volume] in Blood</td><td>138.9</td><td>135 - 145</td><td></td><td>mmol/L</td></tr></table></div>"
        },
        "status": "final",
        "subject": {
          "reference": "urn:uuid:9e5a1ef9-5e87-4d4a-8bc3-e1b38c83f095",
          "display": "Urbano Cantón"
        },
        "effectiveDateTime": "2025-04-11T17:07:13Z"
      }
    },
    {
      "fullUrl": "urn:uuid:28cae2f3-7a40-4368-adeb-b03390e47509",
      "resource": {
        "resourceType": "Observation",
        "id": "28cae2f3-7a40-4368-adeb-b03390e47509",
        "meta": {
          "profile": [
            "http://hl7.eu/fhir/laboratory/StructureDefinition/Observation-resultslab-eu-lab"
          ]
        },
        "performer": [
          {
            "display": "The Central European Lab"
          }
        ],
        "category": [
          {
            "coding": [
              {
                "system": "http://terminology.hl7.org/CodeSystem/observation-category",
                "code": "laboratory"
              }
            ]
          }
        ],
        "code": {
          "coding": [
            {
              "code": "6298-4",
              "system": "http://loinc.org",
              "display": "Potassium [Moles/volume] in Blood"
            }
          ],
          "text": "Potassium [Moles/volume] in Blood"
        },
        "valueQuantity": {
          "system": "http://unitsofmeasure.org",
          "value": 4.6,
          "unit": "mmol/L",
          "code": "mmol/L"
        },
        "referenceRange": [
          {
            "low": {
              "value": 3.5,
              "code": "mmol/L",
              "system": "http://unitsofmeasure.org"
            }
          },
          {
            "high": {
              "value": 5.1,
              "code": "mmol/L",
              "system": "http://unitsofmeasure.org"
            }
          }
        ],
        "text": {
          "status": "generated",
          "div": "<div xmlns=\"http://www.w3.org/1999/xhtml\"><table class=\"hl7__eu__lab__report\"><tr><th>Test</th><th>11-Apr-2025</th><th>Reference&#xA0;Range</th><th>Unit</th></tr><tr><td>Potassium [Moles/volume] in Blood</td><td>4.6</td><td>3.5 - 5.1</td><td></td><td>mmol/L</td></tr></table></div>"
        },
        "status": "final",
        "subject": {
          "reference": "urn:uuid:9e5a1ef9-5e87-4d4a-8bc3-e1b38c83f095",
          "display": "Urbano Cantón"
        },
        "effectiveDateTime": "2025-04-11T17:07:13Z"
      }
    },
    {
      "fullUrl": "urn:uuid:ac9a87dd-7f0e-4294-8e9b-8c1b0ef96f24",
      "resource": {
        "resourceType": "Observation",
        "id": "ac9a87dd-7f0e-4294-8e9b-8c1b0ef96f24",
        "meta": {
          "profile": [
            "http://hl7.eu/fhir/laboratory/StructureDefinition/Observation-resultslab-eu-lab"
          ]
        },
        "performer": [
          {
            "display": "The Central European Lab"
          }
        ],
        "category": [
          {
            "coding": [
              {
                "system": "http://terminology.hl7.org/CodeSystem/observation-category",
                "code": "laboratory"
              }
            ]
          }
        ],
        "code": {
          "coding": [
            {
              "code": "2069-3",
              "system": "http://loinc.org",
              "display": "Chloride [Moles/volume] in Blood"
            }
          ],
          "text": "Chloride [Moles/volume] in Blood"
        },
        "valueQuantity": {
          "system": "http://unitsofmeasure.org",
          "value": 108.3,
          "unit": "mmol/L",
          "code": "mmol/L"
        },
        "referenceRange": [
          {
            "low": {
              "value": 98,
              "code": "mmol/L",
              "system": "http://unitsofmeasure.org"
            }
          },
          {
            "high": {
              "value": 110,
              "code": "mmol/L",
              "system": "http://unitsofmeasure.org"
            }
          }
        ],
        "text": {
          "status": "generated",
          "div": "<div xmlns=\"http://www.w3.org/1999/xhtml\"><table class=\"hl7__eu__lab__report\"><tr><th>Test</th><th>11-Apr-2025</th><th>Reference&#xA0;Range</th><th>Unit</th></tr><tr><td>Chloride [Moles/volume] in Blood</td><td>108.3</td><td>98 - 110</td><td></td><td>mmol/L</td></tr></table></div>"
        },
        "status": "final",
        "subject": {
          "reference": "urn:uuid:9e5a1ef9-5e87-4d4a-8bc3-e1b38c83f095",
          "display": "Urbano Cantón"
        },
        "effectiveDateTime": "2025-04-11T17:07:13Z"
      }
    },
    {
      "fullUrl": "urn:uuid:fcaf59c3-e981-4aea-86ba-bc599d922b25",
      "resource": {
        "resourceType": "Observation",
        "id": "fcaf59c3-e981-4aea-86ba-bc599d922b25",
        "meta": {
          "profile": [
            "http://hl7.eu/fhir/laboratory/StructureDefinition/Observation-resultslab-eu-lab"
          ]
        },
        "performer": [
          {
            "display": "The Central European Lab"
          }
        ],
        "category": [
          {
            "coding": [
              {
                "system": "http://terminology.hl7.org/CodeSystem/observation-category",
                "code": "laboratory"
              }
            ]
          }
        ],
        "code": {
          "coding": [
            {
              "code": "20565-8",
              "system": "http://loinc.org",
              "display": "Carbon dioxide, total [Moles/volume] in Blood"
            }
          ],
          "text": "Carbon dioxide, total [Moles/volume] in Blood"
        },
        "valueQuantity": {
          "system": "http://unitsofmeasure.org",
          "value": 23.2,
          "unit": "mmol/L",
          "code": "mmol/L"
        },
        "referenceRange": [
          {
            "low": {
              "value": 22,
              "code": "mmol/L",
              "system": "http://unitsofmeasure.org"
            }
          },
          {
            "high": {
              "value": 29,
              "code": "mmol/L",
              "system": "http://unitsofmeasure.org"
            }
          }
        ],
        "text": {
          "status": "generated",
          "div": "<div xmlns=\"http://www.w3.org/1999/xhtml\"><table class=\"hl7__eu__lab__report\"><tr><th>Test</th><th>11-Apr-2025</th><th>Reference&#xA0;Range</th><th>Unit</th></tr><tr><td>Carbon dioxide, total [Moles/volume] in Blood</td><td>23.2</td><td>22 - 29</td><td></td><td>mmol/L</td></tr></table></div>"
        },
        "status": "final",
        "subject": {
          "reference": "urn:uuid:9e5a1ef9-5e87-4d4a-8bc3-e1b38c83f095",
          "display": "Urbano Cantón"
        },
        "effectiveDateTime": "2025-04-11T17:07:13Z"
      }
    },
    {
      "fullUrl": "urn:uuid:09339bdc-4c8c-472c-b0f9-1cb33cd3c992",
      "resource": {
        "resourceType": "Observation",
        "id": "09339bdc-4c8c-472c-b0f9-1cb33cd3c992",
        "meta": {
          "profile": [
            "http://hl7.eu/fhir/laboratory/StructureDefinition/Observation-resultslab-eu-lab"
          ]
        },
        "performer": [
          {
            "display": "The Central European Lab"
          }
        ],
        "category": [
          {
            "coding": [
              {
                "system": "http://terminology.hl7.org/CodeSystem/observation-category",
                "code": "laboratory"
              }
            ]
          }
        ],
        "code": {
          "coding": [
            {
              "code": "2885-2",
              "system": "http://loinc.org",
              "display": "Protein [Mass/volume] in Serum or Plasma"
            }
          ],
          "text": "Protein [Mass/volume] in Serum or Plasma"
        },
        "valueQuantity": {
          "system": "http://unitsofmeasure.org",
          "value": 7,
          "unit": "g/dL",
          "code": "g/dL"
        },
        "referenceRange": [
          {
            "low": {
              "value": 6,
              "code": "g/dL",
              "system": "http://unitsofmeasure.org"
            }
          },
          {
            "high": {
              "value": 8.3,
              "code": "g/dL",
              "system": "http://unitsofmeasure.org"
            }
          }
        ],
        "text": {
          "status": "generated",
          "div": "<div xmlns=\"http://www.w3.org/1999/xhtml\"><table class=\"hl7__eu__lab__report\"><tr><th>Test</th><th>11-Apr-2025</th><th>Reference&#xA0;Range</th><th>Unit</th></tr><tr><td>Protein [Mass/volume] in Serum or Plasma</td><td>7.0</td><td>6 - 8.3</td><td></td><td>g/dL</td></tr></table></div>"
        },
        "status": "final",
        "subject": {
          "reference": "urn:uuid:9e5a1ef9-5e87-4d4a-8bc3-e1b38c83f095",
          "display": "Urbano Cantón"
        },
        "effectiveDateTime": "2025-04-11T17:07:13Z"
      }
    },
    {
      "fullUrl": "urn:uuid:592ed40a-f989-4840-b919-4e8962c90ddb",
      "resource": {
        "resourceType": "Observation",
        "id": "592ed40a-f989-4840-b919-4e8962c90ddb",
        "meta": {
          "profile": [
            "http://hl7.eu/fhir/laboratory/StructureDefinition/Observation-resultslab-eu-lab"
          ]
        },
        "performer": [
          {
            "display": "The Central European Lab"
          }
        ],
        "category": [
          {
            "coding": [
              {
                "system": "http://terminology.hl7.org/CodeSystem/observation-category",
                "code": "laboratory"
              }
            ]
          }
        ],
        "code": {
          "coding": [
            {
              "code": "1751-7",
              "system": "http://loinc.org",
              "display": "Albumin [Mass/volume] in Serum or Plasma"
            }
          ],
          "text": "Albumin [Mass/volume] in Serum or Plasma"
        },
        "valueQuantity": {
          "system": "http://unitsofmeasure.org",
          "value": 3.8,
          "unit": "g/dL",
          "code": "g/dL"
        },
        "referenceRange": [
          {
            "low": {
              "value": 3.2,
              "code": "g/dL",
              "system": "http://unitsofmeasure.org"
            }
          },
          {
            "high": {
              "value": 5.5,
              "code": "g/dL",
              "system": "http://unitsofmeasure.org"
            }
          }
        ],
        "text": {
          "status": "generated",
          "div": "<div xmlns=\"http://www.w3.org/1999/xhtml\"><table class=\"hl7__eu__lab__report\"><tr><th>Test</th><th>11-Apr-2025</th><th>Reference&#xA0;Range</th><th>Unit</th></tr><tr><td>Albumin [Mass/volume] in Serum or Plasma</td><td>3.8</td><td>3.2 - 5.5</td><td></td><td>g/dL</td></tr></table></div>"
        },
        "status": "final",
        "subject": {
          "reference": "urn:uuid:9e5a1ef9-5e87-4d4a-8bc3-e1b38c83f095",
          "display": "Urbano Cantón"
        },
        "effectiveDateTime": "2025-04-11T17:07:13Z"
      }
    },
    {
      "fullUrl": "urn:uuid:a46e2fee-95e4-40c8-a880-89ec0866b302",
      "resource": {
        "resourceType": "Observation",
        "id": "a46e2fee-95e4-40c8-a880-89ec0866b302",
        "meta": {
          "profile": [
            "http://hl7.eu/fhir/laboratory/StructureDefinition/Observation-resultslab-eu-lab"
          ]
        },
        "performer": [
          {
            "display": "The Central European Lab"
          }
        ],
        "category": [
          {
            "coding": [
              {
                "system": "http://terminology.hl7.org/CodeSystem/observation-category",
                "code": "laboratory"
              }
            ]
          }
        ],
        "code": {
          "coding": [
            {
              "code": "10834-0",
              "system": "http://loinc.org",
              "display": "Globulin [Mass/volume] in Serum by calculation"
            }
          ],
          "text": "Globulin [Mass/volume] in Serum by calculation"
        },
        "valueQuantity": {
          "system": "http://unitsofmeasure.org",
          "value": 2.2,
          "unit": "g/L",
          "code": "g/L"
        },
        "referenceRange": [
          {
            "low": {
              "value": 1.5,
              "code": "g/L",
              "system": "http://unitsofmeasure.org"
            }
          },
          {
            "high": {
              "value": 3.5,
              "code": "g/L",
              "system": "http://unitsofmeasure.org"
            }
          }
        ],
        "text": {
          "status": "generated",
          "div": "<div xmlns=\"http://www.w3.org/1999/xhtml\"><table class=\"hl7__eu__lab__report\"><tr><th>Test</th><th>11-Apr-2025</th><th>Reference&#xA0;Range</th><th>Unit</th></tr><tr><td>Globulin [Mass/volume] in Serum by calculation</td><td>2.2</td><td>1.5 - 3.5</td><td></td><td>g/L</td></tr></table></div>"
        },
        "status": "final",
        "subject": {
          "reference": "urn:uuid:9e5a1ef9-5e87-4d4a-8bc3-e1b38c83f095",
          "display": "Urbano Cantón"
        },
        "effectiveDateTime": "2025-04-11T17:07:13Z"
      }
    },
    {
      "fullUrl": "urn:uuid:308bc448-de0d-4072-9f3f-93e906c889c6",
      "resource": {
        "resourceType": "Observation",
        "id": "308bc448-de0d-4072-9f3f-93e906c889c6",
        "meta": {
          "profile": [
            "http://hl7.eu/fhir/laboratory/StructureDefinition/Observation-resultslab-eu-lab"
          ]
        },
        "performer": [
          {
            "display": "The Central European Lab"
          }
        ],
        "category": [
          {
            "coding": [
              {
                "system": "http://terminology.hl7.org/CodeSystem/observation-category",
                "code": "laboratory"
              }
            ]
          }
        ],
        "code": {
          "coding": [
            {
              "code": "1975-2",
              "system": "http://loinc.org",
              "display": "Bilirubin.total [Mass/volume] in Serum or Plasma"
            }
          ],
          "text": "Bilirubin.total [Mass/volume] in Serum or Plasma"
        },
        "valueQuantity": {
          "system": "http://unitsofmeasure.org",
          "value": 1.1,
          "unit": "mg/dL",
          "code": "mg/dL"
        },
        "referenceRange": [
          {
            "low": {
              "value": 0.3,
              "code": "mg/dL",
              "system": "http://unitsofmeasure.org"
            }
          },
          {
            "high": {
              "value": 1.2,
              "code": "mg/dL",
              "system": "http://unitsofmeasure.org"
            }
          }
        ],
        "text": {
          "status": "generated",
          "div": "<div xmlns=\"http://www.w3.org/1999/xhtml\"><table class=\"hl7__eu__lab__report\"><tr><th>Test</th><th>11-Apr-2025</th><th>Reference&#xA0;Range</th><th>Unit</th></tr><tr><td>Bilirubin.total [Mass/volume] in Serum or Plasma</td><td>1.1</td><td>0.3 - 1.2</td><td></td><td>mg/dL</td></tr></table></div>"
        },
        "status": "final",
        "subject": {
          "reference": "urn:uuid:9e5a1ef9-5e87-4d4a-8bc3-e1b38c83f095",
          "display": "Urbano Cantón"
        },
        "effectiveDateTime": "2025-04-11T17:07:13Z"
      }
    },
    {
      "fullUrl": "urn:uuid:7cb1048c-6d9f-415c-8967-a83a57bbf3dd",
      "resource": {
        "resourceType": "Observation",
        "id": "7cb1048c-6d9f-415c-8967-a83a57bbf3dd",
        "meta": {
          "profile": [
            "http://hl7.eu/fhir/laboratory/StructureDefinition/Observation-resultslab-eu-lab"
          ]
        },
        "performer": [
          {
            "display": "The Central European Lab"
          }
        ],
        "category": [
          {
            "coding": [
              {
                "system": "http://terminology.hl7.org/CodeSystem/observation-category",
                "code": "laboratory"
              }
            ]
          }
        ],
        "code": {
          "coding": [
            {
              "code": "6768-6",
              "system": "http://loinc.org",
              "display": "Alkaline phosphatase [Enzymatic activity/volume] in Serum or Plasma"
            }
          ],
          "text": "Alkaline phosphatase [Enzymatic activity/volume] in Serum or Plasma"
        },
        "valueQuantity": {
          "system": "http://unitsofmeasure.org",
          "value": 101.7,
          "unit": "U/L",
          "code": "U/L"
        },
        "referenceRange": [
          {
            "low": {
              "value": 39,
              "code": "U/L",
              "system": "http://unitsofmeasure.org"
            }
          },
          {
            "high": {
              "value": 147,
              "code": "U/L",
              "system": "http://unitsofmeasure.org"
            }
          }
        ],
        "text": {
          "status": "generated",
          "div": "<div xmlns=\"http://www.w3.org/1999/xhtml\"><table class=\"hl7__eu__lab__report\"><tr><th>Test</th><th>11-Apr-2025</th><th>Reference&#xA0;Range</th><th>Unit</th></tr><tr><td>Alkaline phosphatase [Enzymatic activity/volume] in Serum or Plasma</td><td>101.7</td><td>39 - 147</td><td></td><td>U/L</td></tr></table></div>"
        },
        "status": "final",
        "subject": {
          "reference": "urn:uuid:9e5a1ef9-5e87-4d4a-8bc3-e1b38c83f095",
          "display": "Urbano Cantón"
        },
        "effectiveDateTime": "2025-04-11T17:07:13Z"
      }
    },
    {
      "fullUrl": "urn:uuid:169e0978-8ecd-444a-b6fc-ebfb27d80f86",
      "resource": {
        "resourceType": "Observation",
        "id": "169e0978-8ecd-444a-b6fc-ebfb27d80f86",
        "meta": {
          "profile": [
            "http://hl7.eu/fhir/laboratory/StructureDefinition/Observation-resultslab-eu-lab"
          ]
        },
        "performer": [
          {
            "display": "The Central European Lab"
          }
        ],
        "category": [
          {
            "coding": [
              {
                "system": "http://terminology.hl7.org/CodeSystem/observation-category",
                "code": "laboratory"
              }
            ]
          }
        ],
        "code": {
          "coding": [
            {
              "code": "1742-6",
              "system": "http://loinc.org",
              "display": "Alanine aminotransferase [Enzymatic activity/volume] in Serum or Plasma"
            }
          ],
          "text": "Alanine aminotransferase [Enzymatic activity/volume] in Serum or Plasma"
        },
        "valueQuantity": {
          "system": "http://unitsofmeasure.org",
          "value": 42.8,
          "unit": "U/L",
          "code": "U/L"
        },
        "referenceRange": [
          {
            "low": {
              "value": 7,
              "code": "U/L",
              "system": "http://unitsofmeasure.org"
            }
          },
          {
            "high": {
              "value": 60,
              "code": "U/L",
              "system": "http://unitsofmeasure.org"
            }
          }
        ],
        "text": {
          "status": "generated",
          "div": "<div xmlns=\"http://www.w3.org/1999/xhtml\"><table class=\"hl7__eu__lab__report\"><tr><th>Test</th><th>11-Apr-2025</th><th>Reference&#xA0;Range</th><th>Unit</th></tr><tr><td>Alanine aminotransferase [Enzymatic activity/volume] in Serum or Plasma</td><td>42.8</td><td>7 - 60</td><td></td><td>U/L</td></tr></table></div>"
        },
        "status": "final",
        "subject": {
          "reference": "urn:uuid:9e5a1ef9-5e87-4d4a-8bc3-e1b38c83f095",
          "display": "Urbano Cantón"
        },
        "effectiveDateTime": "2025-04-11T17:07:13Z"
      }
    },
    {
      "fullUrl": "urn:uuid:70d9ac59-f7c0-4e96-a3a5-5214f42baac6",
      "resource": {
        "resourceType": "Observation",
        "id": "70d9ac59-f7c0-4e96-a3a5-5214f42baac6",
        "meta": {
          "profile": [
            "http://hl7.eu/fhir/laboratory/StructureDefinition/Observation-resultslab-eu-lab"
          ]
        },
        "performer": [
          {
            "display": "The Central European Lab"
          }
        ],
        "category": [
          {
            "coding": [
              {
                "system": "http://terminology.hl7.org/CodeSystem/observation-category",
                "code": "laboratory"
              }
            ]
          }
        ],
        "code": {
          "coding": [
            {
              "code": "1920-8",
              "system": "http://loinc.org",
              "display": "Aspartate aminotransferase [Enzymatic activity/volume] in Serum or Plasma"
            }
          ],
          "text": "Aspartate aminotransferase [Enzymatic activity/volume] in Serum or Plasma"
        },
        "valueQuantity": {
          "system": "http://unitsofmeasure.org",
          "value": 29.3,
          "unit": "U/L",
          "code": "U/L"
        },
        "referenceRange": [
          {
            "low": {
              "value": 10,
              "code": "U/L",
              "system": "http://unitsofmeasure.org"
            }
          },
          {
            "high": {
              "value": 40,
              "code": "U/L",
              "system": "http://unitsofmeasure.org"
            }
          }
        ],
        "text": {
          "status": "generated",
          "div": "<div xmlns=\"http://www.w3.org/1999/xhtml\"><table class=\"hl7__eu__lab__report\"><tr><th>Test</th><th>11-Apr-2025</th><th>Reference&#xA0;Range</th><th>Unit</th></tr><tr><td>Aspartate aminotransferase [Enzymatic activity/volume] in Serum or Plasma</td><td>29.3</td><td>10 - 40</td><td></td><td>U/L</td></tr></table></div>"
        },
        "status": "final",
        "subject": {
          "reference": "urn:uuid:9e5a1ef9-5e87-4d4a-8bc3-e1b38c83f095",
          "display": "Urbano Cantón"
        },
        "effectiveDateTime": "2025-04-11T17:07:13Z"
      }
    },
    {
      "fullUrl": "urn:uuid:cd416e49-dfc3-44a7-8d09-6c598b4da0c4",
      "resource": {
        "resourceType": "Observation",
        "id": "cd416e49-dfc3-44a7-8d09-6c598b4da0c4",
        "meta": {
          "profile": [
            "http://hl7.eu/fhir/laboratory/StructureDefinition/Observation-resultslab-eu-lab"
          ]
        },
        "performer": [
          {
            "display": "The Central European Lab"
          }
        ],
        "category": [
          {
            "coding": [
              {
                "system": "http://terminology.hl7.org/CodeSystem/observation-category",
                "code": "laboratory"
              }
            ]
          }
        ],
        "code": {
          "coding": [
            {
              "code": "2093-3",
              "system": "http://loinc.org",
              "display": "Cholesterol [Mass/volume] in Serum or Plasma"
            }
          ],
          "text": "Cholesterol [Mass/volume] in Serum or Plasma"
        },
        "valueQuantity": {
          "system": "http://unitsofmeasure.org",
          "value": 197.6,
          "unit": "mg/dL",
          "code": "mg/dL"
        },
        "referenceRange": [
          {
            "low": {
              "value": 100,
              "code": "mg/dL",
              "system": "http://unitsofmeasure.org"
            }
          },
          {
            "high": {
              "value": 200,
              "code": "mg/dL",
              "system": "http://unitsofmeasure.org"
            }
          }
        ],
        "text": {
          "status": "generated",
          "div": "<div xmlns=\"http://www.w3.org/1999/xhtml\"><table class=\"hl7__eu__lab__report\"><tr><th>Test</th><th>11-Apr-2025</th><th>Reference&#xA0;Range</th><th>Unit</th></tr><tr><td>Cholesterol [Mass/volume] in Serum or Plasma</td><td>197.6</td><td>100 - 200</td><td></td><td>mg/dL</td></tr></table></div>"
        },
        "status": "final",
        "subject": {
          "reference": "urn:uuid:9e5a1ef9-5e87-4d4a-8bc3-e1b38c83f095",
          "display": "Urbano Cantón"
        },
        "effectiveDateTime": "2025-04-11T17:07:13Z"
      }
    },
    {
      "fullUrl": "urn:uuid:3b773df2-9209-4458-986b-3982872562a9",
      "resource": {
        "resourceType": "Observation",
        "id": "3b773df2-9209-4458-986b-3982872562a9",
        "meta": {
          "profile": [
            "http://hl7.eu/fhir/laboratory/StructureDefinition/Observation-resultslab-eu-lab"
          ]
        },
        "performer": [
          {
            "display": "The Central European Lab"
          }
        ],
        "category": [
          {
            "coding": [
              {
                "system": "http://terminology.hl7.org/CodeSystem/observation-category",
                "code": "laboratory"
              }
            ]
          }
        ],
        "code": {
          "coding": [
            {
              "code": "2571-8",
              "system": "http://loinc.org",
              "display": "Triglyceride [Mass/volume] in Serum or Plasma"
            }
          ],
          "text": "Triglyceride [Mass/volume] in Serum or Plasma"
        },
        "valueQuantity": {
          "system": "http://unitsofmeasure.org",
          "value": 192.1,
          "unit": "mg/dL",
          "code": "mg/dL"
        },
        "referenceRange": [
          {
            "low": {
              "value": 45,
              "code": "mg/dL",
              "system": "http://unitsofmeasure.org"
            }
          },
          {
            "high": {
              "value": 175,
              "code": "mg/dL",
              "system": "http://unitsofmeasure.org"
            }
          }
        ],
        "interpretation": [
          {
            "coding": [
              {
                "code": "H",
                "system": "http://terminology.hl7.org/CodeSystem/v3-ObservationInterpretation",
                "display": "High"
              }
            ]
          }
        ],
        "text": {
          "status": "generated",
          "div": "<div xmlns=\"http://www.w3.org/1999/xhtml\"><table class=\"hl7__eu__lab__report\"><tr><th>Test</th><th>11-Apr-2025</th><th>Reference&#xA0;Range</th><th>Unit</th></tr><tr><td>Triglyceride [Mass/volume] in Serum or Plasma</td><td>192.1</td><td>45 - 175</td><td>H</td><td>mg/dL</td></tr></table></div>"
        },
        "status": "final",
        "subject": {
          "reference": "urn:uuid:9e5a1ef9-5e87-4d4a-8bc3-e1b38c83f095",
          "display": "Urbano Cantón"
        },
        "effectiveDateTime": "2025-04-11T17:07:13Z"
      }
    },
    {
      "fullUrl": "urn:uuid:f1904038-db48-4b5b-954a-891dae9b45da",
      "resource": {
        "resourceType": "Observation",
        "id": "f1904038-db48-4b5b-954a-891dae9b45da",
        "meta": {
          "profile": [
            "http://hl7.eu/fhir/laboratory/StructureDefinition/Observation-resultslab-eu-lab"
          ]
        },
        "performer": [
          {
            "display": "The Central European Lab"
          }
        ],
        "category": [
          {
            "coding": [
              {
                "system": "http://terminology.hl7.org/CodeSystem/observation-category",
                "code": "laboratory"
              }
            ]
          }
        ],
        "code": {
          "coding": [
            {
              "code": "18262-6",
              "system": "http://loinc.org",
              "display": "Cholesterol in LDL [Mass/volume] in Serum or Plasma by Direct assay"
            }
          ],
          "text": "Cholesterol in LDL [Mass/volume] in Serum or Plasma by Direct assay"
        },
        "valueQuantity": {
          "system": "http://unitsofmeasure.org",
          "value": 134.4,
          "unit": "mg/dL",
          "code": "mg/dL"
        },
        "referenceRange": [
          {
            "low": {
              "value": 0,
              "code": "mg/dL",
              "system": "http://unitsofmeasure.org"
            }
          },
          {
            "high": {
              "value": 190,
              "code": "mg/dL",
              "system": "http://unitsofmeasure.org"
            }
          }
        ],
        "text": {
          "status": "generated",
          "div": "<div xmlns=\"http://www.w3.org/1999/xhtml\"><table class=\"hl7__eu__lab__report\"><tr><th>Test</th><th>11-Apr-2025</th><th>Reference&#xA0;Range</th><th>Unit</th></tr><tr><td>Cholesterol in LDL [Mass/volume] in Serum or Plasma by Direct assay</td><td>134.4</td><td>0 - 190</td><td></td><td>mg/dL</td></tr></table></div>"
        },
        "status": "final",
        "subject": {
          "reference": "urn:uuid:9e5a1ef9-5e87-4d4a-8bc3-e1b38c83f095",
          "display": "Urbano Cantón"
        },
        "effectiveDateTime": "2025-04-11T17:07:13Z"
      }
    },
    {
      "fullUrl": "urn:uuid:97cd457f-514f-455b-b18a-7a598a7aba27",
      "resource": {
        "resourceType": "Observation",
        "id": "97cd457f-514f-455b-b18a-7a598a7aba27",
        "meta": {
          "profile": [
            "http://hl7.eu/fhir/laboratory/StructureDefinition/Observation-resultslab-eu-lab"
          ]
        },
        "performer": [
          {
            "display": "The Central European Lab"
          }
        ],
        "category": [
          {
            "coding": [
              {
                "system": "http://terminology.hl7.org/CodeSystem/observation-category",
                "code": "laboratory"
              }
            ]
          }
        ],
        "code": {
          "coding": [
            {
              "code": "2085-9",
              "system": "http://loinc.org",
              "display": "Cholesterol in HDL [Mass/volume] in Serum or Plasma"
            }
          ],
          "text": "Cholesterol in HDL [Mass/volume] in Serum or Plasma"
        },
        "valueQuantity": {
          "system": "http://unitsofmeasure.org",
          "value": 59.4,
          "unit": "mg/dL",
          "code": "mg/dL"
        },
        "referenceRange": [
          {
            "low": {
              "value": 40,
              "code": "mg/dL",
              "system": "http://unitsofmeasure.org"
            }
          },
          {
            "high": {
              "value": 100,
              "code": "mg/dL",
              "system": "http://unitsofmeasure.org"
            }
          }
        ],
        "text": {
          "status": "generated",
          "div": "<div xmlns=\"http://www.w3.org/1999/xhtml\"><table class=\"hl7__eu__lab__report\"><tr><th>Test</th><th>11-Apr-2025</th><th>Reference&#xA0;Range</th><th>Unit</th></tr><tr><td>Cholesterol in HDL [Mass/volume] in Serum or Plasma</td><td>59.4</td><td>40 - 100</td><td></td><td>mg/dL</td></tr></table></div>"
        },
        "status": "final",
        "subject": {
          "reference": "urn:uuid:9e5a1ef9-5e87-4d4a-8bc3-e1b38c83f095",
          "display": "Urbano Cantón"
        },
        "effectiveDateTime": "2025-04-11T17:07:13Z"
      }
    },
    {
      "fullUrl": "urn:uuid:e9e4df26-e1f4-48e7-82c2-7aee4afd73d8",
      "resource": {
        "resourceType": "DeviceUseStatement",
        "id": "e9e4df26-e1f4-48e7-82c2-7aee4afd73d8",
        "meta": {
          "profile": [
            "http://hl7.eu/fhir/eps/StructureDefinition/deviceUseStatement-eu-eps"
          ]
        },
        "timingPeriod": {
          "start": "1973-06-12"
        },
        "text": {
          "status": "generated",
          "div": "<div xmlns=\"http://www.w3.org/1999/xhtml\"><table class=\"hl7__ips\"><tr><td>Blood glucose meter (physical object)</td><td><span class=\"nb\">12-Jun-1973</span></td></tr></table></div>"
        },
        "status": "active",
        "device": {
          "reference": "urn:uuid:30e624ec-f24a-4235-803f-d1e9836d53ac",
          "display": "Blood glucose meter (physical object)"
        },
        "subject": {
          "reference": "urn:uuid:9e5a1ef9-5e87-4d4a-8bc3-e1b38c83f095",
          "display": "Urbano Cantón"
        }
      }
    },
    {
      "fullUrl": "urn:uuid:30e624ec-f24a-4235-803f-d1e9836d53ac",
      "resource": {
        "resourceType": "Device",
        "id": "30e624ec-f24a-4235-803f-d1e9836d53ac",
        "meta": {
          "profile": [
            "http://hl7.eu/fhir/eps/StructureDefinition/device-eu-eps"
          ]
        },
        "udiCarrier": [
          {
            "id": "(01)20912999192385(11)730522(17)980606(10)430951245581182941(21)3254398465612"
          }
        ],
        "status": "active",
        "patient": {
          "reference": "urn:uuid:9e5a1ef9-5e87-4d4a-8bc3-e1b38c83f095",
          "display": "Urbano Cantón"
        },
        "type": {
          "coding": [
            {
              "code": "337414009",
              "system": "http://snomed.info/sct",
              "display": "Blood glucose meter (physical object)"
            }
          ]
        }
      }
    },
    {
      "fullUrl": "urn:uuid:a4438550-35e3-4262-8da3-eefbd8189219",
      "resource": {
        "resourceType": "DeviceUseStatement",
        "id": "a4438550-35e3-4262-8da3-eefbd8189219",
        "meta": {
          "profile": [
            "http://hl7.eu/fhir/eps/StructureDefinition/deviceUseStatement-eu-eps"
          ]
        },
        "timingPeriod": {
          "start": "1965-02-08"
        },
        "text": {
          "status": "generated",
          "div": "<div xmlns=\"http://www.w3.org/1999/xhtml\"><table class=\"hl7__ips\"><tr><td>Home nebulizer (physical object)</td><td><span class=\"nb\">08-Feb-1965</span></td></tr></table></div>"
        },
        "status": "active",
        "device": {
          "reference": "urn:uuid:50ee7b4d-d4fa-45d2-b1a6-1815facd0718",
          "display": "Home nebulizer (physical object)"
        },
        "subject": {
          "reference": "urn:uuid:9e5a1ef9-5e87-4d4a-8bc3-e1b38c83f095",
          "display": "Urbano Cantón"
        }
      }
    },
    {
      "fullUrl": "urn:uuid:50ee7b4d-d4fa-45d2-b1a6-1815facd0718",
      "resource": {
        "resourceType": "Device",
        "id": "50ee7b4d-d4fa-45d2-b1a6-1815facd0718",
        "meta": {
          "profile": [
            "http://hl7.eu/fhir/eps/StructureDefinition/device-eu-eps"
          ]
        },
        "udiCarrier": [
          {
            "id": "(01)40984012171715(11)650118(17)900202(10)135172796116500(21)8099679"
          }
        ],
        "status": "active",
        "patient": {
          "reference": "urn:uuid:9e5a1ef9-5e87-4d4a-8bc3-e1b38c83f095",
          "display": "Urbano Cantón"
        },
        "type": {
          "coding": [
            {
              "code": "170615005",
              "system": "http://snomed.info/sct",
              "display": "Home nebulizer (physical object)"
            }
          ]
        }
      }
    },
    {
      "fullUrl": "urn:uuid:6effcee0-d140-48d4-b872-1759ee0488cc",
      "resource": {
        "resourceType": "Device",
        "id": "6effcee0-d140-48d4-b872-1759ee0488cc",
        "deviceName": [
          {
            "name": "SYNDERAI Synthetic Generator",
            "type": "manufacturer-name"
          }
        ],
        "version": [
          {
            "value": "5.0"
          }
        ],
        "text": {
          "status": "generated",
          "div": "<div xmlns=\"http://www.w3.org/1999/xhtml\">SYNDERAI Synthetic Generator v5.0</div>"
        },
        "status": "active\"",
        "distinctIdentifier": "synderai-generator-50",
        "manufacturer": "SYNDERAI Project"
      }
    },
    {
      "fullUrl": "urn:uuid:81ea32ff-4d53-43a5-a2ff-b59cedaf1fb2",
      "resource": {
        "resourceType": "Provenance",
        "id": "81ea32ff-4d53-43a5-a2ff-b59cedaf1fb2",
        "target": [
          {
            "reference": "Patient/9e5a1ef9-5e87-4d4a-8bc3-e1b38c83f095"
          },
          {
            "reference": "Bundle/c4a9b3de-f8a9-4725-a576-eda6e37820c7"
          },
          {
            "reference": "Composition/df578f42-3e2c-49b4-9e65-80caa1300b0d"
          },
          {
            "reference": "PractitionerRole/fa0b9c5e-2339-4d29-8512-60a4f11d5cc0"
          },
          {
            "reference": "Organization/8efc3744-af9c-4bb4-bb09-9913e31fcd2c"
          },
          {
            "reference": "Practitioner/eec6fa0f-aed1-485a-8b3f-b1d970b31d5a"
          }
        ],
        "activity": {
          "text": "Synthetic Example Data Generation"
        },
        "policy": [
          "https://synderai.net/synderai-synthetic-data-policy"
        ],
        "agent": [
          {
            "type": {
              "text": "author"
            },
            "who": {
              "reference": "Device/6effcee0-d140-48d4-b872-1759ee0488cc"
            }
          }
        ],
        "reason": [
          {
            "text": "Interoperability Testing and Training (non-clinical use)"
          }
        ],
        "text": {
          "status": "generated",
          "div": "<div xmlns=\"http://www.w3.org/1999/xhtml\">Provenance for SYNDERAI Synthetic Example Data Resource</div>"
        },
        "recorded": "2025-04-11T17:07:13Z"
      }
    }
  ],
  "type": "document",
  "timestamp": "2025-04-11T17:07:13Z"
}
