{
  "resourceType": "Bundle",
  "id": "a604aa72-838e-486f-9e29-cbfd43c5ad47",
  "meta": {
    "profile": [
      "http://hl7.eu/fhir/eps/StructureDefinition/bundle-eu-eps"
    ]
  },
  "identifier": {
    "assigner": {
      "display": "HL7 Europe"
    },
    "system": "urn:oid:2.16.840.1.113883.2.51.999",
    "value": "6cd1bde7-8e72-4848-9465-516a6278a537"
  },
  "entry": [
    {
      "fullUrl": "urn:uuid:2856e61c-d863-4b7b-b9cc-d912c0787130",
      "resource": {
        "resourceType": "Composition",
        "id": "2856e61c-d863-4b7b-b9cc-d912c0787130",
        "meta": {
          "security": [
            {
              "system": "http://terminology.hl7.org/CodeSystem/v3-ActReason",
              "code": "HTEST"
            },
            {
              "system": "http://terminology.hl7.org/CodeSystem/v3-ActReason",
              "code": "TRAIN"
            }
          ],
          "tag": [
            {
              "system": "https://synderai.net/fhir/CodeSystem/tags",
              "code": "synthetic",
              "display": "SYNDERAI Synthetic data"
            }
          ],
          "profile": [
            "http://hl7.eu/fhir/eps/StructureDefinition/composition-eu-eps"
          ]
        },
        "identifier": {
          "assigner": {
            "display": "HL7 Europe"
          },
          "system": "urn:oid:2.16.840.1.113883.2.51.999",
          "value": "a1b8eee2-7d52-4ce0-aa71-3d6220421d60"
        },
        "type": {
          "coding": [
            {
              "system": "http://loinc.org",
              "code": "60591-5",
              "display": "Patient summary Document"
            }
          ],
          "text": "Patient summary Document"
        },
        "author": [
          {
            "reference": "urn:uuid:f1fcb8dd-2afc-4abb-9b17-ccf1d72ca81b"
          }
        ],
        "section": [
          {
            "text": {
              "status": "generated",
              "div": "<div xmlns=\"http://www.w3.org/1999/xhtml\"><table class=\"hl7__ips\"><tr><th>Condition</th><th>Onset Date</th><th>Status</th></tr><tr><td>Chronic sinusitis</td><td><span class=\"nb\">06-Nov-2006</span></td><td>active</td></tr></table></div>"
            },
            "entry": [
              {
                "reference": "urn:uuid:5461a3db-0f2e-412a-9178-f7ee6a37e152"
              }
            ],
            "code": {
              "coding": [
                {
                  "system": "http://loinc.org",
                  "code": "11450-4",
                  "display": "Problem list - Reported"
                }
              ]
            },
            "title": "Problem list"
          },
          {
            "text": {
              "status": "generated",
              "div": "<div xmlns=\"http://www.w3.org/1999/xhtml\"><table class=\"hl7__ips\"><tr><th>Medication</th><th>Since</th><th>Form</th><th>Dosage</th><th>Reason</th></tr><tr><td>Camila 28 Day Pack</td><td><span class=\"nb\">2025-02-20</span></td><td>-</td><td>1 tablet (0.35 mg) by mouth once daily</td><td>-</td></tr></table></div>"
            },
            "entry": [
              {
                "reference": "urn:uuid:677ec5ea-f206-4ed0-9b90-1458edeb5a51"
              }
            ],
            "code": {
              "coding": [
                {
                  "system": "http://loinc.org",
                  "code": "10160-0",
                  "display": "History of Medication use Narrative"
                }
              ]
            },
            "title": "Medication list"
          },
          {
            "text": {
              "status": "generated",
              "div": "<div xmlns=\"http://www.w3.org/1999/xhtml\"><table class=\"hl7__ips\"><tr><th>Vaccine</th><th>Date</th></tr><tr><td>Hepatitis B virus antigen only vaccine product</td><td><span class=\"nb\">03-Jun-2025</span></td></tr><tr><td>Clostridium tetani toxoid antigen adsorbed only vaccine product</td><td><span class=\"nb\">03-Jun-2025</span></td></tr><tr><td>Neisseria meningitidis antigen-containing vaccine product</td><td><span class=\"nb\">03-Jun-2025</span></td></tr><tr><td>Influenza virus antigen only vaccine product</td><td><span class=\"nb\">03-Jun-2025</span></td></tr><tr><td>Human papillomavirus 6</td><td><span class=\"nb\">26-Apr-2016</span></td></tr></table></div>"
            },
            "entry": [
              {
                "reference": "urn:uuid:1dcbd8f2-391b-496a-8bfb-6acfe060a3d6"
              },
              {
                "reference": "urn:uuid:082b1fc0-6295-4176-aa6a-d2c122ffc8dc"
              },
              {
                "reference": "urn:uuid:01be211b-8b17-498c-942d-6e62736f87e0"
              },
              {
                "reference": "urn:uuid:150bae6b-0c83-49e0-8e87-32724ee6d5e4"
              },
              {
                "reference": "urn:uuid:2cb7dae4-fc8e-46f6-9972-36e5d42941e8"
              }
            ],
            "code": {
              "coding": [
                {
                  "system": "http://loinc.org",
                  "code": "11369-6",
                  "display": "History of Immunization note"
                }
              ]
            },
            "title": "Immunizations list"
          },
          {
            "text": {
              "status": "generated",
              "div": "<div xmlns=\"http://www.w3.org/1999/xhtml\"><table class=\"hl7__ips\"><tr><th>Allergy/Intolerance</th><th>Onset Date</th><th>Status</th><th>Type</th><th>Reaction</th></tr><tr><td>Vaccine product containing HPV 6, 11, 16, and 18 antigens</td><td>?</td><td>active</td><td>?</td><td></td></tr></table></div>"
            },
            "entry": [
              {
                "reference": "urn:uuid:2757e2f0-44b3-4ec5-9d87-053b4b208b52"
              }
            ],
            "code": {
              "coding": [
                {
                  "system": "http://loinc.org",
                  "code": "48765-2",
                  "display": "Allergies and adverse reactions Document"
                }
              ]
            },
            "title": "Allergies and Intolerances"
          },
          {
            "text": {
              "status": "generated",
              "div": "<div xmlns=\"http://www.w3.org/1999/xhtml\"><table class=\"hl7__ips\"><tr><th>Vital Signs</th><th>2025-06-03</th><th>2022-05-31</th></tr><tr><td>Body Height</td><td>159.9 cm</td><td>159.9 cm</td></tr><tr><td>Pain severity - 0-10 verbal numeric rating [Score] - Reported</td><td>3 {score}</td><td>0 {score}</td></tr><tr><td>Body Weight</td><td>83.1 kg</td><td>89.3 kg</td></tr><tr><td>Body mass index (BMI) [Ratio]</td><td>32.5 kg/m2</td><td>34.9 kg/m2</td></tr><tr><td>Diastolic Blood Pressure</td><td>71 mm[Hg]</td><td>76 mm[Hg]</td></tr><tr><td>Systolic Blood Pressure</td><td>135 mm[Hg]</td><td>135 mm[Hg]</td></tr><tr><td>Heart rate</td><td>69 /min</td><td>94 /min</td></tr><tr><td>Respiratory rate</td><td>14 /min</td><td>16 /min</td></tr><tr><td>Body mass index (BMI) [Percentile] Per age and sex</td><td>-</td><td>97.3 %</td></tr></table></div>"
            },
            "entry": [
              {
                "reference": "urn:uuid:936a9a3b-91c1-4898-9d88-0543861eafed"
              },
              {
                "reference": "urn:uuid:f8af573e-0e31-4bfc-bf9f-5d277b588310"
              },
              {
                "reference": "urn:uuid:77d209d3-880c-4060-b0f9-04e51c40e6d2"
              },
              {
                "reference": "urn:uuid:6e8d9125-3a58-4aee-a41f-70033cdc398c"
              },
              {
                "reference": "urn:uuid:3a154ec6-2281-44fa-8e8a-57efb4d8de67"
              },
              {
                "reference": "urn:uuid:bb24ca72-f38a-4fc3-b8d2-c3dd36176ade"
              },
              {
                "reference": "urn:uuid:e185c046-2dfa-4a5c-ad6e-4baf5007a97c"
              },
              {
                "reference": "urn:uuid:2102dd86-d740-41c0-b2d8-bb67a28999f7"
              },
              {
                "reference": "urn:uuid:f93a520a-5c2a-4815-9788-7b63296de7fd"
              },
              {
                "reference": "urn:uuid:48a4e08f-42b3-4c8f-b895-edc94049b939"
              },
              {
                "reference": "urn:uuid:5ac5b5cf-e655-4ff2-9855-2a57a889a7f7"
              },
              {
                "reference": "urn:uuid:f142e3a2-7a92-4356-be6b-5bbf0dbb69a8"
              },
              {
                "reference": "urn:uuid:4eea0c64-8bc1-4134-91a7-5573abe16fc5"
              },
              {
                "reference": "urn:uuid:3f62238e-b118-4300-925b-f810f683a9a3"
              },
              {
                "reference": "urn:uuid:e1a268fa-7ab7-48e7-ad42-bc9a9bdff76d"
              },
              {
                "reference": "urn:uuid:0b8fc952-b8b6-4c30-bc08-9a6cc6748276"
              },
              {
                "reference": "urn:uuid:5b4afcd2-be66-4add-aa87-1544b18ef52e"
              }
            ],
            "code": {
              "coding": [
                {
                  "system": "http://loinc.org",
                  "code": "8716-3",
                  "display": "Vital signs note"
                }
              ]
            },
            "title": "Vital Signs"
          },
          {
            "text": {
              "status": "generated",
              "div": "<div xmlns=\"http://www.w3.org/1999/xhtml\"><table class=\"hl7__ips\"><table class=\"hl7__ips\"><thead><tr><th>Recent Lab Observations</th><th>03-JUN-2025</th><th>Reference&#xA0;Range</th><th>Unit</th></tr></thead><tbody><tr><td>Leukocytes [#/volume] in Blood by Automated count</td><td>3.7</td><td>3.6 - 10.5</td><td>10*3/uL</td></tr><tr><td>Erythrocytes [#/volume] in Blood by Automated count</td><td>5.1</td><td>4.5 - 5.5</td><td>10*6/uL</td></tr><tr><td>Hemoglobin [Mass/volume] in Blood</td><td><strong>16.1 H</strong></td><td>12 - 16</td><td>g/dL</td></tr><tr><td>Hematocrit [Volume Fraction] of Blood by Automated count</td><td>39.3</td><td>36 - 48</td><td>%</td></tr><tr><td>MCV [Entitic volume] by Automated count</td><td>89.0</td><td>78 - 98</td><td>fL</td></tr><tr><td>MCH [Entitic mass] by Automated count</td><td>28.0</td><td>27 - 33</td><td>pg</td></tr><tr><td>MCHC [Mass/volume] by Automated count</td><td>33.0</td><td>31.5 - 35</td><td>g/dL</td></tr><tr><td>Erythrocyte distribution width [Entitic volume] by Automated count</td><td>40.8</td><td>36 - 55</td><td>fL</td></tr><tr><td>Platelets [#/volume] in Blood by Automated count</td><td>380.5</td><td>150 - 450</td><td>10*3/uL</td></tr><tr><td>Platelet distribution width [Entitic volume] in Blood by Automated count</td><td><strong>475.4 H</strong></td><td>13.4 - 17.4</td><td>fL</td></tr><tr><td>Platelet mean volume [Entitic volume] in Blood by Automated count</td><td>10.8</td><td>9.7 - 12</td><td>fL</td></tr></tbody></table></table></div>"
            },
            "entry": [
              {
                "reference": "urn:uuid:1512685b-89f1-4504-82b5-f8b17713e242"
              },
              {
                "reference": "urn:uuid:885012e2-3999-4a7f-8e95-3fbce1eae767"
              },
              {
                "reference": "urn:uuid:6b4a3ba4-f29a-4bd0-836c-f2008ab64e34"
              },
              {
                "reference": "urn:uuid:d4ab0012-139e-44c2-90f5-c348dfe7ffb2"
              },
              {
                "reference": "urn:uuid:f9237016-1220-4b6d-a9c3-0d002bd4a8f0"
              },
              {
                "reference": "urn:uuid:8881ca8c-3c56-45c7-9647-c37c7021433f"
              },
              {
                "reference": "urn:uuid:8fbef317-722a-40ca-9cdd-c1e8a6cd261e"
              },
              {
                "reference": "urn:uuid:4dd2791e-5729-4257-9fb8-9d9fa069eab7"
              },
              {
                "reference": "urn:uuid:7d7ba922-6e1f-4a30-876a-8e13fd999380"
              },
              {
                "reference": "urn:uuid:c3eaba39-ed6b-4319-bcff-67e5ffb1a0ad"
              },
              {
                "reference": "urn:uuid:812393ba-4249-4c94-9e72-6572e6962cde"
              }
            ],
            "code": {
              "coding": [
                {
                  "system": "http://loinc.org",
                  "code": "30954-2",
                  "display": "Relevant diagnostic tests/laboratory data note"
                }
              ]
            },
            "title": "Relevant diagnostic tests/laboratory data"
          },
          {
            "text": {
              "status": "generated",
              "div": "<div xmlns=\"http://www.w3.org/1999/xhtml\"><table class=\"hl7__ips\"><tr><th>Device</th><th>Date (since)</th></tr><tr><td>Home nebulizer (physical object)</td><td><span class=\"nb\">06-Nov-2006</span></td></tr></table></div>"
            },
            "entry": [
              {
                "reference": "urn:uuid:6fe4add0-34e9-4433-a03b-707e47859e08"
              }
            ],
            "code": {
              "coding": [
                {
                  "system": "http://loinc.org",
                  "code": "46264-8",
                  "display": "History of medical device use"
                }
              ]
            },
            "title": "Device Use"
          }
        ],
        "title": "European Patient Summary",
        "status": "final",
        "subject": {
          "reference": "urn:uuid:b1fce6b3-5ac6-4c03-9852-a2b82e81ec77",
          "display": "Carole Cooke"
        },
        "custodian": {
          "reference": "urn:uuid:0e2e212d-67fc-465a-aa1c-926bc1858c53"
        },
        "date": "2025-06-03",
        "confidentiality": "N"
      }
    },
    {
      "fullUrl": "urn:uuid:b1fce6b3-5ac6-4c03-9852-a2b82e81ec77",
      "resource": {
        "resourceType": "Patient",
        "id": "b1fce6b3-5ac6-4c03-9852-a2b82e81ec77",
        "meta": {
          "security": [
            {
              "system": "http://terminology.hl7.org/CodeSystem/v3-ActReason",
              "code": "HTEST"
            },
            {
              "system": "http://terminology.hl7.org/CodeSystem/v3-ActReason",
              "code": "TRAIN"
            }
          ],
          "tag": [
            {
              "system": "https://synderai.net/fhir/CodeSystem/tags",
              "code": "synthetic",
              "display": "SYNDERAI Synthetic data"
            }
          ],
          "profile": [
            "http://hl7.eu/fhir/eps/StructureDefinition/patient-eu-eps"
          ]
        },
        "identifier": [
          {
            "type": {
              "coding": [
                {
                  "code": "PT",
                  "system": "http://terminology.hl7.org/CodeSystem/v2-0203"
                }
              ]
            },
            "system": "http://ec.europa.eu/identifier/eci",
            "value": "1102-358220-5"
          },
          {
            "type": {
              "coding": [
                {
                  "code": "MR",
                  "system": "http://terminology.hl7.org/CodeSystem/v2-0203"
                }
              ]
            },
            "system": "http://local.setting.eu/identifier",
            "value": "f525f046-df37-01f8-5d2a-6533e179ee9d"
          }
        ],
        "name": [
          {
            "family": "Cooke"
          },
          {
            "given": [
              "Carole"
            ]
          },
          {
            "text": "Carole Cooke"
          }
        ],
        "address": [
          {
            "line": [
              "739 Pamela summit"
            ],
            "use": "home",
            "type": "physical",
            "postalCode": "SW1A",
            "city": "London",
            "country": "United Kingdom"
          }
        ],
        "telecom": [
          {
            "system": "phone",
            "value": "+441514960086"
          }
        ],
        "extension": [
          {
            "url": "http://hl7.org/fhir/StructureDefinition/patient-nationality",
            "valueCodeableConcept": {
              "coding": [
                {
                  "code": "GB",
                  "system": "http://hl7.org/fhir/ValueSet/country"
                }
              ]
            }
          }
        ],
        "text": {
          "status": "generated",
          "div": "<div xmlns=\"http://www.w3.org/1999/xhtml\"><table class=\"hl7__ips\"><tr><td>Carole Cooke</td><td>female</td><td>07-Dec-2005</td></tr></table></div>"
        },
        "gender": "female",
        "birthDate": "2005-12-07"
      }
    },
    {
      "fullUrl": "urn:uuid:f1fcb8dd-2afc-4abb-9b17-ccf1d72ca81b",
      "resource": {
        "resourceType": "PractitionerRole",
        "id": "f1fcb8dd-2afc-4abb-9b17-ccf1d72ca81b",
        "meta": {
          "profile": [
            "http://hl7.eu/fhir/base/StructureDefinition/practitionerRole-eu"
          ]
        },
        "text": {
          "status": "generated",
          "div": "<div xmlns=\"http://www.w3.org/1999/xhtml\"><table class=\"hl7__ips\">Provider Role Id f1fcb8dd-2afc-4abb-9b17-ccf1d72ca81b</table></div>"
        },
        "practitioner": {
          "reference": "urn:uuid:a3fcdc1f-f0d1-4ad4-85c5-45b32a424f9f"
        },
        "organization": {
          "reference": "urn:uuid:0e2e212d-67fc-465a-aa1c-926bc1858c53"
        }
      }
    },
    {
      "fullUrl": "urn:uuid:a3fcdc1f-f0d1-4ad4-85c5-45b32a424f9f",
      "resource": {
        "resourceType": "Practitioner",
        "id": "a3fcdc1f-f0d1-4ad4-85c5-45b32a424f9f",
        "meta": {
          "profile": [
            "http://hl7.eu/fhir/base/StructureDefinition/practitioner-eu"
          ]
        },
        "name": [
          {
            "prefix": [
              "Dr."
            ],
            "given": [
              "Hel"
            ],
            "family": "Ping"
          }
        ],
        "text": {
          "status": "generated",
          "div": "<div xmlns=\"http://www.w3.org/1999/xhtml\"><table class=\"hl7__ips\">Dr. Hel Ping</table></div>"
        }
      }
    },
    {
      "fullUrl": "urn:uuid:0e2e212d-67fc-465a-aa1c-926bc1858c53",
      "resource": {
        "resourceType": "Organization",
        "id": "0e2e212d-67fc-465a-aa1c-926bc1858c53",
        "meta": {
          "profile": [
            "http://hl7.eu/fhir/base/StructureDefinition/organization-eu"
          ]
        },
        "identifier": [
          {
            "assigner": {
              "display": "HL7 Europe"
            },
            "system": "urn:oid:2.16.840.1.113883.2.51.999",
            "value": "17932e98-e1ff-4155-8167-d7bef24736aa"
          }
        ],
        "address": [
          {
            "city": "London",
            "postalCode": "SE1 7",
            "country": "United Kingdom"
          }
        ],
        "text": {
          "status": "generated",
          "div": "<div xmlns=\"http://www.w3.org/1999/xhtml\"><table class=\"hl7__ips\">Evelina Children&#039;s Hospital</table></div>"
        },
        "name": "Evelina Children&#039;s Hospital"
      }
    },
    {
      "fullUrl": "urn:uuid:5461a3db-0f2e-412a-9178-f7ee6a37e152",
      "resource": {
        "resourceType": "Condition",
        "id": "5461a3db-0f2e-412a-9178-f7ee6a37e152",
        "meta": {
          "profile": [
            "http://hl7.org/fhir/uv/ips/StructureDefinition/Condition-uv-ips"
          ]
        },
        "category": [
          {
            "coding": [
              {
                "code": "problem-list-item",
                "system": "http://terminology.hl7.org/CodeSystem/condition-category",
                "display": "Problem List Item"
              }
            ]
          }
        ],
        "code": {
          "coding": [
            {
              "code": "40055000",
              "system": "http://snomed.info/sct",
              "display": "Chronic sinusitis (disorder)"
            }
          ],
          "text": "Chronic sinusitis"
        },
        "text": {
          "status": "generated",
          "div": "<div xmlns=\"http://www.w3.org/1999/xhtml\"><table class=\"hl7__ips\"><tr><td>Chronic sinusitis</td><td><span class=\"nb\">06-Nov-2006</span></td><td>active</td></tr></table></div>"
        },
        "onsetDateTime": "2006-11-06",
        "subject": {
          "reference": "urn:uuid:",
          "display": "Carole Cooke"
        },
        "asserter": {
          "reference": "urn:uuid:",
          "display": "Evelina Children&#039;s Hospital"
        }
      }
    },
    {
      "fullUrl": "urn:uuid:b92a3f54-f9c1-45dd-9dde-d2bdbc5876da",
      "resource": {
        "resourceType": "Condition",
        "id": "b92a3f54-f9c1-45dd-9dde-d2bdbc5876da",
        "meta": {
          "profile": [
            "http://hl7.org/fhir/uv/ips/StructureDefinition/Condition-uv-ips"
          ]
        },
        "category": [
          {
            "coding": [
              {
                "code": "problem-list-item",
                "system": "http://terminology.hl7.org/CodeSystem/condition-category",
                "display": "Problem List Item"
              }
            ]
          }
        ],
        "code": {
          "coding": [
            {
              "code": "444814009",
              "system": "http://snomed.info/sct",
              "display": "Viral sinusitis (disorder)"
            }
          ],
          "text": "Viral sinusitis"
        },
        "text": {
          "status": "generated",
          "div": "<div xmlns=\"http://www.w3.org/1999/xhtml\"><table class=\"hl7__ips\"><tr><td><span class=\"grayedout\">Viral sinusitis</span></td><td><span class=\"nb\">28-Mar-2024 - 11-Apr-2024</span></td><td><span class=\"grayedout\">inactive</span></td></tr></table></div>"
        },
        "onsetDateTime": "2024-03-28",
        "abatementDateTime": "2024-04-11",
        "subject": {
          "reference": "urn:uuid:",
          "display": "Carole Cooke"
        },
        "asserter": {
          "reference": "urn:uuid:",
          "display": "Evelina Children&#039;s Hospital"
        }
      }
    },
    {
      "fullUrl": "urn:uuid:42d07076-8c45-4340-bfa9-68fb3769123c",
      "resource": {
        "resourceType": "Condition",
        "id": "42d07076-8c45-4340-bfa9-68fb3769123c",
        "meta": {
          "profile": [
            "http://hl7.org/fhir/uv/ips/StructureDefinition/Condition-uv-ips"
          ]
        },
        "category": [
          {
            "coding": [
              {
                "code": "problem-list-item",
                "system": "http://terminology.hl7.org/CodeSystem/condition-category",
                "display": "Problem List Item"
              }
            ]
          }
        ],
        "code": {
          "coding": [
            {
              "code": "62106007",
              "system": "http://snomed.info/sct",
              "display": "Concussion with no loss of consciousness (disorder)"
            }
          ],
          "text": "Concussion with no loss of consciousness"
        },
        "text": {
          "status": "generated",
          "div": "<div xmlns=\"http://www.w3.org/1999/xhtml\"><table class=\"hl7__ips\"><tr><td><span class=\"grayedout\">Concussion with no loss of consciousness</span></td><td><span class=\"nb\">17-Oct-2018 - 28-Dec-2018</span></td><td><span class=\"grayedout\">inactive</span></td></tr></table></div>"
        },
        "onsetDateTime": "2018-10-17",
        "abatementDateTime": "2018-12-28",
        "subject": {
          "reference": "urn:uuid:",
          "display": "Carole Cooke"
        },
        "asserter": {
          "reference": "urn:uuid:",
          "display": "Evelina Children&#039;s Hospital"
        }
      }
    },
    {
      "fullUrl": "urn:uuid:93960d3d-5643-4805-9268-e32dc225045f",
      "resource": {
        "resourceType": "Condition",
        "id": "93960d3d-5643-4805-9268-e32dc225045f",
        "meta": {
          "profile": [
            "http://hl7.org/fhir/uv/ips/StructureDefinition/Condition-uv-ips"
          ]
        },
        "category": [
          {
            "coding": [
              {
                "code": "problem-list-item",
                "system": "http://terminology.hl7.org/CodeSystem/condition-category",
                "display": "Problem List Item"
              }
            ]
          }
        ],
        "code": {
          "coding": [
            {
              "code": "110030002",
              "system": "http://snomed.info/sct",
              "display": "Concussion injury of brain (disorder)"
            }
          ],
          "text": "Concussion injury of brain"
        },
        "text": {
          "status": "generated",
          "div": "<div xmlns=\"http://www.w3.org/1999/xhtml\"><table class=\"hl7__ips\"><tr><td><span class=\"grayedout\">Concussion injury of brain</span></td><td><span class=\"nb\">17-Oct-2018 - 28-Dec-2018</span></td><td><span class=\"grayedout\">inactive</span></td></tr></table></div>"
        },
        "onsetDateTime": "2018-10-17",
        "abatementDateTime": "2018-12-28",
        "subject": {
          "reference": "urn:uuid:",
          "display": "Carole Cooke"
        },
        "asserter": {
          "reference": "urn:uuid:",
          "display": "Evelina Children&#039;s Hospital"
        }
      }
    },
    {
      "fullUrl": "urn:uuid:1ae47aaa-845a-45df-bc12-efdb179ac083",
      "resource": {
        "resourceType": "Condition",
        "id": "1ae47aaa-845a-45df-bc12-efdb179ac083",
        "meta": {
          "profile": [
            "http://hl7.org/fhir/uv/ips/StructureDefinition/Condition-uv-ips"
          ]
        },
        "category": [
          {
            "coding": [
              {
                "code": "problem-list-item",
                "system": "http://terminology.hl7.org/CodeSystem/condition-category",
                "display": "Problem List Item"
              }
            ]
          }
        ],
        "code": {
          "coding": [
            {
              "code": "444814009",
              "system": "http://snomed.info/sct",
              "display": "Viral sinusitis (disorder)"
            }
          ],
          "text": "Viral sinusitis"
        },
        "text": {
          "status": "generated",
          "div": "<div xmlns=\"http://www.w3.org/1999/xhtml\"><table class=\"hl7__ips\"><tr><td><span class=\"grayedout\">Viral sinusitis</span></td><td><span class=\"nb\">28-Sep-2017 - 24-Oct-2017</span></td><td><span class=\"grayedout\">inactive</span></td></tr></table></div>"
        },
        "onsetDateTime": "2017-09-28",
        "abatementDateTime": "2017-10-24",
        "subject": {
          "reference": "urn:uuid:",
          "display": "Carole Cooke"
        },
        "asserter": {
          "reference": "urn:uuid:",
          "display": "Evelina Children&#039;s Hospital"
        }
      }
    },
    {
      "fullUrl": "urn:uuid:40042aad-3cdf-44ad-8474-be932e93903e",
      "resource": {
        "resourceType": "Medication",
        "id": "40042aad-3cdf-44ad-8474-be932e93903e",
        "meta": {
          "profile": [
            "http://hl7.eu/fhir/eps/StructureDefinition/Medication-eu-eps"
          ]
        },
        "code": {
          "coding": [
            {
              "code": "748962",
              "system": "http://www.nlm.nih.gov/research/umls/rxnorm",
              "display": "Camila 28 Day Pack"
            }
          ],
          "text": "Camila 28 Day Pack"
        },
        "text": {
          "status": "generated",
          "div": "<div xmlns=\"http://www.w3.org/1999/xhtml\">Camila 28 Day Pack</div>"
        }
      }
    },
    {
      "fullUrl": "urn:uuid:677ec5ea-f206-4ed0-9b90-1458edeb5a51",
      "resource": {
        "resourceType": "MedicationStatement",
        "id": "677ec5ea-f206-4ed0-9b90-1458edeb5a51",
        "meta": {
          "profile": [
            "http://hl7.eu/fhir/eps/StructureDefinition/MedicationStatement-eu-eps"
          ]
        },
        "effectivePeriod": {
          "start": "2025-02-20"
        },
        "dosage": [
          {
            "doseAndRate": [
              {
                "doseQuantity": {
                  "value": 1,
                  "unit": "{tbl}",
                  "system": "$ucum",
                  "code": "{tbl}"
                }
              }
            ],
            "timing": {
              "repeat": {
                "frequency": 1,
                "period": 1,
                "periodUnit": "d"
              }
            },
            "text": "1 tablet (0.35 mg) by mouth once daily",
            "asNeededBoolean": false
          }
        ],
        "text": {
          "status": "generated",
          "div": "<div xmlns=\"http://www.w3.org/1999/xhtml\"><table class=\"hl7__ips first25\"><tr><th>Medication</th><th>Since</th><th>Form</th><th>Dosage</th><th>Reason</th></tr><tr><td>Camila 28 Day Pack</td><td><span class=\"nb\">2025-02-20</span></td><td>-</td><td>1 tablet (0.35 mg) by mouth once daily</td><td>-</td></tr></table></div>"
        },
        "status": "active",
        "medicationReference": {
          "reference": "urn:uuid:40042aad-3cdf-44ad-8474-be932e93903e",
          "display": "Camila 28 Day Pack"
        },
        "subject": {
          "reference": "urn:uuid:b1fce6b3-5ac6-4c03-9852-a2b82e81ec77",
          "display": "Carole Cooke"
        }
      }
    },
    {
      "fullUrl": "urn:uuid:1dcbd8f2-391b-496a-8bfb-6acfe060a3d6",
      "resource": {
        "resourceType": "Immunization",
        "id": "1dcbd8f2-391b-496a-8bfb-6acfe060a3d6",
        "meta": {
          "profile": [
            "http://hl7.org/fhir/uv/ips/StructureDefinition/Immunization-uv-ips"
          ]
        },
        "vaccineCode": {
          "coding": [
            {
              "code": "871822003",
              "system": "http://snomed.info/sct",
              "display": "Vaccine product containing Hepatitis B virus antigen"
            },
            {
              "code": "J07BC01",
              "system": "http://www.whocc.no/atc",
              "display": "Hepatitis B vaccines"
            }
          ],
          "text": "Hepatitis B virus antigen only vaccine product"
        },
        "site": {
          "coding": [
            {
              "code": "244979005",
              "system": "http://snomed.info/sct",
              "display": "Entire muscle of upper arm"
            }
          ],
          "text": "Entire muscle of upper arm"
        },
        "route": {
          "coding": [
            {
              "code": "78421000",
              "system": "http://snomed.info/sct",
              "display": "Intramuscular route"
            }
          ],
          "text": "Intramuscular route"
        },
        "text": {
          "status": "generated",
          "div": "<div xmlns=\"http://www.w3.org/1999/xhtml\"><table class=\"hl7__ips\"><tr><td>Hepatitis B virus antigen only vaccine product</td><td><span class=\"nb\">03-Jun-2025</span></td></tr></table></div>"
        },
        "status": "completed",
        "patient": {
          "reference": "urn:uuid:b1fce6b3-5ac6-4c03-9852-a2b82e81ec77",
          "display": "Carole Cooke"
        },
        "occurrenceDateTime": "2025-06-03",
        "lotNumber": "UC-ebvVhf",
        "expirationDate": "2026-05-20"
      }
    },
    {
      "fullUrl": "urn:uuid:082b1fc0-6295-4176-aa6a-d2c122ffc8dc",
      "resource": {
        "resourceType": "Immunization",
        "id": "082b1fc0-6295-4176-aa6a-d2c122ffc8dc",
        "meta": {
          "profile": [
            "http://hl7.org/fhir/uv/ips/StructureDefinition/Immunization-uv-ips"
          ]
        },
        "vaccineCode": {
          "coding": [
            {
              "code": "777725002",
              "system": "http://snomed.info/sct",
              "display": "Vaccine product containing only Clostridium tetani toxoid antigen adsorbed"
            },
            {
              "code": "J07AM51",
              "system": "http://www.whocc.no/atc",
              "display": "Diphtheria-tetanus vaccines, adult type"
            }
          ],
          "text": "Clostridium tetani toxoid antigen adsorbed only vaccine product"
        },
        "site": {
          "coding": [
            {
              "code": "244979005",
              "system": "http://snomed.info/sct",
              "display": "Entire muscle of upper arm"
            }
          ],
          "text": "Entire muscle of upper arm"
        },
        "route": {
          "coding": [
            {
              "code": "78421000",
              "system": "http://snomed.info/sct",
              "display": "Intramuscular route"
            }
          ],
          "text": "Intramuscular route"
        },
        "text": {
          "status": "generated",
          "div": "<div xmlns=\"http://www.w3.org/1999/xhtml\"><table class=\"hl7__ips\"><tr><td>Clostridium tetani toxoid antigen adsorbed only vaccine product</td><td><span class=\"nb\">03-Jun-2025</span></td></tr></table></div>"
        },
        "status": "completed",
        "patient": {
          "reference": "urn:uuid:b1fce6b3-5ac6-4c03-9852-a2b82e81ec77",
          "display": "Carole Cooke"
        },
        "occurrenceDateTime": "2025-06-03",
        "lotNumber": "SB-JShN",
        "expirationDate": "2026-03-12"
      }
    },
    {
      "fullUrl": "urn:uuid:01be211b-8b17-498c-942d-6e62736f87e0",
      "resource": {
        "resourceType": "Immunization",
        "id": "01be211b-8b17-498c-942d-6e62736f87e0",
        "meta": {
          "profile": [
            "http://hl7.org/fhir/uv/ips/StructureDefinition/Immunization-uv-ips"
          ]
        },
        "vaccineCode": {
          "coding": [
            {
              "code": "836401009",
              "system": "http://snomed.info/sct",
              "display": "Vaccine product containing Neisseria meningitidis antigen"
            },
            {
              "code": "J07AH08",
              "system": "http://www.whocc.no/atc",
              "display": "Meningococcal vaccines, conjugated"
            }
          ],
          "text": "Neisseria meningitidis antigen-containing vaccine product"
        },
        "site": {
          "coding": [
            {
              "code": "244979005",
              "system": "http://snomed.info/sct",
              "display": "Entire muscle of upper arm"
            }
          ],
          "text": "Entire muscle of upper arm"
        },
        "route": {
          "coding": [
            {
              "code": "78421000",
              "system": "http://snomed.info/sct",
              "display": "Intramuscular route"
            }
          ],
          "text": "Intramuscular route"
        },
        "text": {
          "status": "generated",
          "div": "<div xmlns=\"http://www.w3.org/1999/xhtml\"><table class=\"hl7__ips\"><tr><td>Neisseria meningitidis antigen-containing vaccine product</td><td><span class=\"nb\">03-Jun-2025</span></td></tr></table></div>"
        },
        "status": "completed",
        "patient": {
          "reference": "urn:uuid:b1fce6b3-5ac6-4c03-9852-a2b82e81ec77",
          "display": "Carole Cooke"
        },
        "occurrenceDateTime": "2025-06-03",
        "lotNumber": "IB-s4cJYIE",
        "expirationDate": "2025-09-20"
      }
    },
    {
      "fullUrl": "urn:uuid:150bae6b-0c83-49e0-8e87-32724ee6d5e4",
      "resource": {
        "resourceType": "Immunization",
        "id": "150bae6b-0c83-49e0-8e87-32724ee6d5e4",
        "meta": {
          "profile": [
            "http://hl7.org/fhir/uv/ips/StructureDefinition/Immunization-uv-ips"
          ]
        },
        "vaccineCode": {
          "coding": [
            {
              "code": "1181000221105",
              "system": "http://snomed.info/sct",
              "display": "Vaccine product containing Influenza virus antigen"
            },
            {
              "code": "J07BB02",
              "system": "http://www.whocc.no/atc",
              "display": "Influenza, inactivated, split virus"
            }
          ],
          "text": "Influenza virus antigen only vaccine product"
        },
        "site": {
          "coding": [
            {
              "code": "244979005",
              "system": "http://snomed.info/sct",
              "display": "Entire muscle of upper arm"
            }
          ],
          "text": "Entire muscle of upper arm"
        },
        "route": {
          "coding": [
            {
              "code": "78421000",
              "system": "http://snomed.info/sct",
              "display": "Intramuscular route"
            }
          ],
          "text": "Intramuscular route"
        },
        "text": {
          "status": "generated",
          "div": "<div xmlns=\"http://www.w3.org/1999/xhtml\"><table class=\"hl7__ips\"><tr><td>Influenza virus antigen only vaccine product</td><td><span class=\"nb\">03-Jun-2025</span></td></tr></table></div>"
        },
        "status": "completed",
        "patient": {
          "reference": "urn:uuid:b1fce6b3-5ac6-4c03-9852-a2b82e81ec77",
          "display": "Carole Cooke"
        },
        "occurrenceDateTime": "2025-06-03",
        "lotNumber": "GA-vUERKz",
        "expirationDate": "2025-08-12"
      }
    },
    {
      "fullUrl": "urn:uuid:2cb7dae4-fc8e-46f6-9972-36e5d42941e8",
      "resource": {
        "resourceType": "Immunization",
        "id": "2cb7dae4-fc8e-46f6-9972-36e5d42941e8",
        "meta": {
          "profile": [
            "http://hl7.org/fhir/uv/ips/StructureDefinition/Immunization-uv-ips"
          ]
        },
        "vaccineCode": {
          "coding": [
            {
              "code": "2001000221108",
              "system": "http://snomed.info/sct",
              "display": "Vaccine product containing HPV 6, 11, 16, and 18 antigens"
            },
            {
              "code": "J07BM02",
              "system": "http://www.whocc.no/atc",
              "display": "Human papillomavirus vaccines"
            }
          ],
          "text": "Human papillomavirus 6"
        },
        "site": {
          "coding": [
            {
              "code": "244979005",
              "system": "http://snomed.info/sct",
              "display": "Entire muscle of upper arm"
            }
          ],
          "text": "Entire muscle of upper arm"
        },
        "route": {
          "coding": [
            {
              "code": "78421000",
              "system": "http://snomed.info/sct",
              "display": "Intramuscular route"
            }
          ],
          "text": "Intramuscular route"
        },
        "text": {
          "status": "generated",
          "div": "<div xmlns=\"http://www.w3.org/1999/xhtml\"><table class=\"hl7__ips\"><tr><td>Human papillomavirus 6</td><td><span class=\"nb\">26-Apr-2016</span></td></tr></table></div>"
        },
        "status": "completed",
        "patient": {
          "reference": "urn:uuid:b1fce6b3-5ac6-4c03-9852-a2b82e81ec77",
          "display": "Carole Cooke"
        },
        "occurrenceDateTime": "2016-04-26",
        "lotNumber": "RC-mSTWGL",
        "expirationDate": "2016-06-19"
      }
    },
    {
      "fullUrl": "urn:uuid:2757e2f0-44b3-4ec5-9d87-053b4b208b52",
      "resource": {
        "resourceType": "AllergyIntolerance",
        "id": "2757e2f0-44b3-4ec5-9d87-053b4b208b52",
        "meta": {
          "profile": [
            "http://hl7.eu/fhir/eps/StructureDefinition/allergyIntolerance-eu-eps"
          ]
        },
        "code": {
          "coding": [
            {
              "code": "2001000221108",
              "system": "http://snomed.info/sct",
              "display": "Vaccine product containing HPV 6, 11, 16, and 18 antigens"
            }
          ],
          "text": "Vaccine product containing HPV 6, 11, 16, and 18 antigens"
        },
        "clinicalStatus": {
          "coding": [
            {
              "code": "active",
              "system": "http://terminology.hl7.org/CodeSystem/allergyintolerance-clinical"
            }
          ]
        },
        "text": {
          "status": "generated",
          "div": "<div xmlns=\"http://www.w3.org/1999/xhtml\"><table class=\"hl7__ips\"><tr><th>Allergy/Intolerance</th><th>Onset Date</th><th>Status</th><th>Type</th><th>Reaction</th></tr><tr><td>Vaccine product containing HPV 6, 11, 16, and 18 antigens</td><td>?</td><td>active</td><td>?</td><td></td></tr></table></div>"
        },
        "verificationStatus": {
          "coding": [
            {
              "code": "confirmed",
              "system": "http://terminology.hl7.org/CodeSystem/allergyintolerance-verification"
            }
          ]
        },
        "patient": {
          "reference": "urn:uuid:b1fce6b3-5ac6-4c03-9852-a2b82e81ec77",
          "display": "Carole Cooke"
        },
        "_onsetDateTime": {
          "extension": [
            {
              "url": "http://hl7.org/fhir/StructureDefinition/data-absent-reason",
              "valueCode": "unknown"
            }
          ]
        }
      }
    },
    {
      "fullUrl": "urn:uuid:936a9a3b-91c1-4898-9d88-0543861eafed",
      "resource": {
        "resourceType": "Observation",
        "id": "936a9a3b-91c1-4898-9d88-0543861eafed",
        "meta": {
          "profile": [
            "http://hl7.org/fhir/StructureDefinition/vitalsigns"
          ]
        },
        "category": [
          {
            "coding": [
              {
                "system": "http://terminology.hl7.org/CodeSystem/observation-category",
                "code": "vital-signs",
                "display": "Vital Signs"
              }
            ]
          }
        ],
        "valueQuantity": {
          "value": 159.9,
          "code": "cm",
          "unit": "cm"
        },
        "text": {
          "status": "generated",
          "div": "<div xmlns=\"http://www.w3.org/1999/xhtml\"><table class=\"hl7__ips\"><tr><th>Vital Sign</th><th>Date</th><th>Measurement</th></tr><tr><td>Body Height</td><td>03-Jun-2025</td><td>159.9 cm</td></tr></table></div>"
        },
        "status": "final",
        "code": {
          "coding": [
            {
              "code": "$8302-2",
              "system": "http://loinc.org",
              "display": "Body Height"
            }
          ]
        },
        "subject": {
          "reference": "urn:uuid:b1fce6b3-5ac6-4c03-9852-a2b82e81ec77",
          "display": "Carole Cooke"
        },
        "effectiveDateTime": "2025-06-03"
      }
    },
    {
      "fullUrl": "urn:uuid:f8af573e-0e31-4bfc-bf9f-5d277b588310",
      "resource": {
        "resourceType": "Observation",
        "id": "f8af573e-0e31-4bfc-bf9f-5d277b588310",
        "meta": {
          "profile": [
            "http://hl7.org/fhir/StructureDefinition/vitalsigns"
          ]
        },
        "category": [
          {
            "coding": [
              {
                "system": "http://terminology.hl7.org/CodeSystem/observation-category",
                "code": "vital-signs",
                "display": "Vital Signs"
              }
            ]
          }
        ],
        "valueQuantity": {
          "value": 3,
          "code": "{score}",
          "unit": "{score}"
        },
        "text": {
          "status": "generated",
          "div": "<div xmlns=\"http://www.w3.org/1999/xhtml\"><table class=\"hl7__ips\"><tr><th>Vital Sign</th><th>Date</th><th>Measurement</th></tr><tr><td>Pain severity - 0-10 verbal numeric rating [Score] - Reported</td><td>03-Jun-2025</td><td>3 {score}</td></tr></table></div>"
        },
        "status": "final",
        "code": {
          "coding": [
            {
              "code": "$72514-3",
              "system": "http://loinc.org",
              "display": "Pain severity - 0-10 verbal numeric rating [Score] - Reported"
            }
          ]
        },
        "subject": {
          "reference": "urn:uuid:b1fce6b3-5ac6-4c03-9852-a2b82e81ec77",
          "display": "Carole Cooke"
        },
        "effectiveDateTime": "2025-06-03"
      }
    },
    {
      "fullUrl": "urn:uuid:77d209d3-880c-4060-b0f9-04e51c40e6d2",
      "resource": {
        "resourceType": "Observation",
        "id": "77d209d3-880c-4060-b0f9-04e51c40e6d2",
        "meta": {
          "profile": [
            "http://hl7.org/fhir/StructureDefinition/vitalsigns"
          ]
        },
        "category": [
          {
            "coding": [
              {
                "system": "http://terminology.hl7.org/CodeSystem/observation-category",
                "code": "vital-signs",
                "display": "Vital Signs"
              }
            ]
          }
        ],
        "valueQuantity": {
          "value": 83.1,
          "code": "kg",
          "unit": "kg"
        },
        "text": {
          "status": "generated",
          "div": "<div xmlns=\"http://www.w3.org/1999/xhtml\"><table class=\"hl7__ips\"><tr><th>Vital Sign</th><th>Date</th><th>Measurement</th></tr><tr><td>Body Weight</td><td>03-Jun-2025</td><td>83.1 kg</td></tr></table></div>"
        },
        "status": "final",
        "code": {
          "coding": [
            {
              "code": "$29463-7",
              "system": "http://loinc.org",
              "display": "Body Weight"
            }
          ]
        },
        "subject": {
          "reference": "urn:uuid:b1fce6b3-5ac6-4c03-9852-a2b82e81ec77",
          "display": "Carole Cooke"
        },
        "effectiveDateTime": "2025-06-03"
      }
    },
    {
      "fullUrl": "urn:uuid:6e8d9125-3a58-4aee-a41f-70033cdc398c",
      "resource": {
        "resourceType": "Observation",
        "id": "6e8d9125-3a58-4aee-a41f-70033cdc398c",
        "meta": {
          "profile": [
            "http://hl7.org/fhir/StructureDefinition/vitalsigns"
          ]
        },
        "category": [
          {
            "coding": [
              {
                "system": "http://terminology.hl7.org/CodeSystem/observation-category",
                "code": "vital-signs",
                "display": "Vital Signs"
              }
            ]
          }
        ],
        "valueQuantity": {
          "value": 32.5,
          "code": "kg/m2",
          "unit": "kg/m2"
        },
        "text": {
          "status": "generated",
          "div": "<div xmlns=\"http://www.w3.org/1999/xhtml\"><table class=\"hl7__ips\"><tr><th>Vital Sign</th><th>Date</th><th>Measurement</th></tr><tr><td>Body mass index (BMI) [Ratio]</td><td>03-Jun-2025</td><td>32.5 kg/m2</td></tr></table></div>"
        },
        "status": "final",
        "code": {
          "coding": [
            {
              "code": "$39156-5",
              "system": "http://loinc.org",
              "display": "Body mass index (BMI) [Ratio]"
            }
          ]
        },
        "subject": {
          "reference": "urn:uuid:b1fce6b3-5ac6-4c03-9852-a2b82e81ec77",
          "display": "Carole Cooke"
        },
        "effectiveDateTime": "2025-06-03"
      }
    },
    {
      "fullUrl": "urn:uuid:3a154ec6-2281-44fa-8e8a-57efb4d8de67",
      "resource": {
        "resourceType": "Observation",
        "id": "3a154ec6-2281-44fa-8e8a-57efb4d8de67",
        "meta": {
          "profile": [
            "http://hl7.org/fhir/StructureDefinition/vitalsigns"
          ]
        },
        "category": [
          {
            "coding": [
              {
                "system": "http://terminology.hl7.org/CodeSystem/observation-category",
                "code": "vital-signs",
                "display": "Vital Signs"
              }
            ]
          }
        ],
        "valueQuantity": {
          "value": 71,
          "code": "mm[Hg]",
          "unit": "mm[Hg]"
        },
        "text": {
          "status": "generated",
          "div": "<div xmlns=\"http://www.w3.org/1999/xhtml\"><table class=\"hl7__ips\"><tr><th>Vital Sign</th><th>Date</th><th>Measurement</th></tr><tr><td>Diastolic Blood Pressure</td><td>03-Jun-2025</td><td>71 mm[Hg]</td></tr></table></div>"
        },
        "status": "final",
        "code": {
          "coding": [
            {
              "code": "$8462-4",
              "system": "http://loinc.org",
              "display": "Diastolic Blood Pressure"
            }
          ]
        },
        "subject": {
          "reference": "urn:uuid:b1fce6b3-5ac6-4c03-9852-a2b82e81ec77",
          "display": "Carole Cooke"
        },
        "effectiveDateTime": "2025-06-03"
      }
    },
    {
      "fullUrl": "urn:uuid:bb24ca72-f38a-4fc3-b8d2-c3dd36176ade",
      "resource": {
        "resourceType": "Observation",
        "id": "bb24ca72-f38a-4fc3-b8d2-c3dd36176ade",
        "meta": {
          "profile": [
            "http://hl7.org/fhir/StructureDefinition/vitalsigns"
          ]
        },
        "category": [
          {
            "coding": [
              {
                "system": "http://terminology.hl7.org/CodeSystem/observation-category",
                "code": "vital-signs",
                "display": "Vital Signs"
              }
            ]
          }
        ],
        "valueQuantity": {
          "value": 135,
          "code": "mm[Hg]",
          "unit": "mm[Hg]"
        },
        "text": {
          "status": "generated",
          "div": "<div xmlns=\"http://www.w3.org/1999/xhtml\"><table class=\"hl7__ips\"><tr><th>Vital Sign</th><th>Date</th><th>Measurement</th></tr><tr><td>Systolic Blood Pressure</td><td>03-Jun-2025</td><td>135 mm[Hg]</td></tr></table></div>"
        },
        "status": "final",
        "code": {
          "coding": [
            {
              "code": "$8480-6",
              "system": "http://loinc.org",
              "display": "Systolic Blood Pressure"
            }
          ]
        },
        "subject": {
          "reference": "urn:uuid:b1fce6b3-5ac6-4c03-9852-a2b82e81ec77",
          "display": "Carole Cooke"
        },
        "effectiveDateTime": "2025-06-03"
      }
    },
    {
      "fullUrl": "urn:uuid:e185c046-2dfa-4a5c-ad6e-4baf5007a97c",
      "resource": {
        "resourceType": "Observation",
        "id": "e185c046-2dfa-4a5c-ad6e-4baf5007a97c",
        "meta": {
          "profile": [
            "http://hl7.org/fhir/StructureDefinition/vitalsigns"
          ]
        },
        "category": [
          {
            "coding": [
              {
                "system": "http://terminology.hl7.org/CodeSystem/observation-category",
                "code": "vital-signs",
                "display": "Vital Signs"
              }
            ]
          }
        ],
        "valueQuantity": {
          "value": 69,
          "code": "/min",
          "unit": "/min"
        },
        "text": {
          "status": "generated",
          "div": "<div xmlns=\"http://www.w3.org/1999/xhtml\"><table class=\"hl7__ips\"><tr><th>Vital Sign</th><th>Date</th><th>Measurement</th></tr><tr><td>Heart rate</td><td>03-Jun-2025</td><td>69 /min</td></tr></table></div>"
        },
        "status": "final",
        "code": {
          "coding": [
            {
              "code": "$8867-4",
              "system": "http://loinc.org",
              "display": "Heart rate"
            }
          ]
        },
        "subject": {
          "reference": "urn:uuid:b1fce6b3-5ac6-4c03-9852-a2b82e81ec77",
          "display": "Carole Cooke"
        },
        "effectiveDateTime": "2025-06-03"
      }
    },
    {
      "fullUrl": "urn:uuid:2102dd86-d740-41c0-b2d8-bb67a28999f7",
      "resource": {
        "resourceType": "Observation",
        "id": "2102dd86-d740-41c0-b2d8-bb67a28999f7",
        "meta": {
          "profile": [
            "http://hl7.org/fhir/StructureDefinition/vitalsigns"
          ]
        },
        "category": [
          {
            "coding": [
              {
                "system": "http://terminology.hl7.org/CodeSystem/observation-category",
                "code": "vital-signs",
                "display": "Vital Signs"
              }
            ]
          }
        ],
        "valueQuantity": {
          "value": 14,
          "code": "/min",
          "unit": "/min"
        },
        "text": {
          "status": "generated",
          "div": "<div xmlns=\"http://www.w3.org/1999/xhtml\"><table class=\"hl7__ips\"><tr><th>Vital Sign</th><th>Date</th><th>Measurement</th></tr><tr><td>Respiratory rate</td><td>03-Jun-2025</td><td>14 /min</td></tr></table></div>"
        },
        "status": "final",
        "code": {
          "coding": [
            {
              "code": "$9279-1",
              "system": "http://loinc.org",
              "display": "Respiratory rate"
            }
          ]
        },
        "subject": {
          "reference": "urn:uuid:b1fce6b3-5ac6-4c03-9852-a2b82e81ec77",
          "display": "Carole Cooke"
        },
        "effectiveDateTime": "2025-06-03"
      }
    },
    {
      "fullUrl": "urn:uuid:f93a520a-5c2a-4815-9788-7b63296de7fd",
      "resource": {
        "resourceType": "Observation",
        "id": "f93a520a-5c2a-4815-9788-7b63296de7fd",
        "meta": {
          "profile": [
            "http://hl7.org/fhir/StructureDefinition/vitalsigns"
          ]
        },
        "category": [
          {
            "coding": [
              {
                "system": "http://terminology.hl7.org/CodeSystem/observation-category",
                "code": "vital-signs",
                "display": "Vital Signs"
              }
            ]
          }
        ],
        "valueQuantity": {
          "value": 159.9,
          "code": "cm",
          "unit": "cm"
        },
        "text": {
          "status": "generated",
          "div": "<div xmlns=\"http://www.w3.org/1999/xhtml\"><table class=\"hl7__ips\"><tr><th>Vital Sign</th><th>Date</th><th>Measurement</th></tr><tr><td>Body Height</td><td>31-May-2022</td><td>159.9 cm</td></tr></table></div>"
        },
        "status": "final",
        "code": {
          "coding": [
            {
              "code": "$8302-2",
              "system": "http://loinc.org",
              "display": "Body Height"
            }
          ]
        },
        "subject": {
          "reference": "urn:uuid:b1fce6b3-5ac6-4c03-9852-a2b82e81ec77",
          "display": "Carole Cooke"
        },
        "effectiveDateTime": "2022-05-31"
      }
    },
    {
      "fullUrl": "urn:uuid:48a4e08f-42b3-4c8f-b895-edc94049b939",
      "resource": {
        "resourceType": "Observation",
        "id": "48a4e08f-42b3-4c8f-b895-edc94049b939",
        "meta": {
          "profile": [
            "http://hl7.org/fhir/StructureDefinition/vitalsigns"
          ]
        },
        "category": [
          {
            "coding": [
              {
                "system": "http://terminology.hl7.org/CodeSystem/observation-category",
                "code": "vital-signs",
                "display": "Vital Signs"
              }
            ]
          }
        ],
        "valueQuantity": {
          "value": 0,
          "code": "{score}",
          "unit": "{score}"
        },
        "text": {
          "status": "generated",
          "div": "<div xmlns=\"http://www.w3.org/1999/xhtml\"><table class=\"hl7__ips\"><tr><th>Vital Sign</th><th>Date</th><th>Measurement</th></tr><tr><td>Pain severity - 0-10 verbal numeric rating [Score] - Reported</td><td>31-May-2022</td><td>0 {score}</td></tr></table></div>"
        },
        "status": "final",
        "code": {
          "coding": [
            {
              "code": "$72514-3",
              "system": "http://loinc.org",
              "display": "Pain severity - 0-10 verbal numeric rating [Score] - Reported"
            }
          ]
        },
        "subject": {
          "reference": "urn:uuid:b1fce6b3-5ac6-4c03-9852-a2b82e81ec77",
          "display": "Carole Cooke"
        },
        "effectiveDateTime": "2022-05-31"
      }
    },
    {
      "fullUrl": "urn:uuid:5ac5b5cf-e655-4ff2-9855-2a57a889a7f7",
      "resource": {
        "resourceType": "Observation",
        "id": "5ac5b5cf-e655-4ff2-9855-2a57a889a7f7",
        "meta": {
          "profile": [
            "http://hl7.org/fhir/StructureDefinition/vitalsigns"
          ]
        },
        "category": [
          {
            "coding": [
              {
                "system": "http://terminology.hl7.org/CodeSystem/observation-category",
                "code": "vital-signs",
                "display": "Vital Signs"
              }
            ]
          }
        ],
        "valueQuantity": {
          "value": 89.3,
          "code": "kg",
          "unit": "kg"
        },
        "text": {
          "status": "generated",
          "div": "<div xmlns=\"http://www.w3.org/1999/xhtml\"><table class=\"hl7__ips\"><tr><th>Vital Sign</th><th>Date</th><th>Measurement</th></tr><tr><td>Body Weight</td><td>31-May-2022</td><td>89.3 kg</td></tr></table></div>"
        },
        "status": "final",
        "code": {
          "coding": [
            {
              "code": "$29463-7",
              "system": "http://loinc.org",
              "display": "Body Weight"
            }
          ]
        },
        "subject": {
          "reference": "urn:uuid:b1fce6b3-5ac6-4c03-9852-a2b82e81ec77",
          "display": "Carole Cooke"
        },
        "effectiveDateTime": "2022-05-31"
      }
    },
    {
      "fullUrl": "urn:uuid:f142e3a2-7a92-4356-be6b-5bbf0dbb69a8",
      "resource": {
        "resourceType": "Observation",
        "id": "f142e3a2-7a92-4356-be6b-5bbf0dbb69a8",
        "meta": {
          "profile": [
            "http://hl7.org/fhir/StructureDefinition/vitalsigns"
          ]
        },
        "category": [
          {
            "coding": [
              {
                "system": "http://terminology.hl7.org/CodeSystem/observation-category",
                "code": "vital-signs",
                "display": "Vital Signs"
              }
            ]
          }
        ],
        "valueQuantity": {
          "value": 34.9,
          "code": "kg/m2",
          "unit": "kg/m2"
        },
        "text": {
          "status": "generated",
          "div": "<div xmlns=\"http://www.w3.org/1999/xhtml\"><table class=\"hl7__ips\"><tr><th>Vital Sign</th><th>Date</th><th>Measurement</th></tr><tr><td>Body mass index (BMI) [Ratio]</td><td>31-May-2022</td><td>34.9 kg/m2</td></tr></table></div>"
        },
        "status": "final",
        "code": {
          "coding": [
            {
              "code": "$39156-5",
              "system": "http://loinc.org",
              "display": "Body mass index (BMI) [Ratio]"
            }
          ]
        },
        "subject": {
          "reference": "urn:uuid:b1fce6b3-5ac6-4c03-9852-a2b82e81ec77",
          "display": "Carole Cooke"
        },
        "effectiveDateTime": "2022-05-31"
      }
    },
    {
      "fullUrl": "urn:uuid:4eea0c64-8bc1-4134-91a7-5573abe16fc5",
      "resource": {
        "resourceType": "Observation",
        "id": "4eea0c64-8bc1-4134-91a7-5573abe16fc5",
        "meta": {
          "profile": [
            "http://hl7.org/fhir/StructureDefinition/vitalsigns"
          ]
        },
        "category": [
          {
            "coding": [
              {
                "system": "http://terminology.hl7.org/CodeSystem/observation-category",
                "code": "vital-signs",
                "display": "Vital Signs"
              }
            ]
          }
        ],
        "valueQuantity": {
          "value": 97.3,
          "code": "%",
          "unit": "%"
        },
        "text": {
          "status": "generated",
          "div": "<div xmlns=\"http://www.w3.org/1999/xhtml\"><table class=\"hl7__ips\"><tr><th>Vital Sign</th><th>Date</th><th>Measurement</th></tr><tr><td>Body mass index (BMI) [Percentile] Per age and sex</td><td>31-May-2022</td><td>97.3 %</td></tr></table></div>"
        },
        "status": "final",
        "code": {
          "coding": [
            {
              "code": "$59576-9",
              "system": "http://loinc.org",
              "display": "Body mass index (BMI) [Percentile] Per age and sex"
            }
          ]
        },
        "subject": {
          "reference": "urn:uuid:b1fce6b3-5ac6-4c03-9852-a2b82e81ec77",
          "display": "Carole Cooke"
        },
        "effectiveDateTime": "2022-05-31"
      }
    },
    {
      "fullUrl": "urn:uuid:3f62238e-b118-4300-925b-f810f683a9a3",
      "resource": {
        "resourceType": "Observation",
        "id": "3f62238e-b118-4300-925b-f810f683a9a3",
        "meta": {
          "profile": [
            "http://hl7.org/fhir/StructureDefinition/vitalsigns"
          ]
        },
        "category": [
          {
            "coding": [
              {
                "system": "http://terminology.hl7.org/CodeSystem/observation-category",
                "code": "vital-signs",
                "display": "Vital Signs"
              }
            ]
          }
        ],
        "valueQuantity": {
          "value": 76,
          "code": "mm[Hg]",
          "unit": "mm[Hg]"
        },
        "text": {
          "status": "generated",
          "div": "<div xmlns=\"http://www.w3.org/1999/xhtml\"><table class=\"hl7__ips\"><tr><th>Vital Sign</th><th>Date</th><th>Measurement</th></tr><tr><td>Diastolic Blood Pressure</td><td>31-May-2022</td><td>76 mm[Hg]</td></tr></table></div>"
        },
        "status": "final",
        "code": {
          "coding": [
            {
              "code": "$8462-4",
              "system": "http://loinc.org",
              "display": "Diastolic Blood Pressure"
            }
          ]
        },
        "subject": {
          "reference": "urn:uuid:b1fce6b3-5ac6-4c03-9852-a2b82e81ec77",
          "display": "Carole Cooke"
        },
        "effectiveDateTime": "2022-05-31"
      }
    },
    {
      "fullUrl": "urn:uuid:e1a268fa-7ab7-48e7-ad42-bc9a9bdff76d",
      "resource": {
        "resourceType": "Observation",
        "id": "e1a268fa-7ab7-48e7-ad42-bc9a9bdff76d",
        "meta": {
          "profile": [
            "http://hl7.org/fhir/StructureDefinition/vitalsigns"
          ]
        },
        "category": [
          {
            "coding": [
              {
                "system": "http://terminology.hl7.org/CodeSystem/observation-category",
                "code": "vital-signs",
                "display": "Vital Signs"
              }
            ]
          }
        ],
        "valueQuantity": {
          "value": 135,
          "code": "mm[Hg]",
          "unit": "mm[Hg]"
        },
        "text": {
          "status": "generated",
          "div": "<div xmlns=\"http://www.w3.org/1999/xhtml\"><table class=\"hl7__ips\"><tr><th>Vital Sign</th><th>Date</th><th>Measurement</th></tr><tr><td>Systolic Blood Pressure</td><td>31-May-2022</td><td>135 mm[Hg]</td></tr></table></div>"
        },
        "status": "final",
        "code": {
          "coding": [
            {
              "code": "$8480-6",
              "system": "http://loinc.org",
              "display": "Systolic Blood Pressure"
            }
          ]
        },
        "subject": {
          "reference": "urn:uuid:b1fce6b3-5ac6-4c03-9852-a2b82e81ec77",
          "display": "Carole Cooke"
        },
        "effectiveDateTime": "2022-05-31"
      }
    },
    {
      "fullUrl": "urn:uuid:0b8fc952-b8b6-4c30-bc08-9a6cc6748276",
      "resource": {
        "resourceType": "Observation",
        "id": "0b8fc952-b8b6-4c30-bc08-9a6cc6748276",
        "meta": {
          "profile": [
            "http://hl7.org/fhir/StructureDefinition/vitalsigns"
          ]
        },
        "category": [
          {
            "coding": [
              {
                "system": "http://terminology.hl7.org/CodeSystem/observation-category",
                "code": "vital-signs",
                "display": "Vital Signs"
              }
            ]
          }
        ],
        "valueQuantity": {
          "value": 94,
          "code": "/min",
          "unit": "/min"
        },
        "text": {
          "status": "generated",
          "div": "<div xmlns=\"http://www.w3.org/1999/xhtml\"><table class=\"hl7__ips\"><tr><th>Vital Sign</th><th>Date</th><th>Measurement</th></tr><tr><td>Heart rate</td><td>31-May-2022</td><td>94 /min</td></tr></table></div>"
        },
        "status": "final",
        "code": {
          "coding": [
            {
              "code": "$8867-4",
              "system": "http://loinc.org",
              "display": "Heart rate"
            }
          ]
        },
        "subject": {
          "reference": "urn:uuid:b1fce6b3-5ac6-4c03-9852-a2b82e81ec77",
          "display": "Carole Cooke"
        },
        "effectiveDateTime": "2022-05-31"
      }
    },
    {
      "fullUrl": "urn:uuid:5b4afcd2-be66-4add-aa87-1544b18ef52e",
      "resource": {
        "resourceType": "Observation",
        "id": "5b4afcd2-be66-4add-aa87-1544b18ef52e",
        "meta": {
          "profile": [
            "http://hl7.org/fhir/StructureDefinition/vitalsigns"
          ]
        },
        "category": [
          {
            "coding": [
              {
                "system": "http://terminology.hl7.org/CodeSystem/observation-category",
                "code": "vital-signs",
                "display": "Vital Signs"
              }
            ]
          }
        ],
        "valueQuantity": {
          "value": 16,
          "code": "/min",
          "unit": "/min"
        },
        "text": {
          "status": "generated",
          "div": "<div xmlns=\"http://www.w3.org/1999/xhtml\"><table class=\"hl7__ips\"><tr><th>Vital Sign</th><th>Date</th><th>Measurement</th></tr><tr><td>Respiratory rate</td><td>31-May-2022</td><td>16 /min</td></tr></table></div>"
        },
        "status": "final",
        "code": {
          "coding": [
            {
              "code": "$9279-1",
              "system": "http://loinc.org",
              "display": "Respiratory rate"
            }
          ]
        },
        "subject": {
          "reference": "urn:uuid:b1fce6b3-5ac6-4c03-9852-a2b82e81ec77",
          "display": "Carole Cooke"
        },
        "effectiveDateTime": "2022-05-31"
      }
    },
    {
      "fullUrl": "urn:uuid:1512685b-89f1-4504-82b5-f8b17713e242",
      "resource": {
        "resourceType": "Observation",
        "id": "1512685b-89f1-4504-82b5-f8b17713e242",
        "meta": {
          "profile": [
            "http://hl7.eu/fhir/laboratory/StructureDefinition/Observation-resultslab-eu-lab"
          ]
        },
        "performer": [
          {
            "display": "The Central European Lab"
          }
        ],
        "category": [
          {
            "coding": [
              {
                "system": "http://terminology.hl7.org/CodeSystem/observation-category",
                "code": "laboratory"
              }
            ]
          }
        ],
        "code": {
          "coding": [
            {
              "code": "6690-2",
              "system": "http://loinc.org",
              "display": "Leukocytes [#/volume] in Blood by Automated count"
            }
          ],
          "text": "Leukocytes [#/volume] in Blood by Automated count"
        },
        "valueQuantity": {
          "system": "http://unitsofmeasure.org",
          "value": 3.7,
          "unit": "10*3/uL",
          "code": "10*3/uL"
        },
        "referenceRange": [
          {
            "low": {
              "value": 3.6,
              "code": "10*3/uL",
              "system": "http://unitsofmeasure.org"
            }
          },
          {
            "high": {
              "value": 10.5,
              "code": "10*3/uL",
              "system": "http://unitsofmeasure.org"
            }
          }
        ],
        "text": {
          "status": "generated",
          "div": "<div xmlns=\"http://www.w3.org/1999/xhtml\"><table class=\"hl7__eu__lab__report\"><tr><th>Test</th><th>03-Jun-2025</th><th>Reference&#xA0;Range</th><th>Unit</th></tr><tr><td>Leukocytes [#/volume] in Blood by Automated count</td><td>3.7</td><td>3.6 - 10.5</td><td></td><td>10*3/uL</td></tr></table></div>"
        },
        "status": "final",
        "subject": {
          "reference": "urn:uuid:b1fce6b3-5ac6-4c03-9852-a2b82e81ec77",
          "display": "Carole Cooke"
        },
        "effectiveDateTime": "2025-06-03T04:55:51Z"
      }
    },
    {
      "fullUrl": "urn:uuid:885012e2-3999-4a7f-8e95-3fbce1eae767",
      "resource": {
        "resourceType": "Observation",
        "id": "885012e2-3999-4a7f-8e95-3fbce1eae767",
        "meta": {
          "profile": [
            "http://hl7.eu/fhir/laboratory/StructureDefinition/Observation-resultslab-eu-lab"
          ]
        },
        "performer": [
          {
            "display": "The Central European Lab"
          }
        ],
        "category": [
          {
            "coding": [
              {
                "system": "http://terminology.hl7.org/CodeSystem/observation-category",
                "code": "laboratory"
              }
            ]
          }
        ],
        "code": {
          "coding": [
            {
              "code": "789-8",
              "system": "http://loinc.org",
              "display": "Erythrocytes [#/volume] in Blood by Automated count"
            }
          ],
          "text": "Erythrocytes [#/volume] in Blood by Automated count"
        },
        "valueQuantity": {
          "system": "http://unitsofmeasure.org",
          "value": 5.1,
          "unit": "10*6/uL",
          "code": "10*6/uL"
        },
        "referenceRange": [
          {
            "low": {
              "value": 4.5,
              "code": "10*6/uL",
              "system": "http://unitsofmeasure.org"
            }
          },
          {
            "high": {
              "value": 5.5,
              "code": "10*6/uL",
              "system": "http://unitsofmeasure.org"
            }
          }
        ],
        "text": {
          "status": "generated",
          "div": "<div xmlns=\"http://www.w3.org/1999/xhtml\"><table class=\"hl7__eu__lab__report\"><tr><th>Test</th><th>03-Jun-2025</th><th>Reference&#xA0;Range</th><th>Unit</th></tr><tr><td>Erythrocytes [#/volume] in Blood by Automated count</td><td>5.1</td><td>4.5 - 5.5</td><td></td><td>10*6/uL</td></tr></table></div>"
        },
        "status": "final",
        "subject": {
          "reference": "urn:uuid:b1fce6b3-5ac6-4c03-9852-a2b82e81ec77",
          "display": "Carole Cooke"
        },
        "effectiveDateTime": "2025-06-03T04:55:51Z"
      }
    },
    {
      "fullUrl": "urn:uuid:6b4a3ba4-f29a-4bd0-836c-f2008ab64e34",
      "resource": {
        "resourceType": "Observation",
        "id": "6b4a3ba4-f29a-4bd0-836c-f2008ab64e34",
        "meta": {
          "profile": [
            "http://hl7.eu/fhir/laboratory/StructureDefinition/Observation-resultslab-eu-lab"
          ]
        },
        "performer": [
          {
            "display": "The Central European Lab"
          }
        ],
        "category": [
          {
            "coding": [
              {
                "system": "http://terminology.hl7.org/CodeSystem/observation-category",
                "code": "laboratory"
              }
            ]
          }
        ],
        "code": {
          "coding": [
            {
              "code": "718-7",
              "system": "http://loinc.org",
              "display": "Hemoglobin [Mass/volume] in Blood"
            }
          ],
          "text": "Hemoglobin [Mass/volume] in Blood"
        },
        "valueQuantity": {
          "system": "http://unitsofmeasure.org",
          "value": 16.1,
          "unit": "g/dL",
          "code": "g/dL"
        },
        "referenceRange": [
          {
            "low": {
              "value": 12,
              "code": "g/dL",
              "system": "http://unitsofmeasure.org"
            }
          },
          {
            "high": {
              "value": 16,
              "code": "g/dL",
              "system": "http://unitsofmeasure.org"
            }
          }
        ],
        "interpretation": [
          {
            "coding": [
              {
                "code": "H",
                "system": "http://terminology.hl7.org/CodeSystem/v3-ObservationInterpretation",
                "display": "High"
              }
            ]
          }
        ],
        "text": {
          "status": "generated",
          "div": "<div xmlns=\"http://www.w3.org/1999/xhtml\"><table class=\"hl7__eu__lab__report\"><tr><th>Test</th><th>03-Jun-2025</th><th>Reference&#xA0;Range</th><th>Unit</th></tr><tr><td>Hemoglobin [Mass/volume] in Blood</td><td>16.1</td><td>12 - 16</td><td>H</td><td>g/dL</td></tr></table></div>"
        },
        "status": "final",
        "subject": {
          "reference": "urn:uuid:b1fce6b3-5ac6-4c03-9852-a2b82e81ec77",
          "display": "Carole Cooke"
        },
        "effectiveDateTime": "2025-06-03T04:55:51Z"
      }
    },
    {
      "fullUrl": "urn:uuid:d4ab0012-139e-44c2-90f5-c348dfe7ffb2",
      "resource": {
        "resourceType": "Observation",
        "id": "d4ab0012-139e-44c2-90f5-c348dfe7ffb2",
        "meta": {
          "profile": [
            "http://hl7.eu/fhir/laboratory/StructureDefinition/Observation-resultslab-eu-lab"
          ]
        },
        "performer": [
          {
            "display": "The Central European Lab"
          }
        ],
        "category": [
          {
            "coding": [
              {
                "system": "http://terminology.hl7.org/CodeSystem/observation-category",
                "code": "laboratory"
              }
            ]
          }
        ],
        "code": {
          "coding": [
            {
              "code": "4544-3",
              "system": "http://loinc.org",
              "display": "Hematocrit [Volume Fraction] of Blood by Automated count"
            }
          ],
          "text": "Hematocrit [Volume Fraction] of Blood by Automated count"
        },
        "valueQuantity": {
          "system": "http://unitsofmeasure.org",
          "value": 39.3,
          "unit": "%",
          "code": "%"
        },
        "referenceRange": [
          {
            "low": {
              "value": 36,
              "code": "%",
              "system": "http://unitsofmeasure.org"
            }
          },
          {
            "high": {
              "value": 48,
              "code": "%",
              "system": "http://unitsofmeasure.org"
            }
          }
        ],
        "text": {
          "status": "generated",
          "div": "<div xmlns=\"http://www.w3.org/1999/xhtml\"><table class=\"hl7__eu__lab__report\"><tr><th>Test</th><th>03-Jun-2025</th><th>Reference&#xA0;Range</th><th>Unit</th></tr><tr><td>Hematocrit [Volume Fraction] of Blood by Automated count</td><td>39.3</td><td>36 - 48</td><td></td><td>%</td></tr></table></div>"
        },
        "status": "final",
        "subject": {
          "reference": "urn:uuid:b1fce6b3-5ac6-4c03-9852-a2b82e81ec77",
          "display": "Carole Cooke"
        },
        "effectiveDateTime": "2025-06-03T04:55:51Z"
      }
    },
    {
      "fullUrl": "urn:uuid:f9237016-1220-4b6d-a9c3-0d002bd4a8f0",
      "resource": {
        "resourceType": "Observation",
        "id": "f9237016-1220-4b6d-a9c3-0d002bd4a8f0",
        "meta": {
          "profile": [
            "http://hl7.eu/fhir/laboratory/StructureDefinition/Observation-resultslab-eu-lab"
          ]
        },
        "performer": [
          {
            "display": "The Central European Lab"
          }
        ],
        "category": [
          {
            "coding": [
              {
                "system": "http://terminology.hl7.org/CodeSystem/observation-category",
                "code": "laboratory"
              }
            ]
          }
        ],
        "code": {
          "coding": [
            {
              "code": "787-2",
              "system": "http://loinc.org",
              "display": "MCV [Entitic volume] by Automated count"
            }
          ],
          "text": "MCV [Entitic volume] by Automated count"
        },
        "valueQuantity": {
          "system": "http://unitsofmeasure.org",
          "value": 89,
          "unit": "fL",
          "code": "fL"
        },
        "referenceRange": [
          {
            "low": {
              "value": 78,
              "code": "fL",
              "system": "http://unitsofmeasure.org"
            }
          },
          {
            "high": {
              "value": 98,
              "code": "fL",
              "system": "http://unitsofmeasure.org"
            }
          }
        ],
        "text": {
          "status": "generated",
          "div": "<div xmlns=\"http://www.w3.org/1999/xhtml\"><table class=\"hl7__eu__lab__report\"><tr><th>Test</th><th>03-Jun-2025</th><th>Reference&#xA0;Range</th><th>Unit</th></tr><tr><td>MCV [Entitic volume] by Automated count</td><td>89.0</td><td>78 - 98</td><td></td><td>fL</td></tr></table></div>"
        },
        "status": "final",
        "subject": {
          "reference": "urn:uuid:b1fce6b3-5ac6-4c03-9852-a2b82e81ec77",
          "display": "Carole Cooke"
        },
        "effectiveDateTime": "2025-06-03T04:55:51Z"
      }
    },
    {
      "fullUrl": "urn:uuid:8881ca8c-3c56-45c7-9647-c37c7021433f",
      "resource": {
        "resourceType": "Observation",
        "id": "8881ca8c-3c56-45c7-9647-c37c7021433f",
        "meta": {
          "profile": [
            "http://hl7.eu/fhir/laboratory/StructureDefinition/Observation-resultslab-eu-lab"
          ]
        },
        "performer": [
          {
            "display": "The Central European Lab"
          }
        ],
        "category": [
          {
            "coding": [
              {
                "system": "http://terminology.hl7.org/CodeSystem/observation-category",
                "code": "laboratory"
              }
            ]
          }
        ],
        "code": {
          "coding": [
            {
              "code": "785-6",
              "system": "http://loinc.org",
              "display": "MCH [Entitic mass] by Automated count"
            }
          ],
          "text": "MCH [Entitic mass] by Automated count"
        },
        "valueQuantity": {
          "system": "http://unitsofmeasure.org",
          "value": 28,
          "unit": "pg",
          "code": "pg"
        },
        "referenceRange": [
          {
            "low": {
              "value": 27,
              "code": "pg",
              "system": "http://unitsofmeasure.org"
            }
          },
          {
            "high": {
              "value": 33,
              "code": "pg",
              "system": "http://unitsofmeasure.org"
            }
          }
        ],
        "text": {
          "status": "generated",
          "div": "<div xmlns=\"http://www.w3.org/1999/xhtml\"><table class=\"hl7__eu__lab__report\"><tr><th>Test</th><th>03-Jun-2025</th><th>Reference&#xA0;Range</th><th>Unit</th></tr><tr><td>MCH [Entitic mass] by Automated count</td><td>28.0</td><td>27 - 33</td><td></td><td>pg</td></tr></table></div>"
        },
        "status": "final",
        "subject": {
          "reference": "urn:uuid:b1fce6b3-5ac6-4c03-9852-a2b82e81ec77",
          "display": "Carole Cooke"
        },
        "effectiveDateTime": "2025-06-03T04:55:51Z"
      }
    },
    {
      "fullUrl": "urn:uuid:8fbef317-722a-40ca-9cdd-c1e8a6cd261e",
      "resource": {
        "resourceType": "Observation",
        "id": "8fbef317-722a-40ca-9cdd-c1e8a6cd261e",
        "meta": {
          "profile": [
            "http://hl7.eu/fhir/laboratory/StructureDefinition/Observation-resultslab-eu-lab"
          ]
        },
        "performer": [
          {
            "display": "The Central European Lab"
          }
        ],
        "category": [
          {
            "coding": [
              {
                "system": "http://terminology.hl7.org/CodeSystem/observation-category",
                "code": "laboratory"
              }
            ]
          }
        ],
        "code": {
          "coding": [
            {
              "code": "786-4",
              "system": "http://loinc.org",
              "display": "MCHC [Mass/volume] by Automated count"
            }
          ],
          "text": "MCHC [Mass/volume] by Automated count"
        },
        "valueQuantity": {
          "system": "http://unitsofmeasure.org",
          "value": 33,
          "unit": "g/dL",
          "code": "g/dL"
        },
        "referenceRange": [
          {
            "low": {
              "value": 31.5,
              "code": "g/dL",
              "system": "http://unitsofmeasure.org"
            }
          },
          {
            "high": {
              "value": 35,
              "code": "g/dL",
              "system": "http://unitsofmeasure.org"
            }
          }
        ],
        "text": {
          "status": "generated",
          "div": "<div xmlns=\"http://www.w3.org/1999/xhtml\"><table class=\"hl7__eu__lab__report\"><tr><th>Test</th><th>03-Jun-2025</th><th>Reference&#xA0;Range</th><th>Unit</th></tr><tr><td>MCHC [Mass/volume] by Automated count</td><td>33.0</td><td>31.5 - 35</td><td></td><td>g/dL</td></tr></table></div>"
        },
        "status": "final",
        "subject": {
          "reference": "urn:uuid:b1fce6b3-5ac6-4c03-9852-a2b82e81ec77",
          "display": "Carole Cooke"
        },
        "effectiveDateTime": "2025-06-03T04:55:51Z"
      }
    },
    {
      "fullUrl": "urn:uuid:4dd2791e-5729-4257-9fb8-9d9fa069eab7",
      "resource": {
        "resourceType": "Observation",
        "id": "4dd2791e-5729-4257-9fb8-9d9fa069eab7",
        "meta": {
          "profile": [
            "http://hl7.eu/fhir/laboratory/StructureDefinition/Observation-resultslab-eu-lab"
          ]
        },
        "performer": [
          {
            "display": "The Central European Lab"
          }
        ],
        "category": [
          {
            "coding": [
              {
                "system": "http://terminology.hl7.org/CodeSystem/observation-category",
                "code": "laboratory"
              }
            ]
          }
        ],
        "code": {
          "coding": [
            {
              "code": "21000-5",
              "system": "http://loinc.org",
              "display": "Erythrocyte distribution width [Entitic volume] by Automated count"
            }
          ],
          "text": "Erythrocyte distribution width [Entitic volume] by Automated count"
        },
        "valueQuantity": {
          "system": "http://unitsofmeasure.org",
          "value": 40.8,
          "unit": "fL",
          "code": "fL"
        },
        "referenceRange": [
          {
            "low": {
              "value": 36,
              "code": "fL",
              "system": "http://unitsofmeasure.org"
            }
          },
          {
            "high": {
              "value": 55,
              "code": "fL",
              "system": "http://unitsofmeasure.org"
            }
          }
        ],
        "text": {
          "status": "generated",
          "div": "<div xmlns=\"http://www.w3.org/1999/xhtml\"><table class=\"hl7__eu__lab__report\"><tr><th>Test</th><th>03-Jun-2025</th><th>Reference&#xA0;Range</th><th>Unit</th></tr><tr><td>Erythrocyte distribution width [Entitic volume] by Automated count</td><td>40.8</td><td>36 - 55</td><td></td><td>fL</td></tr></table></div>"
        },
        "status": "final",
        "subject": {
          "reference": "urn:uuid:b1fce6b3-5ac6-4c03-9852-a2b82e81ec77",
          "display": "Carole Cooke"
        },
        "effectiveDateTime": "2025-06-03T04:55:51Z"
      }
    },
    {
      "fullUrl": "urn:uuid:7d7ba922-6e1f-4a30-876a-8e13fd999380",
      "resource": {
        "resourceType": "Observation",
        "id": "7d7ba922-6e1f-4a30-876a-8e13fd999380",
        "meta": {
          "profile": [
            "http://hl7.eu/fhir/laboratory/StructureDefinition/Observation-resultslab-eu-lab"
          ]
        },
        "performer": [
          {
            "display": "The Central European Lab"
          }
        ],
        "category": [
          {
            "coding": [
              {
                "system": "http://terminology.hl7.org/CodeSystem/observation-category",
                "code": "laboratory"
              }
            ]
          }
        ],
        "code": {
          "coding": [
            {
              "code": "777-3",
              "system": "http://loinc.org",
              "display": "Platelets [#/volume] in Blood by Automated count"
            }
          ],
          "text": "Platelets [#/volume] in Blood by Automated count"
        },
        "valueQuantity": {
          "system": "http://unitsofmeasure.org",
          "value": 380.5,
          "unit": "10*3/uL",
          "code": "10*3/uL"
        },
        "referenceRange": [
          {
            "low": {
              "value": 150,
              "code": "10*3/uL",
              "system": "http://unitsofmeasure.org"
            }
          },
          {
            "high": {
              "value": 450,
              "code": "10*3/uL",
              "system": "http://unitsofmeasure.org"
            }
          }
        ],
        "text": {
          "status": "generated",
          "div": "<div xmlns=\"http://www.w3.org/1999/xhtml\"><table class=\"hl7__eu__lab__report\"><tr><th>Test</th><th>03-Jun-2025</th><th>Reference&#xA0;Range</th><th>Unit</th></tr><tr><td>Platelets [#/volume] in Blood by Automated count</td><td>380.5</td><td>150 - 450</td><td></td><td>10*3/uL</td></tr></table></div>"
        },
        "status": "final",
        "subject": {
          "reference": "urn:uuid:b1fce6b3-5ac6-4c03-9852-a2b82e81ec77",
          "display": "Carole Cooke"
        },
        "effectiveDateTime": "2025-06-03T04:55:51Z"
      }
    },
    {
      "fullUrl": "urn:uuid:c3eaba39-ed6b-4319-bcff-67e5ffb1a0ad",
      "resource": {
        "resourceType": "Observation",
        "id": "c3eaba39-ed6b-4319-bcff-67e5ffb1a0ad",
        "meta": {
          "profile": [
            "http://hl7.eu/fhir/laboratory/StructureDefinition/Observation-resultslab-eu-lab"
          ]
        },
        "performer": [
          {
            "display": "The Central European Lab"
          }
        ],
        "category": [
          {
            "coding": [
              {
                "system": "http://terminology.hl7.org/CodeSystem/observation-category",
                "code": "laboratory"
              }
            ]
          }
        ],
        "code": {
          "coding": [
            {
              "code": "32207-3",
              "system": "http://loinc.org",
              "display": "Platelet distribution width [Entitic volume] in Blood by Automated count"
            }
          ],
          "text": "Platelet distribution width [Entitic volume] in Blood by Automated count"
        },
        "valueQuantity": {
          "system": "http://unitsofmeasure.org",
          "value": 475.4,
          "unit": "fL",
          "code": "fL"
        },
        "referenceRange": [
          {
            "low": {
              "value": 13.4,
              "code": "fL",
              "system": "http://unitsofmeasure.org"
            }
          },
          {
            "high": {
              "value": 17.4,
              "code": "fL",
              "system": "http://unitsofmeasure.org"
            }
          }
        ],
        "interpretation": [
          {
            "coding": [
              {
                "code": "H",
                "system": "http://terminology.hl7.org/CodeSystem/v3-ObservationInterpretation",
                "display": "High"
              }
            ]
          }
        ],
        "text": {
          "status": "generated",
          "div": "<div xmlns=\"http://www.w3.org/1999/xhtml\"><table class=\"hl7__eu__lab__report\"><tr><th>Test</th><th>03-Jun-2025</th><th>Reference&#xA0;Range</th><th>Unit</th></tr><tr><td>Platelet distribution width [Entitic volume] in Blood by Automated count</td><td>475.4</td><td>13.4 - 17.4</td><td>H</td><td>fL</td></tr></table></div>"
        },
        "status": "final",
        "subject": {
          "reference": "urn:uuid:b1fce6b3-5ac6-4c03-9852-a2b82e81ec77",
          "display": "Carole Cooke"
        },
        "effectiveDateTime": "2025-06-03T04:55:51Z"
      }
    },
    {
      "fullUrl": "urn:uuid:812393ba-4249-4c94-9e72-6572e6962cde",
      "resource": {
        "resourceType": "Observation",
        "id": "812393ba-4249-4c94-9e72-6572e6962cde",
        "meta": {
          "profile": [
            "http://hl7.eu/fhir/laboratory/StructureDefinition/Observation-resultslab-eu-lab"
          ]
        },
        "performer": [
          {
            "display": "The Central European Lab"
          }
        ],
        "category": [
          {
            "coding": [
              {
                "system": "http://terminology.hl7.org/CodeSystem/observation-category",
                "code": "laboratory"
              }
            ]
          }
        ],
        "code": {
          "coding": [
            {
              "code": "32623-1",
              "system": "http://loinc.org",
              "display": "Platelet mean volume [Entitic volume] in Blood by Automated count"
            }
          ],
          "text": "Platelet mean volume [Entitic volume] in Blood by Automated count"
        },
        "valueQuantity": {
          "system": "http://unitsofmeasure.org",
          "value": 10.8,
          "unit": "fL",
          "code": "fL"
        },
        "referenceRange": [
          {
            "low": {
              "value": 9.7,
              "code": "fL",
              "system": "http://unitsofmeasure.org"
            }
          },
          {
            "high": {
              "value": 12,
              "code": "fL",
              "system": "http://unitsofmeasure.org"
            }
          }
        ],
        "text": {
          "status": "generated",
          "div": "<div xmlns=\"http://www.w3.org/1999/xhtml\"><table class=\"hl7__eu__lab__report\"><tr><th>Test</th><th>03-Jun-2025</th><th>Reference&#xA0;Range</th><th>Unit</th></tr><tr><td>Platelet mean volume [Entitic volume] in Blood by Automated count</td><td>10.8</td><td>9.7 - 12</td><td></td><td>fL</td></tr></table></div>"
        },
        "status": "final",
        "subject": {
          "reference": "urn:uuid:b1fce6b3-5ac6-4c03-9852-a2b82e81ec77",
          "display": "Carole Cooke"
        },
        "effectiveDateTime": "2025-06-03T04:55:51Z"
      }
    },
    {
      "fullUrl": "urn:uuid:6fe4add0-34e9-4433-a03b-707e47859e08",
      "resource": {
        "resourceType": "DeviceUseStatement",
        "id": "6fe4add0-34e9-4433-a03b-707e47859e08",
        "meta": {
          "profile": [
            "http://hl7.eu/fhir/eps/StructureDefinition/deviceUseStatement-eu-eps"
          ]
        },
        "timingPeriod": {
          "start": "2006-11-06"
        },
        "text": {
          "status": "generated",
          "div": "<div xmlns=\"http://www.w3.org/1999/xhtml\"><table class=\"hl7__ips\"><tr><td>Home nebulizer (physical object)</td><td><span class=\"nb\">06-Nov-2006</span></td></tr></table></div>"
        },
        "status": "active",
        "device": {
          "reference": "urn:uuid:4cdbb9f2-f3d3-42e2-b2bb-0842c078a96a",
          "display": "Home nebulizer (physical object)"
        },
        "subject": {
          "reference": "urn:uuid:b1fce6b3-5ac6-4c03-9852-a2b82e81ec77",
          "display": "Carole Cooke"
        }
      }
    },
    {
      "fullUrl": "urn:uuid:4cdbb9f2-f3d3-42e2-b2bb-0842c078a96a",
      "resource": {
        "resourceType": "Device",
        "id": "4cdbb9f2-f3d3-42e2-b2bb-0842c078a96a",
        "meta": {
          "profile": [
            "http://hl7.eu/fhir/eps/StructureDefinition/device-eu-eps"
          ]
        },
        "udiCarrier": [
          {
            "id": "(01)32652304154602(11)061016(17)311031(10)5526058365835606(21)782194646325613851"
          }
        ],
        "status": "active",
        "patient": {
          "reference": "urn:uuid:b1fce6b3-5ac6-4c03-9852-a2b82e81ec77",
          "display": "Carole Cooke"
        },
        "type": {
          "coding": [
            {
              "code": "170615005",
              "system": "http://snomed.info/sct",
              "display": "Home nebulizer (physical object)"
            }
          ]
        }
      }
    },
    {
      "fullUrl": "urn:uuid:12b1049d-496d-47b5-9714-23f3beab0032",
      "resource": {
        "resourceType": "Device",
        "id": "12b1049d-496d-47b5-9714-23f3beab0032",
        "deviceName": [
          {
            "name": "SYNDERAI Synthetic Generator",
            "type": "manufacturer-name"
          }
        ],
        "version": [
          {
            "value": "5.0"
          }
        ],
        "text": {
          "status": "generated",
          "div": "<div xmlns=\"http://www.w3.org/1999/xhtml\">SYNDERAI Synthetic Generator v5.0</div>"
        },
        "status": "active\"",
        "distinctIdentifier": "synderai-generator-50",
        "manufacturer": "SYNDERAI Project"
      }
    },
    {
      "fullUrl": "urn:uuid:c4e6a7b4-954d-4978-84ea-cd307238898e",
      "resource": {
        "resourceType": "Provenance",
        "id": "c4e6a7b4-954d-4978-84ea-cd307238898e",
        "target": [
          {
            "reference": "Patient/b1fce6b3-5ac6-4c03-9852-a2b82e81ec77"
          },
          {
            "reference": "Bundle/a604aa72-838e-486f-9e29-cbfd43c5ad47"
          },
          {
            "reference": "Composition/2856e61c-d863-4b7b-b9cc-d912c0787130"
          },
          {
            "reference": "PractitionerRole/f1fcb8dd-2afc-4abb-9b17-ccf1d72ca81b"
          },
          {
            "reference": "Organization/0e2e212d-67fc-465a-aa1c-926bc1858c53"
          },
          {
            "reference": "Practitioner/a3fcdc1f-f0d1-4ad4-85c5-45b32a424f9f"
          }
        ],
        "activity": {
          "text": "Synthetic Example Data Generation"
        },
        "policy": [
          "https://synderai.net/synderai-synthetic-data-policy"
        ],
        "agent": [
          {
            "type": {
              "text": "author"
            },
            "who": {
              "reference": "Device/12b1049d-496d-47b5-9714-23f3beab0032"
            }
          }
        ],
        "reason": [
          {
            "text": "Interoperability Testing and Training (non-clinical use)"
          }
        ],
        "text": {
          "status": "generated",
          "div": "<div xmlns=\"http://www.w3.org/1999/xhtml\">Provenance for SYNDERAI Synthetic Example Data Resource</div>"
        },
        "recorded": "2025-06-03T04:55:51Z"
      }
    }
  ],
  "type": "document",
  "timestamp": "2025-06-03T04:55:51Z"
}
