{
  "resourceType": "Bundle",
  "id": "bea25003-aa8d-4440-82ad-f77bc84771fa",
  "meta": {
    "profile": [
      "http://hl7.eu/fhir/eps/StructureDefinition/bundle-eu-eps"
    ]
  },
  "identifier": {
    "assigner": {
      "display": "HL7 Europe"
    },
    "system": "urn:oid:2.16.840.1.113883.2.51.999",
    "value": "8ac8ff44-d59d-4738-9088-f89e01eb2a0c"
  },
  "entry": [
    {
      "fullUrl": "urn:uuid:ab13b8be-6c83-436c-90db-65b95d884d53",
      "resource": {
        "resourceType": "Composition",
        "id": "ab13b8be-6c83-436c-90db-65b95d884d53",
        "meta": {
          "security": [
            {
              "system": "http://terminology.hl7.org/CodeSystem/v3-ActReason",
              "code": "HTEST"
            },
            {
              "system": "http://terminology.hl7.org/CodeSystem/v3-ActReason",
              "code": "TRAIN"
            }
          ],
          "tag": [
            {
              "system": "https://synderai.net/fhir/CodeSystem/tags",
              "code": "synthetic",
              "display": "SYNDERAI Synthetic data"
            }
          ],
          "profile": [
            "http://hl7.eu/fhir/eps/StructureDefinition/composition-eu-eps"
          ]
        },
        "identifier": {
          "assigner": {
            "display": "HL7 Europe"
          },
          "system": "urn:oid:2.16.840.1.113883.2.51.999",
          "value": "2f39f99c-c843-4f49-812f-3417206810bd"
        },
        "type": {
          "coding": [
            {
              "system": "http://loinc.org",
              "code": "60591-5",
              "display": "Patient summary Document"
            }
          ],
          "text": "Patient summary Document"
        },
        "author": [
          {
            "reference": "urn:uuid:e6a8a1b5-37a3-4a91-8baf-a039b2d15347"
          }
        ],
        "section": [
          {
            "text": {
              "status": "generated",
              "div": "<div xmlns=\"http://www.w3.org/1999/xhtml\"><table class=\"hl7__ips\"><tr><td>No known problems or disabilities</td></tr></table></div>"
            },
            "entry": [
              {
                "reference": "urn:uuid:ad116520-0aff-4ce8-b91d-716082b7c8b1"
              }
            ],
            "code": {
              "coding": [
                {
                  "system": "http://loinc.org",
                  "code": "11450-4",
                  "display": "Problem list - Reported"
                }
              ]
            },
            "title": "Problem list"
          },
          {
            "text": {
              "status": "generated",
              "div": "<div xmlns=\"http://www.w3.org/1999/xhtml\"><table class=\"hl7__ips\"><tr><th>Medication</th><th>Since</th><th>Form</th><th>Dosage</th><th>Reason</th></tr><tr><td>Fexofenadine hydrochloride 30 mg oral tablet</td><td><span class=\"nb\">2001-03-17</span></td><td>-</td><td>1 tablet (30 mg) twice daily</td><td>-</td></tr><tr><td>Epinephrine 1 mg/mL solution for injection</td><td><span class=\"nb\">2001-03-17</span></td><td>-</td><td>0.3 mg (1:1000) IM every 5 to 15 minutes as needed</td><td>-</td></tr></table></div>"
            },
            "entry": [
              {
                "reference": "urn:uuid:d574a84d-e1fc-4fbf-89b6-c44980e23302"
              },
              {
                "reference": "urn:uuid:552ee3b6-5ec2-4ccf-be7b-ac4233447d19"
              }
            ],
            "code": {
              "coding": [
                {
                  "system": "http://loinc.org",
                  "code": "10160-0",
                  "display": "History of Medication use Narrative"
                }
              ]
            },
            "title": "Medication list"
          },
          {
            "text": {
              "status": "generated",
              "div": "<div xmlns=\"http://www.w3.org/1999/xhtml\"><table class=\"hl7__ips\"><tr><th>Vaccine</th><th>Date</th></tr><tr><td>Hepatitis B virus antigen only vaccine product</td><td><span class=\"nb\">06-Oct-2022</span></td></tr><tr><td>Clostridium tetani toxoid antigen adsorbed only vaccine product</td><td><span class=\"nb\">06-Oct-2022</span></td></tr><tr><td>Neisseria meningitidis antigen-containing vaccine product</td><td><span class=\"nb\">06-Oct-2022</span></td></tr><tr><td>Influenza virus antigen only vaccine product</td><td><span class=\"nb\">06-Oct-2022</span></td></tr><tr><td>SARS-CoV-2 mRNA vaccine</td><td><span class=\"nb\">13-May-2021</span></td></tr></table></div>"
            },
            "entry": [
              {
                "reference": "urn:uuid:14681ea0-2769-40c6-8e29-e317b16a81dd"
              },
              {
                "reference": "urn:uuid:eac7d742-ebcd-473e-9402-4eed4fcf3fe9"
              },
              {
                "reference": "urn:uuid:afb59e3a-7a4c-4215-b2a2-5e62e0333e0f"
              },
              {
                "reference": "urn:uuid:dbc2dcfa-0bb0-45ee-99b8-31440db37854"
              },
              {
                "reference": "urn:uuid:c3607847-25c0-415e-9888-27eadb7b7e86"
              }
            ],
            "code": {
              "coding": [
                {
                  "system": "http://loinc.org",
                  "code": "11369-6",
                  "display": "History of Immunization note"
                }
              ]
            },
            "title": "Immunizations list"
          },
          {
            "text": {
              "status": "generated",
              "div": "<div xmlns=\"http://www.w3.org/1999/xhtml\"><table class=\"hl7__ips\"><tr><th>Procedure</th><th>Date</th><th>Reason</th></tr><tr><td>Medication reconciliation</td><td><span class=\"nb\">22-Sep-2016</span></td><td>-</td></tr><tr><td>Depression screening</td><td><span class=\"nb\">21-Apr-2016</span></td><td>-</td></tr><tr><td>Anticipatory guidance</td><td><span class=\"nb\">21-Apr-2016</span></td><td>-</td></tr><tr><td>Assessment of anxiety</td><td><span class=\"nb\">21-Apr-2016</span></td><td>-</td></tr><tr><td>Depression screening using PHQ-9 (Patient Health Questionnaire 9) score</td><td><span class=\"nb\">21-Apr-2016</span></td><td>-</td></tr><tr><td>Assessment using Car</td><td><span class=\"nb\">21-Apr-2016</span></td><td>-</td></tr><tr><td>Assessment of substance use</td><td><span class=\"nb\">21-Apr-2016</span></td><td>-</td></tr></table></div>"
            },
            "entry": [
              {
                "reference": "urn:uuid:e30ee8c3-38d9-4a16-aa34-538113136c1c"
              },
              {
                "reference": "urn:uuid:968bc850-8545-4554-9b47-ba064b4b6676"
              },
              {
                "reference": "urn:uuid:081e7834-0635-4c55-a889-3396473fd010"
              },
              {
                "reference": "urn:uuid:832532ca-4c38-4816-92a4-48e643853f28"
              },
              {
                "reference": "urn:uuid:c1e0dbcc-d199-43bd-b701-ba9ad9a2e770"
              },
              {
                "reference": "urn:uuid:bff7a652-5261-48a6-897a-dd773caa09e8"
              },
              {
                "reference": "urn:uuid:5fbe6e36-ac45-4315-84ed-0ac62a471f8f"
              }
            ],
            "code": {
              "coding": [
                {
                  "system": "http://loinc.org",
                  "code": "47519-4",
                  "display": "History of Procedures Document"
                }
              ]
            },
            "title": "Procedure History list"
          },
          {
            "text": {
              "status": "generated",
              "div": "<div xmlns=\"http://www.w3.org/1999/xhtml\"><table class=\"hl7__ips\"><tr><th>Allergy/Intolerance</th><th>Onset Date</th><th>Status</th><th>Type</th><th>Reaction</th></tr><tr><td>Aspirin</td><td><span class=\"nb\">2001-03-17</span></td><td>active</td><td>medication</td><td>Abdominal pain (finding)</td></tr><tr><td>Mold</td><td><span class=\"nb\">2001-03-17</span></td><td>active</td><td>environment</td><td></td></tr><tr><td>Eggs (edible)</td><td><span class=\"nb\">2001-03-17</span></td><td>active</td><td>food</td><td>Wheal (finding)</td></tr><tr><td>Latex</td><td><span class=\"nb\">2001-03-17</span></td><td>active</td><td>environment</td><td>Wheal (finding)</td></tr><tr><td>Grass pollen</td><td><span class=\"nb\">2001-03-17</span></td><td>active</td><td>environment</td><td></td></tr><tr><td>House dust mite</td><td><span class=\"nb\">2001-03-17</span></td><td>active</td><td>environment</td><td></td></tr><tr><td>Animal dander</td><td><span class=\"nb\">2001-03-17</span></td><td>active</td><td>environment</td><td>Rhinoconjunctivitis (disorder)<br></br>Wheal (finding)</td></tr><tr><td>Allergy to substance</td><td><span class=\"nb\">2001-03-17</span></td><td>active</td><td>environment</td><td></td></tr><tr><td>Fish</td><td><span class=\"nb\">2001-03-17</span></td><td>active</td><td>food</td><td>Dyspnea (finding)<br></br>Eruption of skin (disorder)</td></tr><tr><td>Tree pollen</td><td><span class=\"nb\">2001-03-17</span></td><td>active</td><td>environment</td><td></td></tr></table></div>"
            },
            "entry": [
              {
                "reference": "urn:uuid:40d81be5-14c4-4fef-a691-7b21139ddb41"
              },
              {
                "reference": "urn:uuid:d0fd2f8d-c3d4-4576-81d9-4037e63e5654"
              },
              {
                "reference": "urn:uuid:8dd10ab0-2bb8-4884-8de4-817494b82e14"
              },
              {
                "reference": "urn:uuid:cb5ca89f-4251-43ae-9f2d-661eea3a9f3d"
              },
              {
                "reference": "urn:uuid:bf428f45-91f0-45b3-86a4-c793482cc578"
              },
              {
                "reference": "urn:uuid:59a3f878-2686-4584-b201-0e8c82be5a27"
              },
              {
                "reference": "urn:uuid:7f41451b-47c0-4141-b43b-e74bf02712bc"
              },
              {
                "reference": "urn:uuid:fedc38c2-debf-47ff-b330-1f3d12544218"
              },
              {
                "reference": "urn:uuid:67ff3d53-7961-45fa-85bb-d9a3a062da82"
              },
              {
                "reference": "urn:uuid:199ab826-31a6-4d7e-a3c1-02b3d7ac61d9"
              }
            ],
            "code": {
              "coding": [
                {
                  "system": "http://loinc.org",
                  "code": "48765-2",
                  "display": "Allergies and adverse reactions Document"
                }
              ]
            },
            "title": "Allergies and Intolerances"
          },
          {
            "text": {
              "status": "generated",
              "div": "<div xmlns=\"http://www.w3.org/1999/xhtml\"><table class=\"hl7__ips\"><tr><th>Active Planned Care / Goals</th><th>Start Date</th><th>Reason</th></tr><tr><td>Self-care interventions</td><td><span class=\"nb\">05-Mar-2001</span></td><td>-</td></tr></table></div>"
            },
            "entry": [
              {
                "reference": "urn:uuid:0ea91fc6-2b89-4e3b-8d83-6049b8438a24"
              }
            ],
            "code": {
              "coding": [
                {
                  "system": "http://loinc.org",
                  "code": "18776-5",
                  "display": "Plan of care note"
                }
              ]
            },
            "title": "Care Plan"
          },
          {
            "text": {
              "status": "generated",
              "div": "<div xmlns=\"http://www.w3.org/1999/xhtml\"><table class=\"hl7__ips\"><tr><th>Vital Signs</th><th>2022-10-06</th><th>2020-07-17</th></tr><tr><td>Body Height</td><td>188.5 cm</td><td>-</td></tr><tr><td>Pain severity - 0-10 verbal numeric rating [Score] - Reported</td><td>3 {score}</td><td>-</td></tr><tr><td>Body Weight</td><td>88.1 kg</td><td>84.4 kg</td></tr><tr><td>Body mass index (BMI) [Ratio]</td><td>24.8 kg/m2</td><td>-</td></tr><tr><td>Diastolic Blood Pressure</td><td>88 mm[Hg]</td><td>86 mm[Hg]</td></tr><tr><td>Systolic Blood Pressure</td><td>110 mm[Hg]</td><td>113 mm[Hg]</td></tr><tr><td>Heart rate</td><td>83 /min</td><td>178.2 /min</td></tr><tr><td>Respiratory rate</td><td>14 /min</td><td>26.4 /min</td></tr><tr><td>Body temperature</td><td>-</td><td>41.7 Cel</td></tr><tr><td>Oxygen saturation in Arterial blood</td><td>-</td><td>84.8 %</td></tr></table></div>"
            },
            "entry": [
              {
                "reference": "urn:uuid:3856fbf0-a41d-4720-b6df-921f66e5b6b3"
              },
              {
                "reference": "urn:uuid:92693076-30b3-46be-acbb-fe569d630a9a"
              },
              {
                "reference": "urn:uuid:1ebda6ad-6d8c-4768-aa9a-a0ffef1e49db"
              },
              {
                "reference": "urn:uuid:c9c4e0e7-4f7b-4940-b659-bc47e046b8d8"
              },
              {
                "reference": "urn:uuid:d01cf4a2-edd0-45ea-bf11-9d07691968f7"
              },
              {
                "reference": "urn:uuid:d1ad68bb-5e67-4393-95ee-e1b3fafab83a"
              },
              {
                "reference": "urn:uuid:f4eb7452-e596-4e64-ba8c-9d8436257b92"
              },
              {
                "reference": "urn:uuid:f9d9872c-4da2-4e08-9d6a-9dbb33e14b9c"
              },
              {
                "reference": "urn:uuid:94684f8b-0233-4393-bf89-2be5c4bb4b86"
              },
              {
                "reference": "urn:uuid:5d68cb0d-71ff-4b73-893e-7805d8b3f327"
              },
              {
                "reference": "urn:uuid:02677e17-79c0-499b-ad54-881d1acef8ad"
              },
              {
                "reference": "urn:uuid:25ead2c9-54d7-42f5-a29d-54a4ba297a72"
              },
              {
                "reference": "urn:uuid:5c29e57c-066c-4c0f-97c7-4e6237a0c6e8"
              },
              {
                "reference": "urn:uuid:58f39ef5-b9bc-4493-a94a-3331fac87b2b"
              },
              {
                "reference": "urn:uuid:0c179d83-d4fb-40f8-b8fb-569d0753e674"
              }
            ],
            "code": {
              "coding": [
                {
                  "system": "http://loinc.org",
                  "code": "8716-3",
                  "display": "Vital signs note"
                }
              ]
            },
            "title": "Vital Signs"
          },
          {
            "text": {
              "status": "generated",
              "div": "<div xmlns=\"http://www.w3.org/1999/xhtml\"><table class=\"hl7__ips\"><table class=\"hl7__ips\"><thead><tr><th>Recent Lab Observations</th><th>06-OCT-2022</th><th>Reference&#xA0;Range</th><th>Unit</th></tr></thead><tbody><tr><td>Leukocytes [#/volume] in Blood by Automated count</td><td>8.2</td><td>3.5 - 10.5</td><td>10*3/uL</td></tr><tr><td>Erythrocytes [#/volume] in Blood by Automated count</td><td><strong>4.0 L</strong></td><td>4.5 - 6.2</td><td>10*6/uL</td></tr><tr><td>Hemoglobin [Mass/volume] in Blood</td><td>16.0</td><td>14 - 18</td><td>g/dL</td></tr><tr><td>Hematocrit [Volume Fraction] of Blood by Automated count</td><td>48.7</td><td>38 - 52</td><td>%</td></tr><tr><td>MCV [Entitic volume] by Automated count</td><td>86.5</td><td>80 - 98</td><td>fL</td></tr><tr><td>MCH [Entitic mass] by Automated count</td><td>29.8</td><td>27 - 33</td><td>pg</td></tr><tr><td>MCHC [Mass/volume] by Automated count</td><td>33.8</td><td>32 - 36</td><td>g/dL</td></tr><tr><td>Erythrocyte distribution width [Entitic volume] by Automated count</td><td>45.7</td><td>36 - 55</td><td>fL</td></tr><tr><td>Platelets [#/volume] in Blood by Automated count</td><td>251.7</td><td>150 - 350</td><td>10*3/uL</td></tr><tr><td>Platelet distribution width [Entitic volume] in Blood by Automated count</td><td>377.3</td><td>150 - 450</td><td>fL</td></tr><tr><td>Platelet mean volume [Entitic volume] in Blood by Automated count</td><td>11.8</td><td>9.8 - 13.8</td><td>fL</td></tr></tbody></table></table></div>"
            },
            "entry": [
              {
                "reference": "urn:uuid:78209227-811c-43bc-a198-99d225bb299b"
              },
              {
                "reference": "urn:uuid:ff985172-46ca-4456-8200-1b7f004a29ee"
              },
              {
                "reference": "urn:uuid:eed3dbbf-7c56-40ed-bc46-2b8a0afc01d5"
              },
              {
                "reference": "urn:uuid:b249e798-c6ad-48d4-9882-934e41825ee0"
              },
              {
                "reference": "urn:uuid:b86f83ec-8b8c-40e2-92d6-a6af5177f20d"
              },
              {
                "reference": "urn:uuid:9432bde0-27da-4a74-b022-342771abbb68"
              },
              {
                "reference": "urn:uuid:d09a6af7-8c5b-456e-be8f-3f7025ad178f"
              },
              {
                "reference": "urn:uuid:ef482f8b-827a-4734-84eb-767c82016d2b"
              },
              {
                "reference": "urn:uuid:320ea43e-11c9-40ca-a19c-3c60a43404c4"
              },
              {
                "reference": "urn:uuid:6d011450-ed62-4c68-aefc-100b40c68921"
              },
              {
                "reference": "urn:uuid:decfaa92-97c8-4517-ba74-34beaab26f83"
              }
            ],
            "code": {
              "coding": [
                {
                  "system": "http://loinc.org",
                  "code": "30954-2",
                  "display": "Relevant diagnostic tests/laboratory data note"
                }
              ]
            },
            "title": "Relevant diagnostic tests/laboratory data"
          }
        ],
        "title": "European Patient Summary",
        "status": "final",
        "subject": {
          "reference": "urn:uuid:b29ca268-a90f-4ed5-874c-cba8369aca54",
          "display": "Hynek Kubíčková"
        },
        "custodian": {
          "reference": "urn:uuid:8c014e56-f8f4-4ef4-b98d-8c9217f68655"
        },
        "date": "2022-10-06",
        "confidentiality": "N"
      }
    },
    {
      "fullUrl": "urn:uuid:b29ca268-a90f-4ed5-874c-cba8369aca54",
      "resource": {
        "resourceType": "Patient",
        "id": "b29ca268-a90f-4ed5-874c-cba8369aca54",
        "meta": {
          "security": [
            {
              "system": "http://terminology.hl7.org/CodeSystem/v3-ActReason",
              "code": "HTEST"
            },
            {
              "system": "http://terminology.hl7.org/CodeSystem/v3-ActReason",
              "code": "TRAIN"
            }
          ],
          "tag": [
            {
              "system": "https://synderai.net/fhir/CodeSystem/tags",
              "code": "synthetic",
              "display": "SYNDERAI Synthetic data"
            }
          ],
          "profile": [
            "http://hl7.eu/fhir/eps/StructureDefinition/patient-eu-eps"
          ]
        },
        "identifier": [
          {
            "type": {
              "coding": [
                {
                  "code": "PT",
                  "system": "http://terminology.hl7.org/CodeSystem/v2-0203"
                }
              ]
            },
            "system": "http://ec.europa.eu/identifier/eci",
            "value": "9771-756399-9"
          },
          {
            "type": {
              "coding": [
                {
                  "code": "MR",
                  "system": "http://terminology.hl7.org/CodeSystem/v2-0203"
                }
              ]
            },
            "system": "http://local.setting.eu/identifier",
            "value": "0a9c3ea6-b526-4dcc-cde1-545cdfca14b2"
          }
        ],
        "name": [
          {
            "family": "Kubíčková"
          },
          {
            "given": [
              "Hynek"
            ]
          },
          {
            "text": "Hynek Kubíčková"
          }
        ],
        "address": [
          {
            "line": [
              "Vraňanská 9"
            ],
            "use": "home",
            "type": "physical",
            "postalCode": "739 11",
            "city": "Frýdlant nad Ostravicí",
            "country": "Czechia"
          }
        ],
        "telecom": [
          {
            "system": "phone",
            "value": "+420 605 458 784"
          }
        ],
        "extension": [
          {
            "url": "http://hl7.org/fhir/StructureDefinition/patient-nationality",
            "valueCodeableConcept": {
              "coding": [
                {
                  "code": "CZ",
                  "system": "http://hl7.org/fhir/ValueSet/country"
                }
              ]
            }
          }
        ],
        "text": {
          "status": "generated",
          "div": "<div xmlns=\"http://www.w3.org/1999/xhtml\"><table class=\"hl7__ips\"><tr><td>Hynek Kubíčková</td><td>male</td><td>24-Jun-2005</td></tr></table></div>"
        },
        "gender": "male",
        "birthDate": "2005-06-24"
      }
    },
    {
      "fullUrl": "urn:uuid:e6a8a1b5-37a3-4a91-8baf-a039b2d15347",
      "resource": {
        "resourceType": "PractitionerRole",
        "id": "e6a8a1b5-37a3-4a91-8baf-a039b2d15347",
        "meta": {
          "profile": [
            "http://hl7.eu/fhir/base/StructureDefinition/practitionerRole-eu"
          ]
        },
        "text": {
          "status": "generated",
          "div": "<div xmlns=\"http://www.w3.org/1999/xhtml\"><table class=\"hl7__ips\">Provider Role Id e6a8a1b5-37a3-4a91-8baf-a039b2d15347</table></div>"
        },
        "practitioner": {
          "reference": "urn:uuid:8cee5b02-d63b-4d62-89fb-0317ebdfd0c2"
        },
        "organization": {
          "reference": "urn:uuid:8c014e56-f8f4-4ef4-b98d-8c9217f68655"
        }
      }
    },
    {
      "fullUrl": "urn:uuid:8cee5b02-d63b-4d62-89fb-0317ebdfd0c2",
      "resource": {
        "resourceType": "Practitioner",
        "id": "8cee5b02-d63b-4d62-89fb-0317ebdfd0c2",
        "meta": {
          "profile": [
            "http://hl7.eu/fhir/base/StructureDefinition/practitioner-eu"
          ]
        },
        "name": [
          {
            "prefix": [
              "Dr."
            ],
            "given": [
              "Hel"
            ],
            "family": "Ping"
          }
        ],
        "text": {
          "status": "generated",
          "div": "<div xmlns=\"http://www.w3.org/1999/xhtml\"><table class=\"hl7__ips\">Dr. Hel Ping</table></div>"
        }
      }
    },
    {
      "fullUrl": "urn:uuid:8c014e56-f8f4-4ef4-b98d-8c9217f68655",
      "resource": {
        "resourceType": "Organization",
        "id": "8c014e56-f8f4-4ef4-b98d-8c9217f68655",
        "meta": {
          "profile": [
            "http://hl7.eu/fhir/base/StructureDefinition/organization-eu"
          ]
        },
        "identifier": [
          {
            "assigner": {
              "display": "HL7 Europe"
            },
            "system": "urn:oid:2.16.840.1.113883.2.51.999",
            "value": "4e6553b1-99ed-4cf2-8ff7-06ab7906fe21"
          }
        ],
        "address": [
          {
            "city": "Čeladná",
            "postalCode": "739 12",
            "country": "Czechia"
          }
        ],
        "text": {
          "status": "generated",
          "div": "<div xmlns=\"http://www.w3.org/1999/xhtml\"><table class=\"hl7__ips\">Beskydské rehabilitační centrum</table></div>"
        },
        "name": "Beskydské rehabilitační centrum"
      }
    },
    {
      "fullUrl": "urn:uuid:ad116520-0aff-4ce8-b91d-716082b7c8b1",
      "resource": {
        "resourceType": "Condition",
        "id": "ad116520-0aff-4ce8-b91d-716082b7c8b1",
        "meta": {
          "profile": [
            "http://hl7.org/fhir/uv/ips/StructureDefinition/Condition-uv-ips"
          ]
        },
        "code": {
          "coding": [
            {
              "code": "160245001",
              "system": "http://snomed.info/sct",
              "display": "No current problems or disability (situation)"
            }
          ]
        },
        "text": {
          "status": "generated",
          "div": "<div xmlns=\"http://www.w3.org/1999/xhtml\"><table class=\"hl7__ips\"><tr><td>No known problems or disabilities</td></tr></table></div>"
        },
        "subject": {
          "reference": "Patient/b29ca268-a90f-4ed5-874c-cba8369aca54",
          "display": "Hynek Kubíčková"
        },
        "_onsetDateTime": {
          "extension": [
            {
              "url": "http://hl7.org/fhir/StructureDefinition/data-absent-reason",
              "valueCode": "unknown\""
            }
          ]
        }
      }
    },
    {
      "fullUrl": "urn:uuid:0dddab27-e19b-45c9-8eaf-65cbe8a93c7c",
      "resource": {
        "resourceType": "Medication",
        "id": "0dddab27-e19b-45c9-8eaf-65cbe8a93c7c",
        "meta": {
          "profile": [
            "http://hl7.eu/fhir/eps/StructureDefinition/Medication-eu-eps"
          ]
        },
        "code": {
          "coding": [
            {
              "code": "371748006",
              "system": "http://snomed.info/sct",
              "display": "Fexofenadine hydrochloride 30 mg oral tablet"
            }
          ],
          "text": "Fexofenadine hydrochloride 30 mg oral tablet"
        },
        "text": {
          "status": "generated",
          "div": "<div xmlns=\"http://www.w3.org/1999/xhtml\">Fexofenadine hydrochloride 30 mg oral tablet</div>"
        }
      }
    },
    {
      "fullUrl": "urn:uuid:d574a84d-e1fc-4fbf-89b6-c44980e23302",
      "resource": {
        "resourceType": "MedicationStatement",
        "id": "d574a84d-e1fc-4fbf-89b6-c44980e23302",
        "meta": {
          "profile": [
            "http://hl7.eu/fhir/eps/StructureDefinition/MedicationStatement-eu-eps"
          ]
        },
        "effectivePeriod": {
          "start": "2001-03-17"
        },
        "dosage": [
          {
            "doseAndRate": [
              {
                "doseQuantity": {
                  "value": 1,
                  "unit": "{tbl}",
                  "system": "$ucum",
                  "code": "{tbl}"
                }
              }
            ],
            "timing": {
              "repeat": {
                "frequency": 2,
                "period": 1,
                "periodUnit": "d"
              }
            },
            "text": "1 tablet (30 mg) twice daily",
            "asNeededBoolean": false
          }
        ],
        "text": {
          "status": "generated",
          "div": "<div xmlns=\"http://www.w3.org/1999/xhtml\"><table class=\"hl7__ips first25\"><tr><th>Medication</th><th>Since</th><th>Form</th><th>Dosage</th><th>Reason</th></tr><tr><td>Fexofenadine hydrochloride 30 mg oral tablet</td><td><span class=\"nb\">2001-03-17</span></td><td>-</td><td>1 tablet (30 mg) twice daily</td><td>-</td></tr></table></div>"
        },
        "status": "active",
        "medicationReference": {
          "reference": "urn:uuid:0dddab27-e19b-45c9-8eaf-65cbe8a93c7c",
          "display": "Fexofenadine hydrochloride 30 mg oral tablet"
        },
        "subject": {
          "reference": "urn:uuid:b29ca268-a90f-4ed5-874c-cba8369aca54",
          "display": "Hynek Kubíčková"
        }
      }
    },
    {
      "fullUrl": "urn:uuid:cfc5797f-b89d-4ad0-a893-62c992f2c56d",
      "resource": {
        "resourceType": "Medication",
        "id": "cfc5797f-b89d-4ad0-a893-62c992f2c56d",
        "meta": {
          "profile": [
            "http://hl7.eu/fhir/eps/StructureDefinition/Medication-eu-eps"
          ]
        },
        "code": {
          "coding": [
            {
              "code": "781862008",
              "system": "http://snomed.info/sct",
              "display": "Epinephrine 1 mg/mL solution for injection"
            }
          ],
          "text": "Epinephrine 1 mg/mL solution for injection"
        },
        "text": {
          "status": "generated",
          "div": "<div xmlns=\"http://www.w3.org/1999/xhtml\">Epinephrine 1 mg/mL solution for injection</div>"
        }
      }
    },
    {
      "fullUrl": "urn:uuid:552ee3b6-5ec2-4ccf-be7b-ac4233447d19",
      "resource": {
        "resourceType": "MedicationStatement",
        "id": "552ee3b6-5ec2-4ccf-be7b-ac4233447d19",
        "meta": {
          "profile": [
            "http://hl7.eu/fhir/eps/StructureDefinition/MedicationStatement-eu-eps"
          ]
        },
        "effectivePeriod": {
          "start": "2001-03-17"
        },
        "dosage": [
          {
            "doseAndRate": [
              {
                "doseQuantity": {
                  "value": 0.3,
                  "unit": "mg",
                  "system": "$ucum",
                  "code": "mg"
                }
              }
            ],
            "timing": {
              "repeat": {
                "frequency": 1,
                "period": 5,
                "periodUnit": "min"
              }
            },
            "text": "0.3 mg (1:1000) IM every 5 to 15 minutes as needed",
            "asNeededBoolean": true
          }
        ],
        "text": {
          "status": "generated",
          "div": "<div xmlns=\"http://www.w3.org/1999/xhtml\"><table class=\"hl7__ips first25\"><tr><th>Medication</th><th>Since</th><th>Form</th><th>Dosage</th><th>Reason</th></tr><tr><td>Epinephrine 1 mg/mL solution for injection</td><td><span class=\"nb\">2001-03-17</span></td><td>-</td><td>0.3 mg (1:1000) IM every 5 to 15 minutes as needed</td><td>-</td></tr></table></div>"
        },
        "status": "active",
        "medicationReference": {
          "reference": "urn:uuid:cfc5797f-b89d-4ad0-a893-62c992f2c56d",
          "display": "Epinephrine 1 mg/mL solution for injection"
        },
        "subject": {
          "reference": "urn:uuid:b29ca268-a90f-4ed5-874c-cba8369aca54",
          "display": "Hynek Kubíčková"
        }
      }
    },
    {
      "fullUrl": "urn:uuid:14681ea0-2769-40c6-8e29-e317b16a81dd",
      "resource": {
        "resourceType": "Immunization",
        "id": "14681ea0-2769-40c6-8e29-e317b16a81dd",
        "meta": {
          "profile": [
            "http://hl7.org/fhir/uv/ips/StructureDefinition/Immunization-uv-ips"
          ]
        },
        "vaccineCode": {
          "coding": [
            {
              "code": "871822003",
              "system": "http://snomed.info/sct",
              "display": "Vaccine product containing Hepatitis B virus antigen"
            },
            {
              "code": "J07BC01",
              "system": "http://www.whocc.no/atc",
              "display": "Hepatitis B vaccines"
            }
          ],
          "text": "Hepatitis B virus antigen only vaccine product"
        },
        "site": {
          "coding": [
            {
              "code": "244979005",
              "system": "http://snomed.info/sct",
              "display": "Entire muscle of upper arm"
            }
          ],
          "text": "Entire muscle of upper arm"
        },
        "route": {
          "coding": [
            {
              "code": "78421000",
              "system": "http://snomed.info/sct",
              "display": "Intramuscular route"
            }
          ],
          "text": "Intramuscular route"
        },
        "text": {
          "status": "generated",
          "div": "<div xmlns=\"http://www.w3.org/1999/xhtml\"><table class=\"hl7__ips\"><tr><td>Hepatitis B virus antigen only vaccine product</td><td><span class=\"nb\">06-Oct-2022</span></td></tr></table></div>"
        },
        "status": "completed",
        "patient": {
          "reference": "urn:uuid:b29ca268-a90f-4ed5-874c-cba8369aca54",
          "display": "Hynek Kubíčková"
        },
        "occurrenceDateTime": "2022-10-06",
        "lotNumber": "SA-HpXApQLj",
        "expirationDate": "2022-11-25"
      }
    },
    {
      "fullUrl": "urn:uuid:eac7d742-ebcd-473e-9402-4eed4fcf3fe9",
      "resource": {
        "resourceType": "Immunization",
        "id": "eac7d742-ebcd-473e-9402-4eed4fcf3fe9",
        "meta": {
          "profile": [
            "http://hl7.org/fhir/uv/ips/StructureDefinition/Immunization-uv-ips"
          ]
        },
        "vaccineCode": {
          "coding": [
            {
              "code": "777725002",
              "system": "http://snomed.info/sct",
              "display": "Vaccine product containing only Clostridium tetani toxoid antigen adsorbed"
            },
            {
              "code": "J07AM51",
              "system": "http://www.whocc.no/atc",
              "display": "Diphtheria-tetanus vaccines, adult type"
            }
          ],
          "text": "Clostridium tetani toxoid antigen adsorbed only vaccine product"
        },
        "site": {
          "coding": [
            {
              "code": "244979005",
              "system": "http://snomed.info/sct",
              "display": "Entire muscle of upper arm"
            }
          ],
          "text": "Entire muscle of upper arm"
        },
        "route": {
          "coding": [
            {
              "code": "78421000",
              "system": "http://snomed.info/sct",
              "display": "Intramuscular route"
            }
          ],
          "text": "Intramuscular route"
        },
        "text": {
          "status": "generated",
          "div": "<div xmlns=\"http://www.w3.org/1999/xhtml\"><table class=\"hl7__ips\"><tr><td>Clostridium tetani toxoid antigen adsorbed only vaccine product</td><td><span class=\"nb\">06-Oct-2022</span></td></tr></table></div>"
        },
        "status": "completed",
        "patient": {
          "reference": "urn:uuid:b29ca268-a90f-4ed5-874c-cba8369aca54",
          "display": "Hynek Kubíčková"
        },
        "occurrenceDateTime": "2022-10-06",
        "lotNumber": "NY-Ao7u4sYeh",
        "expirationDate": "2023-06-24"
      }
    },
    {
      "fullUrl": "urn:uuid:afb59e3a-7a4c-4215-b2a2-5e62e0333e0f",
      "resource": {
        "resourceType": "Immunization",
        "id": "afb59e3a-7a4c-4215-b2a2-5e62e0333e0f",
        "meta": {
          "profile": [
            "http://hl7.org/fhir/uv/ips/StructureDefinition/Immunization-uv-ips"
          ]
        },
        "vaccineCode": {
          "coding": [
            {
              "code": "836401009",
              "system": "http://snomed.info/sct",
              "display": "Vaccine product containing Neisseria meningitidis antigen"
            },
            {
              "code": "J07AH08",
              "system": "http://www.whocc.no/atc",
              "display": "Meningococcal vaccines, conjugated"
            }
          ],
          "text": "Neisseria meningitidis antigen-containing vaccine product"
        },
        "site": {
          "coding": [
            {
              "code": "244979005",
              "system": "http://snomed.info/sct",
              "display": "Entire muscle of upper arm"
            }
          ],
          "text": "Entire muscle of upper arm"
        },
        "route": {
          "coding": [
            {
              "code": "78421000",
              "system": "http://snomed.info/sct",
              "display": "Intramuscular route"
            }
          ],
          "text": "Intramuscular route"
        },
        "text": {
          "status": "generated",
          "div": "<div xmlns=\"http://www.w3.org/1999/xhtml\"><table class=\"hl7__ips\"><tr><td>Neisseria meningitidis antigen-containing vaccine product</td><td><span class=\"nb\">06-Oct-2022</span></td></tr></table></div>"
        },
        "status": "completed",
        "patient": {
          "reference": "urn:uuid:b29ca268-a90f-4ed5-874c-cba8369aca54",
          "display": "Hynek Kubíčková"
        },
        "occurrenceDateTime": "2022-10-06",
        "lotNumber": "CX-yBQVBv5L",
        "expirationDate": "2023-03-27"
      }
    },
    {
      "fullUrl": "urn:uuid:dbc2dcfa-0bb0-45ee-99b8-31440db37854",
      "resource": {
        "resourceType": "Immunization",
        "id": "dbc2dcfa-0bb0-45ee-99b8-31440db37854",
        "meta": {
          "profile": [
            "http://hl7.org/fhir/uv/ips/StructureDefinition/Immunization-uv-ips"
          ]
        },
        "vaccineCode": {
          "coding": [
            {
              "code": "1181000221105",
              "system": "http://snomed.info/sct",
              "display": "Vaccine product containing Influenza virus antigen"
            },
            {
              "code": "J07BB02",
              "system": "http://www.whocc.no/atc",
              "display": "Influenza, inactivated, split virus"
            }
          ],
          "text": "Influenza virus antigen only vaccine product"
        },
        "site": {
          "coding": [
            {
              "code": "244979005",
              "system": "http://snomed.info/sct",
              "display": "Entire muscle of upper arm"
            }
          ],
          "text": "Entire muscle of upper arm"
        },
        "route": {
          "coding": [
            {
              "code": "78421000",
              "system": "http://snomed.info/sct",
              "display": "Intramuscular route"
            }
          ],
          "text": "Intramuscular route"
        },
        "text": {
          "status": "generated",
          "div": "<div xmlns=\"http://www.w3.org/1999/xhtml\"><table class=\"hl7__ips\"><tr><td>Influenza virus antigen only vaccine product</td><td><span class=\"nb\">06-Oct-2022</span></td></tr></table></div>"
        },
        "status": "completed",
        "patient": {
          "reference": "urn:uuid:b29ca268-a90f-4ed5-874c-cba8369aca54",
          "display": "Hynek Kubíčková"
        },
        "occurrenceDateTime": "2022-10-06",
        "lotNumber": "DU-CKMFRPk",
        "expirationDate": "2023-05-28"
      }
    },
    {
      "fullUrl": "urn:uuid:c3607847-25c0-415e-9888-27eadb7b7e86",
      "resource": {
        "resourceType": "Immunization",
        "id": "c3607847-25c0-415e-9888-27eadb7b7e86",
        "meta": {
          "profile": [
            "http://hl7.org/fhir/uv/ips/StructureDefinition/Immunization-uv-ips"
          ]
        },
        "vaccineCode": {
          "coding": [
            {
              "code": "1119349007",
              "system": "http://snomed.info/sct",
              "display": "Vaccine product containing SARS-CoV-2 mRNA"
            },
            {
              "code": "J07BX03",
              "system": "http://www.whocc.no/atc",
              "display": "COVID-19 mRNA vaccines"
            }
          ],
          "text": "SARS-CoV-2 mRNA vaccine"
        },
        "site": {
          "coding": [
            {
              "code": "244979005",
              "system": "http://snomed.info/sct",
              "display": "Entire muscle of upper arm"
            }
          ],
          "text": "Entire muscle of upper arm"
        },
        "route": {
          "coding": [
            {
              "code": "78421000",
              "system": "http://snomed.info/sct",
              "display": "Intramuscular route"
            }
          ],
          "text": "Intramuscular route"
        },
        "text": {
          "status": "generated",
          "div": "<div xmlns=\"http://www.w3.org/1999/xhtml\"><table class=\"hl7__ips\"><tr><td>SARS-CoV-2 mRNA vaccine</td><td><span class=\"nb\">13-May-2021</span></td></tr></table></div>"
        },
        "status": "completed",
        "patient": {
          "reference": "urn:uuid:b29ca268-a90f-4ed5-874c-cba8369aca54",
          "display": "Hynek Kubíčková"
        },
        "occurrenceDateTime": "2021-05-13",
        "lotNumber": "MY-tFnX",
        "expirationDate": "2022-04-15"
      }
    },
    {
      "fullUrl": "urn:uuid:e30ee8c3-38d9-4a16-aa34-538113136c1c",
      "resource": {
        "resourceType": "Procedure",
        "id": "e30ee8c3-38d9-4a16-aa34-538113136c1c",
        "meta": {
          "profile": [
            "http://hl7.org/fhir/uv/ips/StructureDefinition/Procedure-uv-ips"
          ]
        },
        "code": {
          "coding": [
            {
              "code": "430193006",
              "system": "http://snomed.info/sct",
              "display": "Medication Reconciliation (procedure)"
            }
          ],
          "text": "Medication reconciliation"
        },
        "text": {
          "status": "generated",
          "div": "<div xmlns=\"http://www.w3.org/1999/xhtml\"><table class=\"hl7__ips\"><tr><td>Medication reconciliation</td><td><span class=\"nb\">22-Sep-2016</span></td><td>-</td></tr></table></div>"
        },
        "status": "completed",
        "performedDateTime": "2016-09-22",
        "subject": {
          "reference": "urn:uuid:",
          "display": "Hynek Kubíčková"
        }
      }
    },
    {
      "fullUrl": "urn:uuid:968bc850-8545-4554-9b47-ba064b4b6676",
      "resource": {
        "resourceType": "Procedure",
        "id": "968bc850-8545-4554-9b47-ba064b4b6676",
        "meta": {
          "profile": [
            "http://hl7.org/fhir/uv/ips/StructureDefinition/Procedure-uv-ips"
          ]
        },
        "code": {
          "coding": [
            {
              "code": "171207006",
              "system": "http://snomed.info/sct",
              "display": "Depression screening (procedure)"
            }
          ],
          "text": "Depression screening"
        },
        "text": {
          "status": "generated",
          "div": "<div xmlns=\"http://www.w3.org/1999/xhtml\"><table class=\"hl7__ips\"><tr><td>Depression screening</td><td><span class=\"nb\">21-Apr-2016</span></td><td>-</td></tr></table></div>"
        },
        "status": "completed",
        "performedDateTime": "2016-04-21",
        "subject": {
          "reference": "urn:uuid:",
          "display": "Hynek Kubíčková"
        }
      }
    },
    {
      "fullUrl": "urn:uuid:081e7834-0635-4c55-a889-3396473fd010",
      "resource": {
        "resourceType": "Procedure",
        "id": "081e7834-0635-4c55-a889-3396473fd010",
        "meta": {
          "profile": [
            "http://hl7.org/fhir/uv/ips/StructureDefinition/Procedure-uv-ips"
          ]
        },
        "code": {
          "coding": [
            {
              "code": "386516004",
              "system": "http://snomed.info/sct",
              "display": "Anticipatory guidance (procedure)"
            }
          ],
          "text": "Anticipatory guidance"
        },
        "text": {
          "status": "generated",
          "div": "<div xmlns=\"http://www.w3.org/1999/xhtml\"><table class=\"hl7__ips\"><tr><td>Anticipatory guidance</td><td><span class=\"nb\">21-Apr-2016</span></td><td>-</td></tr></table></div>"
        },
        "status": "completed",
        "performedDateTime": "2016-04-21",
        "subject": {
          "reference": "urn:uuid:",
          "display": "Hynek Kubíčková"
        }
      }
    },
    {
      "fullUrl": "urn:uuid:832532ca-4c38-4816-92a4-48e643853f28",
      "resource": {
        "resourceType": "Procedure",
        "id": "832532ca-4c38-4816-92a4-48e643853f28",
        "meta": {
          "profile": [
            "http://hl7.org/fhir/uv/ips/StructureDefinition/Procedure-uv-ips"
          ]
        },
        "code": {
          "coding": [
            {
              "code": "710841007",
              "system": "http://snomed.info/sct",
              "display": "Assessment of anxiety (procedure)"
            }
          ],
          "text": "Assessment of anxiety"
        },
        "text": {
          "status": "generated",
          "div": "<div xmlns=\"http://www.w3.org/1999/xhtml\"><table class=\"hl7__ips\"><tr><td>Assessment of anxiety</td><td><span class=\"nb\">21-Apr-2016</span></td><td>-</td></tr></table></div>"
        },
        "status": "completed",
        "performedDateTime": "2016-04-21",
        "subject": {
          "reference": "urn:uuid:",
          "display": "Hynek Kubíčková"
        }
      }
    },
    {
      "fullUrl": "urn:uuid:c1e0dbcc-d199-43bd-b701-ba9ad9a2e770",
      "resource": {
        "resourceType": "Procedure",
        "id": "c1e0dbcc-d199-43bd-b701-ba9ad9a2e770",
        "meta": {
          "profile": [
            "http://hl7.org/fhir/uv/ips/StructureDefinition/Procedure-uv-ips"
          ]
        },
        "code": {
          "coding": [
            {
              "code": "715252007",
              "system": "http://snomed.info/sct",
              "display": "Depression screening using Patient Health Questionnaire Nine Item score (procedure)"
            }
          ],
          "text": "Depression screening using PHQ-9 (Patient Health Questionnaire 9) score"
        },
        "text": {
          "status": "generated",
          "div": "<div xmlns=\"http://www.w3.org/1999/xhtml\"><table class=\"hl7__ips\"><tr><td>Depression screening using PHQ-9 (Patient Health Questionnaire 9) score</td><td><span class=\"nb\">21-Apr-2016</span></td><td>-</td></tr></table></div>"
        },
        "status": "completed",
        "performedDateTime": "2016-04-21",
        "subject": {
          "reference": "urn:uuid:",
          "display": "Hynek Kubíčková"
        }
      }
    },
    {
      "fullUrl": "urn:uuid:bff7a652-5261-48a6-897a-dd773caa09e8",
      "resource": {
        "resourceType": "Procedure",
        "id": "bff7a652-5261-48a6-897a-dd773caa09e8",
        "meta": {
          "profile": [
            "http://hl7.org/fhir/uv/ips/StructureDefinition/Procedure-uv-ips"
          ]
        },
        "code": {
          "coding": [
            {
              "code": "868187001",
              "system": "http://snomed.info/sct",
              "display": "Assessment using Car  Relax  Alone  Forget  Friends  Trouble Screening Test (procedure)"
            }
          ],
          "text": "Assessment using Car"
        },
        "text": {
          "status": "generated",
          "div": "<div xmlns=\"http://www.w3.org/1999/xhtml\"><table class=\"hl7__ips\"><tr><td>Assessment using Car</td><td><span class=\"nb\">21-Apr-2016</span></td><td>-</td></tr></table></div>"
        },
        "status": "completed",
        "performedDateTime": "2016-04-21",
        "subject": {
          "reference": "urn:uuid:",
          "display": "Hynek Kubíčková"
        }
      }
    },
    {
      "fullUrl": "urn:uuid:5fbe6e36-ac45-4315-84ed-0ac62a471f8f",
      "resource": {
        "resourceType": "Procedure",
        "id": "5fbe6e36-ac45-4315-84ed-0ac62a471f8f",
        "meta": {
          "profile": [
            "http://hl7.org/fhir/uv/ips/StructureDefinition/Procedure-uv-ips"
          ]
        },
        "code": {
          "coding": [
            {
              "code": "428211000124100",
              "system": "http://snomed.info/sct",
              "display": "Assessment of substance use (procedure)"
            }
          ],
          "text": "Assessment of substance use"
        },
        "text": {
          "status": "generated",
          "div": "<div xmlns=\"http://www.w3.org/1999/xhtml\"><table class=\"hl7__ips\"><tr><td>Assessment of substance use</td><td><span class=\"nb\">21-Apr-2016</span></td><td>-</td></tr></table></div>"
        },
        "status": "completed",
        "performedDateTime": "2016-04-21",
        "subject": {
          "reference": "urn:uuid:",
          "display": "Hynek Kubíčková"
        }
      }
    },
    {
      "fullUrl": "urn:uuid:40d81be5-14c4-4fef-a691-7b21139ddb41",
      "resource": {
        "resourceType": "AllergyIntolerance",
        "id": "40d81be5-14c4-4fef-a691-7b21139ddb41",
        "meta": {
          "profile": [
            "http://hl7.eu/fhir/eps/StructureDefinition/allergyIntolerance-eu-eps"
          ]
        },
        "code": {
          "coding": [
            {
              "code": "1191",
              "system": "http://snomed.info/sct",
              "display": "Aspirin"
            }
          ],
          "text": "Aspirin"
        },
        "clinicalStatus": {
          "coding": [
            {
              "code": "active",
              "system": "http://terminology.hl7.org/CodeSystem/allergyintolerance-clinical"
            }
          ]
        },
        "category": [
          "medication"
        ],
        "reaction": [
          {
            "manifestation": [
              {
                "coding": [
                  {
                    "code": "21522001",
                    "system": "http://snomed.info/sct",
                    "display": "Abdominal pain (finding)"
                  }
                ]
              }
            ],
            "severity": "moderate"
          }
        ],
        "text": {
          "status": "generated",
          "div": "<div xmlns=\"http://www.w3.org/1999/xhtml\"><table class=\"hl7__ips\"><tr><th>Allergy/Intolerance</th><th>Onset Date</th><th>Status</th><th>Type</th><th>Reaction</th></tr><tr><td>Aspirin</td><td><span class=\"nb\">2001-03-17</span></td><td>active</td><td>medication</td><td>Abdominal pain (finding)</td></tr></table></div>"
        },
        "onsetDateTime": "2001-03-17",
        "verificationStatus": {
          "coding": [
            {
              "code": "confirmed",
              "system": "http://terminology.hl7.org/CodeSystem/allergyintolerance-verification"
            }
          ]
        },
        "type": "allergy",
        "patient": {
          "reference": "urn:uuid:b29ca268-a90f-4ed5-874c-cba8369aca54",
          "display": "Hynek Kubíčková"
        }
      }
    },
    {
      "fullUrl": "urn:uuid:d0fd2f8d-c3d4-4576-81d9-4037e63e5654",
      "resource": {
        "resourceType": "AllergyIntolerance",
        "id": "d0fd2f8d-c3d4-4576-81d9-4037e63e5654",
        "meta": {
          "profile": [
            "http://hl7.eu/fhir/eps/StructureDefinition/allergyIntolerance-eu-eps"
          ]
        },
        "code": {
          "coding": [
            {
              "code": "84489001",
              "system": "http://snomed.info/sct",
              "display": "Mold (organism)"
            }
          ],
          "text": "Mold"
        },
        "clinicalStatus": {
          "coding": [
            {
              "code": "active",
              "system": "http://terminology.hl7.org/CodeSystem/allergyintolerance-clinical"
            }
          ]
        },
        "category": [
          "environment"
        ],
        "text": {
          "status": "generated",
          "div": "<div xmlns=\"http://www.w3.org/1999/xhtml\"><table class=\"hl7__ips\"><tr><th>Allergy/Intolerance</th><th>Onset Date</th><th>Status</th><th>Type</th><th>Reaction</th></tr><tr><td>Mold</td><td><span class=\"nb\">2001-03-17</span></td><td>active</td><td>environment</td><td></td></tr></table></div>"
        },
        "onsetDateTime": "2001-03-17",
        "verificationStatus": {
          "coding": [
            {
              "code": "confirmed",
              "system": "http://terminology.hl7.org/CodeSystem/allergyintolerance-verification"
            }
          ]
        },
        "type": "allergy",
        "patient": {
          "reference": "urn:uuid:b29ca268-a90f-4ed5-874c-cba8369aca54",
          "display": "Hynek Kubíčková"
        }
      }
    },
    {
      "fullUrl": "urn:uuid:8dd10ab0-2bb8-4884-8de4-817494b82e14",
      "resource": {
        "resourceType": "AllergyIntolerance",
        "id": "8dd10ab0-2bb8-4884-8de4-817494b82e14",
        "meta": {
          "profile": [
            "http://hl7.eu/fhir/eps/StructureDefinition/allergyIntolerance-eu-eps"
          ]
        },
        "code": {
          "coding": [
            {
              "code": "102263004",
              "system": "http://snomed.info/sct",
              "display": "Eggs (edible) (substance)"
            }
          ],
          "text": "Eggs (edible)"
        },
        "clinicalStatus": {
          "coding": [
            {
              "code": "active",
              "system": "http://terminology.hl7.org/CodeSystem/allergyintolerance-clinical"
            }
          ]
        },
        "category": [
          "food"
        ],
        "reaction": [
          {
            "manifestation": [
              {
                "coding": [
                  {
                    "code": "247472004",
                    "system": "http://snomed.info/sct",
                    "display": "Wheal (finding)"
                  }
                ]
              }
            ],
            "severity": "moderate"
          }
        ],
        "text": {
          "status": "generated",
          "div": "<div xmlns=\"http://www.w3.org/1999/xhtml\"><table class=\"hl7__ips\"><tr><th>Allergy/Intolerance</th><th>Onset Date</th><th>Status</th><th>Type</th><th>Reaction</th></tr><tr><td>Eggs (edible)</td><td><span class=\"nb\">2001-03-17</span></td><td>active</td><td>food</td><td>Wheal (finding)</td></tr></table></div>"
        },
        "onsetDateTime": "2001-03-17",
        "verificationStatus": {
          "coding": [
            {
              "code": "confirmed",
              "system": "http://terminology.hl7.org/CodeSystem/allergyintolerance-verification"
            }
          ]
        },
        "type": "allergy",
        "patient": {
          "reference": "urn:uuid:b29ca268-a90f-4ed5-874c-cba8369aca54",
          "display": "Hynek Kubíčková"
        }
      }
    },
    {
      "fullUrl": "urn:uuid:cb5ca89f-4251-43ae-9f2d-661eea3a9f3d",
      "resource": {
        "resourceType": "AllergyIntolerance",
        "id": "cb5ca89f-4251-43ae-9f2d-661eea3a9f3d",
        "meta": {
          "profile": [
            "http://hl7.eu/fhir/eps/StructureDefinition/allergyIntolerance-eu-eps"
          ]
        },
        "code": {
          "coding": [
            {
              "code": "111088007",
              "system": "http://snomed.info/sct",
              "display": "Latex (substance)"
            }
          ],
          "text": "Latex"
        },
        "clinicalStatus": {
          "coding": [
            {
              "code": "active",
              "system": "http://terminology.hl7.org/CodeSystem/allergyintolerance-clinical"
            }
          ]
        },
        "category": [
          "environment"
        ],
        "reaction": [
          {
            "manifestation": [
              {
                "coding": [
                  {
                    "code": "247472004",
                    "system": "http://snomed.info/sct",
                    "display": "Wheal (finding)"
                  }
                ]
              }
            ],
            "severity": "mild"
          }
        ],
        "text": {
          "status": "generated",
          "div": "<div xmlns=\"http://www.w3.org/1999/xhtml\"><table class=\"hl7__ips\"><tr><th>Allergy/Intolerance</th><th>Onset Date</th><th>Status</th><th>Type</th><th>Reaction</th></tr><tr><td>Latex</td><td><span class=\"nb\">2001-03-17</span></td><td>active</td><td>environment</td><td>Wheal (finding)</td></tr></table></div>"
        },
        "onsetDateTime": "2001-03-17",
        "verificationStatus": {
          "coding": [
            {
              "code": "confirmed",
              "system": "http://terminology.hl7.org/CodeSystem/allergyintolerance-verification"
            }
          ]
        },
        "type": "allergy",
        "patient": {
          "reference": "urn:uuid:b29ca268-a90f-4ed5-874c-cba8369aca54",
          "display": "Hynek Kubíčková"
        }
      }
    },
    {
      "fullUrl": "urn:uuid:bf428f45-91f0-45b3-86a4-c793482cc578",
      "resource": {
        "resourceType": "AllergyIntolerance",
        "id": "bf428f45-91f0-45b3-86a4-c793482cc578",
        "meta": {
          "profile": [
            "http://hl7.eu/fhir/eps/StructureDefinition/allergyIntolerance-eu-eps"
          ]
        },
        "code": {
          "coding": [
            {
              "code": "256277009",
              "system": "http://snomed.info/sct",
              "display": "Grass pollen (substance)"
            }
          ],
          "text": "Grass pollen"
        },
        "clinicalStatus": {
          "coding": [
            {
              "code": "active",
              "system": "http://terminology.hl7.org/CodeSystem/allergyintolerance-clinical"
            }
          ]
        },
        "category": [
          "environment"
        ],
        "text": {
          "status": "generated",
          "div": "<div xmlns=\"http://www.w3.org/1999/xhtml\"><table class=\"hl7__ips\"><tr><th>Allergy/Intolerance</th><th>Onset Date</th><th>Status</th><th>Type</th><th>Reaction</th></tr><tr><td>Grass pollen</td><td><span class=\"nb\">2001-03-17</span></td><td>active</td><td>environment</td><td></td></tr></table></div>"
        },
        "onsetDateTime": "2001-03-17",
        "verificationStatus": {
          "coding": [
            {
              "code": "confirmed",
              "system": "http://terminology.hl7.org/CodeSystem/allergyintolerance-verification"
            }
          ]
        },
        "type": "allergy",
        "patient": {
          "reference": "urn:uuid:b29ca268-a90f-4ed5-874c-cba8369aca54",
          "display": "Hynek Kubíčková"
        }
      }
    },
    {
      "fullUrl": "urn:uuid:59a3f878-2686-4584-b201-0e8c82be5a27",
      "resource": {
        "resourceType": "AllergyIntolerance",
        "id": "59a3f878-2686-4584-b201-0e8c82be5a27",
        "meta": {
          "profile": [
            "http://hl7.eu/fhir/eps/StructureDefinition/allergyIntolerance-eu-eps"
          ]
        },
        "code": {
          "coding": [
            {
              "code": "260147004",
              "system": "http://snomed.info/sct",
              "display": "House dust mite (organism)"
            }
          ],
          "text": "House dust mite"
        },
        "clinicalStatus": {
          "coding": [
            {
              "code": "active",
              "system": "http://terminology.hl7.org/CodeSystem/allergyintolerance-clinical"
            }
          ]
        },
        "category": [
          "environment"
        ],
        "text": {
          "status": "generated",
          "div": "<div xmlns=\"http://www.w3.org/1999/xhtml\"><table class=\"hl7__ips\"><tr><th>Allergy/Intolerance</th><th>Onset Date</th><th>Status</th><th>Type</th><th>Reaction</th></tr><tr><td>House dust mite</td><td><span class=\"nb\">2001-03-17</span></td><td>active</td><td>environment</td><td></td></tr></table></div>"
        },
        "onsetDateTime": "2001-03-17",
        "verificationStatus": {
          "coding": [
            {
              "code": "confirmed",
              "system": "http://terminology.hl7.org/CodeSystem/allergyintolerance-verification"
            }
          ]
        },
        "type": "allergy",
        "patient": {
          "reference": "urn:uuid:b29ca268-a90f-4ed5-874c-cba8369aca54",
          "display": "Hynek Kubíčková"
        }
      }
    },
    {
      "fullUrl": "urn:uuid:7f41451b-47c0-4141-b43b-e74bf02712bc",
      "resource": {
        "resourceType": "AllergyIntolerance",
        "id": "7f41451b-47c0-4141-b43b-e74bf02712bc",
        "meta": {
          "profile": [
            "http://hl7.eu/fhir/eps/StructureDefinition/allergyIntolerance-eu-eps"
          ]
        },
        "code": {
          "coding": [
            {
              "code": "264287008",
              "system": "http://snomed.info/sct",
              "display": "Animal dander (substance)"
            }
          ],
          "text": "Animal dander"
        },
        "clinicalStatus": {
          "coding": [
            {
              "code": "active",
              "system": "http://terminology.hl7.org/CodeSystem/allergyintolerance-clinical"
            }
          ]
        },
        "category": [
          "environment"
        ],
        "reaction": [
          {
            "manifestation": [
              {
                "coding": [
                  {
                    "code": "878820003",
                    "system": "http://snomed.info/sct",
                    "display": "Rhinoconjunctivitis (disorder)"
                  }
                ]
              }
            ],
            "severity": "moderate"
          },
          {
            "manifestation": [
              {
                "coding": [
                  {
                    "code": "247472004",
                    "system": "http://snomed.info/sct",
                    "display": "Wheal (finding)"
                  }
                ]
              }
            ],
            "severity": "mild"
          }
        ],
        "text": {
          "status": "generated",
          "div": "<div xmlns=\"http://www.w3.org/1999/xhtml\"><table class=\"hl7__ips\"><tr><th>Allergy/Intolerance</th><th>Onset Date</th><th>Status</th><th>Type</th><th>Reaction</th></tr><tr><td>Animal dander</td><td><span class=\"nb\">2001-03-17</span></td><td>active</td><td>environment</td><td>Rhinoconjunctivitis (disorder)<br></br>Wheal (finding)</td></tr></table></div>"
        },
        "onsetDateTime": "2001-03-17",
        "verificationStatus": {
          "coding": [
            {
              "code": "confirmed",
              "system": "http://terminology.hl7.org/CodeSystem/allergyintolerance-verification"
            }
          ]
        },
        "type": "allergy",
        "patient": {
          "reference": "urn:uuid:b29ca268-a90f-4ed5-874c-cba8369aca54",
          "display": "Hynek Kubíčková"
        }
      }
    },
    {
      "fullUrl": "urn:uuid:fedc38c2-debf-47ff-b330-1f3d12544218",
      "resource": {
        "resourceType": "AllergyIntolerance",
        "id": "fedc38c2-debf-47ff-b330-1f3d12544218",
        "meta": {
          "profile": [
            "http://hl7.eu/fhir/eps/StructureDefinition/allergyIntolerance-eu-eps"
          ]
        },
        "code": {
          "coding": [
            {
              "code": "419199007",
              "system": "http://snomed.info/sct",
              "display": "Allergy to substance (finding)"
            }
          ],
          "text": "Allergy to substance"
        },
        "clinicalStatus": {
          "coding": [
            {
              "code": "active",
              "system": "http://terminology.hl7.org/CodeSystem/allergyintolerance-clinical"
            }
          ]
        },
        "category": [
          "environment"
        ],
        "text": {
          "status": "generated",
          "div": "<div xmlns=\"http://www.w3.org/1999/xhtml\"><table class=\"hl7__ips\"><tr><th>Allergy/Intolerance</th><th>Onset Date</th><th>Status</th><th>Type</th><th>Reaction</th></tr><tr><td>Allergy to substance</td><td><span class=\"nb\">2001-03-17</span></td><td>active</td><td>environment</td><td></td></tr></table></div>"
        },
        "onsetDateTime": "2001-03-17",
        "verificationStatus": {
          "coding": [
            {
              "code": "confirmed",
              "system": "http://terminology.hl7.org/CodeSystem/allergyintolerance-verification"
            }
          ]
        },
        "type": "allergy",
        "patient": {
          "reference": "urn:uuid:b29ca268-a90f-4ed5-874c-cba8369aca54",
          "display": "Hynek Kubíčková"
        }
      }
    },
    {
      "fullUrl": "urn:uuid:67ff3d53-7961-45fa-85bb-d9a3a062da82",
      "resource": {
        "resourceType": "AllergyIntolerance",
        "id": "67ff3d53-7961-45fa-85bb-d9a3a062da82",
        "meta": {
          "profile": [
            "http://hl7.eu/fhir/eps/StructureDefinition/allergyIntolerance-eu-eps"
          ]
        },
        "code": {
          "coding": [
            {
              "code": "735971005",
              "system": "http://snomed.info/sct",
              "display": "Fish (substance)"
            }
          ],
          "text": "Fish"
        },
        "clinicalStatus": {
          "coding": [
            {
              "code": "active",
              "system": "http://terminology.hl7.org/CodeSystem/allergyintolerance-clinical"
            }
          ]
        },
        "category": [
          "food"
        ],
        "reaction": [
          {
            "manifestation": [
              {
                "coding": [
                  {
                    "code": "267036007",
                    "system": "http://snomed.info/sct",
                    "display": "Dyspnea (finding)"
                  }
                ]
              }
            ],
            "severity": "moderate"
          },
          {
            "manifestation": [
              {
                "coding": [
                  {
                    "code": "271807003",
                    "system": "http://snomed.info/sct",
                    "display": "Eruption of skin (disorder)"
                  }
                ]
              }
            ],
            "severity": "mild"
          }
        ],
        "text": {
          "status": "generated",
          "div": "<div xmlns=\"http://www.w3.org/1999/xhtml\"><table class=\"hl7__ips\"><tr><th>Allergy/Intolerance</th><th>Onset Date</th><th>Status</th><th>Type</th><th>Reaction</th></tr><tr><td>Fish</td><td><span class=\"nb\">2001-03-17</span></td><td>active</td><td>food</td><td>Dyspnea (finding)<br></br>Eruption of skin (disorder)</td></tr></table></div>"
        },
        "onsetDateTime": "2001-03-17",
        "verificationStatus": {
          "coding": [
            {
              "code": "confirmed",
              "system": "http://terminology.hl7.org/CodeSystem/allergyintolerance-verification"
            }
          ]
        },
        "type": "allergy",
        "patient": {
          "reference": "urn:uuid:b29ca268-a90f-4ed5-874c-cba8369aca54",
          "display": "Hynek Kubíčková"
        }
      }
    },
    {
      "fullUrl": "urn:uuid:199ab826-31a6-4d7e-a3c1-02b3d7ac61d9",
      "resource": {
        "resourceType": "AllergyIntolerance",
        "id": "199ab826-31a6-4d7e-a3c1-02b3d7ac61d9",
        "meta": {
          "profile": [
            "http://hl7.eu/fhir/eps/StructureDefinition/allergyIntolerance-eu-eps"
          ]
        },
        "code": {
          "coding": [
            {
              "code": "782576004",
              "system": "http://snomed.info/sct",
              "display": "Tree pollen (substance)"
            }
          ],
          "text": "Tree pollen"
        },
        "clinicalStatus": {
          "coding": [
            {
              "code": "active",
              "system": "http://terminology.hl7.org/CodeSystem/allergyintolerance-clinical"
            }
          ]
        },
        "category": [
          "environment"
        ],
        "text": {
          "status": "generated",
          "div": "<div xmlns=\"http://www.w3.org/1999/xhtml\"><table class=\"hl7__ips\"><tr><th>Allergy/Intolerance</th><th>Onset Date</th><th>Status</th><th>Type</th><th>Reaction</th></tr><tr><td>Tree pollen</td><td><span class=\"nb\">2001-03-17</span></td><td>active</td><td>environment</td><td></td></tr></table></div>"
        },
        "onsetDateTime": "2001-03-17",
        "verificationStatus": {
          "coding": [
            {
              "code": "confirmed",
              "system": "http://terminology.hl7.org/CodeSystem/allergyintolerance-verification"
            }
          ]
        },
        "type": "allergy",
        "patient": {
          "reference": "urn:uuid:b29ca268-a90f-4ed5-874c-cba8369aca54",
          "display": "Hynek Kubíčková"
        }
      }
    },
    {
      "fullUrl": "urn:uuid:0ea91fc6-2b89-4e3b-8d83-6049b8438a24",
      "resource": {
        "resourceType": "CarePlan",
        "id": "0ea91fc6-2b89-4e3b-8d83-6049b8438a24",
        "category": [
          {
            "coding": [
              {
                "code": "assess-plan",
                "system": "http://terminology.hl7.org/CodeSystem/care-plan-category",
                "display": "Assessment and Plan"
              }
            ]
          }
        ],
        "activity": [
          {
            "detail": {
              "code": {
                "coding": [
                  {
                    "code": "384758001",
                    "system": "http://snomed.info/sct",
                    "display": "Self-care interventions (procedure)"
                  }
                ]
              },
              "status": "unknown",
              "description": "Self-care interventions",
              "kind": "Appointment"
            }
          }
        ],
        "period": {
          "start": "2001-03-05"
        },
        "text": {
          "status": "generated",
          "div": "<div xmlns=\"http://www.w3.org/1999/xhtml\"><table class=\"hl7__ips first25\"><tr><th>Active Planned Care / Goals</th><th>Start Date</th><th>Reason</th></tr><tr><td>Self-care interventions</td><td><span class=\"nb\">05-Mar-2001</span></td><td>-</td></tr></table></div>"
        },
        "status": "active",
        "intent": "plan",
        "subject": {
          "reference": "urn:uuid:b29ca268-a90f-4ed5-874c-cba8369aca54",
          "display": "Hynek Kubíčková"
        }
      }
    },
    {
      "fullUrl": "urn:uuid:3856fbf0-a41d-4720-b6df-921f66e5b6b3",
      "resource": {
        "resourceType": "Observation",
        "id": "3856fbf0-a41d-4720-b6df-921f66e5b6b3",
        "meta": {
          "profile": [
            "http://hl7.org/fhir/StructureDefinition/vitalsigns"
          ]
        },
        "category": [
          {
            "coding": [
              {
                "system": "http://terminology.hl7.org/CodeSystem/observation-category",
                "code": "vital-signs",
                "display": "Vital Signs"
              }
            ]
          }
        ],
        "valueQuantity": {
          "value": 188.5,
          "code": "cm",
          "unit": "cm"
        },
        "text": {
          "status": "generated",
          "div": "<div xmlns=\"http://www.w3.org/1999/xhtml\"><table class=\"hl7__ips\"><tr><th>Vital Sign</th><th>Date</th><th>Measurement</th></tr><tr><td>Body Height</td><td>06-Oct-2022</td><td>188.5 cm</td></tr></table></div>"
        },
        "status": "final",
        "code": {
          "coding": [
            {
              "code": "$8302-2",
              "system": "http://loinc.org",
              "display": "Body Height"
            }
          ]
        },
        "subject": {
          "reference": "urn:uuid:b29ca268-a90f-4ed5-874c-cba8369aca54",
          "display": "Hynek Kubíčková"
        },
        "effectiveDateTime": "2022-10-06"
      }
    },
    {
      "fullUrl": "urn:uuid:92693076-30b3-46be-acbb-fe569d630a9a",
      "resource": {
        "resourceType": "Observation",
        "id": "92693076-30b3-46be-acbb-fe569d630a9a",
        "meta": {
          "profile": [
            "http://hl7.org/fhir/StructureDefinition/vitalsigns"
          ]
        },
        "category": [
          {
            "coding": [
              {
                "system": "http://terminology.hl7.org/CodeSystem/observation-category",
                "code": "vital-signs",
                "display": "Vital Signs"
              }
            ]
          }
        ],
        "valueQuantity": {
          "value": 3,
          "code": "{score}",
          "unit": "{score}"
        },
        "text": {
          "status": "generated",
          "div": "<div xmlns=\"http://www.w3.org/1999/xhtml\"><table class=\"hl7__ips\"><tr><th>Vital Sign</th><th>Date</th><th>Measurement</th></tr><tr><td>Pain severity - 0-10 verbal numeric rating [Score] - Reported</td><td>06-Oct-2022</td><td>3 {score}</td></tr></table></div>"
        },
        "status": "final",
        "code": {
          "coding": [
            {
              "code": "$72514-3",
              "system": "http://loinc.org",
              "display": "Pain severity - 0-10 verbal numeric rating [Score] - Reported"
            }
          ]
        },
        "subject": {
          "reference": "urn:uuid:b29ca268-a90f-4ed5-874c-cba8369aca54",
          "display": "Hynek Kubíčková"
        },
        "effectiveDateTime": "2022-10-06"
      }
    },
    {
      "fullUrl": "urn:uuid:1ebda6ad-6d8c-4768-aa9a-a0ffef1e49db",
      "resource": {
        "resourceType": "Observation",
        "id": "1ebda6ad-6d8c-4768-aa9a-a0ffef1e49db",
        "meta": {
          "profile": [
            "http://hl7.org/fhir/StructureDefinition/vitalsigns"
          ]
        },
        "category": [
          {
            "coding": [
              {
                "system": "http://terminology.hl7.org/CodeSystem/observation-category",
                "code": "vital-signs",
                "display": "Vital Signs"
              }
            ]
          }
        ],
        "valueQuantity": {
          "value": 88.1,
          "code": "kg",
          "unit": "kg"
        },
        "text": {
          "status": "generated",
          "div": "<div xmlns=\"http://www.w3.org/1999/xhtml\"><table class=\"hl7__ips\"><tr><th>Vital Sign</th><th>Date</th><th>Measurement</th></tr><tr><td>Body Weight</td><td>06-Oct-2022</td><td>88.1 kg</td></tr></table></div>"
        },
        "status": "final",
        "code": {
          "coding": [
            {
              "code": "$29463-7",
              "system": "http://loinc.org",
              "display": "Body Weight"
            }
          ]
        },
        "subject": {
          "reference": "urn:uuid:b29ca268-a90f-4ed5-874c-cba8369aca54",
          "display": "Hynek Kubíčková"
        },
        "effectiveDateTime": "2022-10-06"
      }
    },
    {
      "fullUrl": "urn:uuid:c9c4e0e7-4f7b-4940-b659-bc47e046b8d8",
      "resource": {
        "resourceType": "Observation",
        "id": "c9c4e0e7-4f7b-4940-b659-bc47e046b8d8",
        "meta": {
          "profile": [
            "http://hl7.org/fhir/StructureDefinition/vitalsigns"
          ]
        },
        "category": [
          {
            "coding": [
              {
                "system": "http://terminology.hl7.org/CodeSystem/observation-category",
                "code": "vital-signs",
                "display": "Vital Signs"
              }
            ]
          }
        ],
        "valueQuantity": {
          "value": 24.8,
          "code": "kg/m2",
          "unit": "kg/m2"
        },
        "text": {
          "status": "generated",
          "div": "<div xmlns=\"http://www.w3.org/1999/xhtml\"><table class=\"hl7__ips\"><tr><th>Vital Sign</th><th>Date</th><th>Measurement</th></tr><tr><td>Body mass index (BMI) [Ratio]</td><td>06-Oct-2022</td><td>24.8 kg/m2</td></tr></table></div>"
        },
        "status": "final",
        "code": {
          "coding": [
            {
              "code": "$39156-5",
              "system": "http://loinc.org",
              "display": "Body mass index (BMI) [Ratio]"
            }
          ]
        },
        "subject": {
          "reference": "urn:uuid:b29ca268-a90f-4ed5-874c-cba8369aca54",
          "display": "Hynek Kubíčková"
        },
        "effectiveDateTime": "2022-10-06"
      }
    },
    {
      "fullUrl": "urn:uuid:d01cf4a2-edd0-45ea-bf11-9d07691968f7",
      "resource": {
        "resourceType": "Observation",
        "id": "d01cf4a2-edd0-45ea-bf11-9d07691968f7",
        "meta": {
          "profile": [
            "http://hl7.org/fhir/StructureDefinition/vitalsigns"
          ]
        },
        "category": [
          {
            "coding": [
              {
                "system": "http://terminology.hl7.org/CodeSystem/observation-category",
                "code": "vital-signs",
                "display": "Vital Signs"
              }
            ]
          }
        ],
        "valueQuantity": {
          "value": 88,
          "code": "mm[Hg]",
          "unit": "mm[Hg]"
        },
        "text": {
          "status": "generated",
          "div": "<div xmlns=\"http://www.w3.org/1999/xhtml\"><table class=\"hl7__ips\"><tr><th>Vital Sign</th><th>Date</th><th>Measurement</th></tr><tr><td>Diastolic Blood Pressure</td><td>06-Oct-2022</td><td>88 mm[Hg]</td></tr></table></div>"
        },
        "status": "final",
        "code": {
          "coding": [
            {
              "code": "$8462-4",
              "system": "http://loinc.org",
              "display": "Diastolic Blood Pressure"
            }
          ]
        },
        "subject": {
          "reference": "urn:uuid:b29ca268-a90f-4ed5-874c-cba8369aca54",
          "display": "Hynek Kubíčková"
        },
        "effectiveDateTime": "2022-10-06"
      }
    },
    {
      "fullUrl": "urn:uuid:d1ad68bb-5e67-4393-95ee-e1b3fafab83a",
      "resource": {
        "resourceType": "Observation",
        "id": "d1ad68bb-5e67-4393-95ee-e1b3fafab83a",
        "meta": {
          "profile": [
            "http://hl7.org/fhir/StructureDefinition/vitalsigns"
          ]
        },
        "category": [
          {
            "coding": [
              {
                "system": "http://terminology.hl7.org/CodeSystem/observation-category",
                "code": "vital-signs",
                "display": "Vital Signs"
              }
            ]
          }
        ],
        "valueQuantity": {
          "value": 110,
          "code": "mm[Hg]",
          "unit": "mm[Hg]"
        },
        "text": {
          "status": "generated",
          "div": "<div xmlns=\"http://www.w3.org/1999/xhtml\"><table class=\"hl7__ips\"><tr><th>Vital Sign</th><th>Date</th><th>Measurement</th></tr><tr><td>Systolic Blood Pressure</td><td>06-Oct-2022</td><td>110 mm[Hg]</td></tr></table></div>"
        },
        "status": "final",
        "code": {
          "coding": [
            {
              "code": "$8480-6",
              "system": "http://loinc.org",
              "display": "Systolic Blood Pressure"
            }
          ]
        },
        "subject": {
          "reference": "urn:uuid:b29ca268-a90f-4ed5-874c-cba8369aca54",
          "display": "Hynek Kubíčková"
        },
        "effectiveDateTime": "2022-10-06"
      }
    },
    {
      "fullUrl": "urn:uuid:f4eb7452-e596-4e64-ba8c-9d8436257b92",
      "resource": {
        "resourceType": "Observation",
        "id": "f4eb7452-e596-4e64-ba8c-9d8436257b92",
        "meta": {
          "profile": [
            "http://hl7.org/fhir/StructureDefinition/vitalsigns"
          ]
        },
        "category": [
          {
            "coding": [
              {
                "system": "http://terminology.hl7.org/CodeSystem/observation-category",
                "code": "vital-signs",
                "display": "Vital Signs"
              }
            ]
          }
        ],
        "valueQuantity": {
          "value": 83,
          "code": "/min",
          "unit": "/min"
        },
        "text": {
          "status": "generated",
          "div": "<div xmlns=\"http://www.w3.org/1999/xhtml\"><table class=\"hl7__ips\"><tr><th>Vital Sign</th><th>Date</th><th>Measurement</th></tr><tr><td>Heart rate</td><td>06-Oct-2022</td><td>83 /min</td></tr></table></div>"
        },
        "status": "final",
        "code": {
          "coding": [
            {
              "code": "$8867-4",
              "system": "http://loinc.org",
              "display": "Heart rate"
            }
          ]
        },
        "subject": {
          "reference": "urn:uuid:b29ca268-a90f-4ed5-874c-cba8369aca54",
          "display": "Hynek Kubíčková"
        },
        "effectiveDateTime": "2022-10-06"
      }
    },
    {
      "fullUrl": "urn:uuid:f9d9872c-4da2-4e08-9d6a-9dbb33e14b9c",
      "resource": {
        "resourceType": "Observation",
        "id": "f9d9872c-4da2-4e08-9d6a-9dbb33e14b9c",
        "meta": {
          "profile": [
            "http://hl7.org/fhir/StructureDefinition/vitalsigns"
          ]
        },
        "category": [
          {
            "coding": [
              {
                "system": "http://terminology.hl7.org/CodeSystem/observation-category",
                "code": "vital-signs",
                "display": "Vital Signs"
              }
            ]
          }
        ],
        "valueQuantity": {
          "value": 14,
          "code": "/min",
          "unit": "/min"
        },
        "text": {
          "status": "generated",
          "div": "<div xmlns=\"http://www.w3.org/1999/xhtml\"><table class=\"hl7__ips\"><tr><th>Vital Sign</th><th>Date</th><th>Measurement</th></tr><tr><td>Respiratory rate</td><td>06-Oct-2022</td><td>14 /min</td></tr></table></div>"
        },
        "status": "final",
        "code": {
          "coding": [
            {
              "code": "$9279-1",
              "system": "http://loinc.org",
              "display": "Respiratory rate"
            }
          ]
        },
        "subject": {
          "reference": "urn:uuid:b29ca268-a90f-4ed5-874c-cba8369aca54",
          "display": "Hynek Kubíčková"
        },
        "effectiveDateTime": "2022-10-06"
      }
    },
    {
      "fullUrl": "urn:uuid:94684f8b-0233-4393-bf89-2be5c4bb4b86",
      "resource": {
        "resourceType": "Observation",
        "id": "94684f8b-0233-4393-bf89-2be5c4bb4b86",
        "meta": {
          "profile": [
            "http://hl7.org/fhir/StructureDefinition/vitalsigns"
          ]
        },
        "category": [
          {
            "coding": [
              {
                "system": "http://terminology.hl7.org/CodeSystem/observation-category",
                "code": "vital-signs",
                "display": "Vital Signs"
              }
            ]
          }
        ],
        "valueQuantity": {
          "value": 41.7,
          "code": "Cel",
          "unit": "Cel"
        },
        "text": {
          "status": "generated",
          "div": "<div xmlns=\"http://www.w3.org/1999/xhtml\"><table class=\"hl7__ips\"><tr><th>Vital Sign</th><th>Date</th><th>Measurement</th></tr><tr><td>Body temperature</td><td>17-Jul-2020</td><td>41.7 Cel</td></tr></table></div>"
        },
        "status": "final",
        "code": {
          "coding": [
            {
              "code": "$8310-5",
              "system": "http://loinc.org",
              "display": "Body temperature"
            }
          ]
        },
        "subject": {
          "reference": "urn:uuid:b29ca268-a90f-4ed5-874c-cba8369aca54",
          "display": "Hynek Kubíčková"
        },
        "effectiveDateTime": "2020-07-17"
      }
    },
    {
      "fullUrl": "urn:uuid:5d68cb0d-71ff-4b73-893e-7805d8b3f327",
      "resource": {
        "resourceType": "Observation",
        "id": "5d68cb0d-71ff-4b73-893e-7805d8b3f327",
        "meta": {
          "profile": [
            "http://hl7.org/fhir/StructureDefinition/vitalsigns"
          ]
        },
        "category": [
          {
            "coding": [
              {
                "system": "http://terminology.hl7.org/CodeSystem/observation-category",
                "code": "vital-signs",
                "display": "Vital Signs"
              }
            ]
          }
        ],
        "valueQuantity": {
          "value": 26.4,
          "code": "/min",
          "unit": "/min"
        },
        "text": {
          "status": "generated",
          "div": "<div xmlns=\"http://www.w3.org/1999/xhtml\"><table class=\"hl7__ips\"><tr><th>Vital Sign</th><th>Date</th><th>Measurement</th></tr><tr><td>Respiratory rate</td><td>17-Jul-2020</td><td>26.4 /min</td></tr></table></div>"
        },
        "status": "final",
        "code": {
          "coding": [
            {
              "code": "$9279-1",
              "system": "http://loinc.org",
              "display": "Respiratory rate"
            }
          ]
        },
        "subject": {
          "reference": "urn:uuid:b29ca268-a90f-4ed5-874c-cba8369aca54",
          "display": "Hynek Kubíčková"
        },
        "effectiveDateTime": "2020-07-17"
      }
    },
    {
      "fullUrl": "urn:uuid:02677e17-79c0-499b-ad54-881d1acef8ad",
      "resource": {
        "resourceType": "Observation",
        "id": "02677e17-79c0-499b-ad54-881d1acef8ad",
        "meta": {
          "profile": [
            "http://hl7.org/fhir/StructureDefinition/vitalsigns"
          ]
        },
        "category": [
          {
            "coding": [
              {
                "system": "http://terminology.hl7.org/CodeSystem/observation-category",
                "code": "vital-signs",
                "display": "Vital Signs"
              }
            ]
          }
        ],
        "valueQuantity": {
          "value": 178.2,
          "code": "/min",
          "unit": "/min"
        },
        "text": {
          "status": "generated",
          "div": "<div xmlns=\"http://www.w3.org/1999/xhtml\"><table class=\"hl7__ips\"><tr><th>Vital Sign</th><th>Date</th><th>Measurement</th></tr><tr><td>Heart rate</td><td>17-Jul-2020</td><td>178.2 /min</td></tr></table></div>"
        },
        "status": "final",
        "code": {
          "coding": [
            {
              "code": "$8867-4",
              "system": "http://loinc.org",
              "display": "Heart rate"
            }
          ]
        },
        "subject": {
          "reference": "urn:uuid:b29ca268-a90f-4ed5-874c-cba8369aca54",
          "display": "Hynek Kubíčková"
        },
        "effectiveDateTime": "2020-07-17"
      }
    },
    {
      "fullUrl": "urn:uuid:25ead2c9-54d7-42f5-a29d-54a4ba297a72",
      "resource": {
        "resourceType": "Observation",
        "id": "25ead2c9-54d7-42f5-a29d-54a4ba297a72",
        "meta": {
          "profile": [
            "http://hl7.org/fhir/StructureDefinition/vitalsigns"
          ]
        },
        "category": [
          {
            "coding": [
              {
                "system": "http://terminology.hl7.org/CodeSystem/observation-category",
                "code": "vital-signs",
                "display": "Vital Signs"
              }
            ]
          }
        ],
        "valueQuantity": {
          "value": 84.8,
          "code": "%",
          "unit": "%"
        },
        "text": {
          "status": "generated",
          "div": "<div xmlns=\"http://www.w3.org/1999/xhtml\"><table class=\"hl7__ips\"><tr><th>Vital Sign</th><th>Date</th><th>Measurement</th></tr><tr><td>Oxygen saturation in Arterial blood</td><td>17-Jul-2020</td><td>84.8 %</td></tr></table></div>"
        },
        "status": "final",
        "code": {
          "coding": [
            {
              "code": "$2708-6",
              "system": "http://loinc.org",
              "display": "Oxygen saturation in Arterial blood"
            }
          ]
        },
        "subject": {
          "reference": "urn:uuid:b29ca268-a90f-4ed5-874c-cba8369aca54",
          "display": "Hynek Kubíčková"
        },
        "effectiveDateTime": "2020-07-17"
      }
    },
    {
      "fullUrl": "urn:uuid:5c29e57c-066c-4c0f-97c7-4e6237a0c6e8",
      "resource": {
        "resourceType": "Observation",
        "id": "5c29e57c-066c-4c0f-97c7-4e6237a0c6e8",
        "meta": {
          "profile": [
            "http://hl7.org/fhir/StructureDefinition/vitalsigns"
          ]
        },
        "category": [
          {
            "coding": [
              {
                "system": "http://terminology.hl7.org/CodeSystem/observation-category",
                "code": "vital-signs",
                "display": "Vital Signs"
              }
            ]
          }
        ],
        "valueQuantity": {
          "value": 86,
          "code": "mm[Hg]",
          "unit": "mm[Hg]"
        },
        "text": {
          "status": "generated",
          "div": "<div xmlns=\"http://www.w3.org/1999/xhtml\"><table class=\"hl7__ips\"><tr><th>Vital Sign</th><th>Date</th><th>Measurement</th></tr><tr><td>Diastolic Blood Pressure</td><td>17-Jul-2020</td><td>86 mm[Hg]</td></tr></table></div>"
        },
        "status": "final",
        "code": {
          "coding": [
            {
              "code": "$8462-4",
              "system": "http://loinc.org",
              "display": "Diastolic Blood Pressure"
            }
          ]
        },
        "subject": {
          "reference": "urn:uuid:b29ca268-a90f-4ed5-874c-cba8369aca54",
          "display": "Hynek Kubíčková"
        },
        "effectiveDateTime": "2020-07-17"
      }
    },
    {
      "fullUrl": "urn:uuid:58f39ef5-b9bc-4493-a94a-3331fac87b2b",
      "resource": {
        "resourceType": "Observation",
        "id": "58f39ef5-b9bc-4493-a94a-3331fac87b2b",
        "meta": {
          "profile": [
            "http://hl7.org/fhir/StructureDefinition/vitalsigns"
          ]
        },
        "category": [
          {
            "coding": [
              {
                "system": "http://terminology.hl7.org/CodeSystem/observation-category",
                "code": "vital-signs",
                "display": "Vital Signs"
              }
            ]
          }
        ],
        "valueQuantity": {
          "value": 113,
          "code": "mm[Hg]",
          "unit": "mm[Hg]"
        },
        "text": {
          "status": "generated",
          "div": "<div xmlns=\"http://www.w3.org/1999/xhtml\"><table class=\"hl7__ips\"><tr><th>Vital Sign</th><th>Date</th><th>Measurement</th></tr><tr><td>Systolic Blood Pressure</td><td>17-Jul-2020</td><td>113 mm[Hg]</td></tr></table></div>"
        },
        "status": "final",
        "code": {
          "coding": [
            {
              "code": "$8480-6",
              "system": "http://loinc.org",
              "display": "Systolic Blood Pressure"
            }
          ]
        },
        "subject": {
          "reference": "urn:uuid:b29ca268-a90f-4ed5-874c-cba8369aca54",
          "display": "Hynek Kubíčková"
        },
        "effectiveDateTime": "2020-07-17"
      }
    },
    {
      "fullUrl": "urn:uuid:0c179d83-d4fb-40f8-b8fb-569d0753e674",
      "resource": {
        "resourceType": "Observation",
        "id": "0c179d83-d4fb-40f8-b8fb-569d0753e674",
        "meta": {
          "profile": [
            "http://hl7.org/fhir/StructureDefinition/vitalsigns"
          ]
        },
        "category": [
          {
            "coding": [
              {
                "system": "http://terminology.hl7.org/CodeSystem/observation-category",
                "code": "vital-signs",
                "display": "Vital Signs"
              }
            ]
          }
        ],
        "valueQuantity": {
          "value": 84.4,
          "code": "kg",
          "unit": "kg"
        },
        "text": {
          "status": "generated",
          "div": "<div xmlns=\"http://www.w3.org/1999/xhtml\"><table class=\"hl7__ips\"><tr><th>Vital Sign</th><th>Date</th><th>Measurement</th></tr><tr><td>Body Weight</td><td>17-Jul-2020</td><td>84.4 kg</td></tr></table></div>"
        },
        "status": "final",
        "code": {
          "coding": [
            {
              "code": "$29463-7",
              "system": "http://loinc.org",
              "display": "Body Weight"
            }
          ]
        },
        "subject": {
          "reference": "urn:uuid:b29ca268-a90f-4ed5-874c-cba8369aca54",
          "display": "Hynek Kubíčková"
        },
        "effectiveDateTime": "2020-07-17"
      }
    },
    {
      "fullUrl": "urn:uuid:78209227-811c-43bc-a198-99d225bb299b",
      "resource": {
        "resourceType": "Observation",
        "id": "78209227-811c-43bc-a198-99d225bb299b",
        "meta": {
          "profile": [
            "http://hl7.eu/fhir/laboratory/StructureDefinition/Observation-resultslab-eu-lab"
          ]
        },
        "performer": [
          {
            "display": "The Central European Lab"
          }
        ],
        "category": [
          {
            "coding": [
              {
                "system": "http://terminology.hl7.org/CodeSystem/observation-category",
                "code": "laboratory"
              }
            ]
          }
        ],
        "code": {
          "coding": [
            {
              "code": "6690-2",
              "system": "http://loinc.org",
              "display": "Leukocytes [#/volume] in Blood by Automated count"
            }
          ],
          "text": "Leukocytes [#/volume] in Blood by Automated count"
        },
        "valueQuantity": {
          "system": "http://unitsofmeasure.org",
          "value": 8.2,
          "unit": "10*3/uL",
          "code": "10*3/uL"
        },
        "referenceRange": [
          {
            "low": {
              "value": 3.5,
              "code": "10*3/uL",
              "system": "http://unitsofmeasure.org"
            }
          },
          {
            "high": {
              "value": 10.5,
              "code": "10*3/uL",
              "system": "http://unitsofmeasure.org"
            }
          }
        ],
        "text": {
          "status": "generated",
          "div": "<div xmlns=\"http://www.w3.org/1999/xhtml\"><table class=\"hl7__eu__lab__report\"><tr><th>Test</th><th>06-Oct-2022</th><th>Reference&#xA0;Range</th><th>Unit</th></tr><tr><td>Leukocytes [#/volume] in Blood by Automated count</td><td>8.2</td><td>3.5 - 10.5</td><td></td><td>10*3/uL</td></tr></table></div>"
        },
        "status": "final",
        "subject": {
          "reference": "urn:uuid:b29ca268-a90f-4ed5-874c-cba8369aca54",
          "display": "Hynek Kubíčková"
        },
        "effectiveDateTime": "2022-10-06T12:02:45Z"
      }
    },
    {
      "fullUrl": "urn:uuid:ff985172-46ca-4456-8200-1b7f004a29ee",
      "resource": {
        "resourceType": "Observation",
        "id": "ff985172-46ca-4456-8200-1b7f004a29ee",
        "meta": {
          "profile": [
            "http://hl7.eu/fhir/laboratory/StructureDefinition/Observation-resultslab-eu-lab"
          ]
        },
        "performer": [
          {
            "display": "The Central European Lab"
          }
        ],
        "category": [
          {
            "coding": [
              {
                "system": "http://terminology.hl7.org/CodeSystem/observation-category",
                "code": "laboratory"
              }
            ]
          }
        ],
        "code": {
          "coding": [
            {
              "code": "789-8",
              "system": "http://loinc.org",
              "display": "Erythrocytes [#/volume] in Blood by Automated count"
            }
          ],
          "text": "Erythrocytes [#/volume] in Blood by Automated count"
        },
        "valueQuantity": {
          "system": "http://unitsofmeasure.org",
          "value": 4,
          "unit": "10*6/uL",
          "code": "10*6/uL"
        },
        "referenceRange": [
          {
            "low": {
              "value": 4.5,
              "code": "10*6/uL",
              "system": "http://unitsofmeasure.org"
            }
          },
          {
            "high": {
              "value": 6.2,
              "code": "10*6/uL",
              "system": "http://unitsofmeasure.org"
            }
          }
        ],
        "interpretation": [
          {
            "coding": [
              {
                "code": "L",
                "system": "http://terminology.hl7.org/CodeSystem/v3-ObservationInterpretation",
                "display": "Low"
              }
            ]
          }
        ],
        "text": {
          "status": "generated",
          "div": "<div xmlns=\"http://www.w3.org/1999/xhtml\"><table class=\"hl7__eu__lab__report\"><tr><th>Test</th><th>06-Oct-2022</th><th>Reference&#xA0;Range</th><th>Unit</th></tr><tr><td>Erythrocytes [#/volume] in Blood by Automated count</td><td>4.0</td><td>4.5 - 6.2</td><td>L</td><td>10*6/uL</td></tr></table></div>"
        },
        "status": "final",
        "subject": {
          "reference": "urn:uuid:b29ca268-a90f-4ed5-874c-cba8369aca54",
          "display": "Hynek Kubíčková"
        },
        "effectiveDateTime": "2022-10-06T12:02:45Z"
      }
    },
    {
      "fullUrl": "urn:uuid:eed3dbbf-7c56-40ed-bc46-2b8a0afc01d5",
      "resource": {
        "resourceType": "Observation",
        "id": "eed3dbbf-7c56-40ed-bc46-2b8a0afc01d5",
        "meta": {
          "profile": [
            "http://hl7.eu/fhir/laboratory/StructureDefinition/Observation-resultslab-eu-lab"
          ]
        },
        "performer": [
          {
            "display": "The Central European Lab"
          }
        ],
        "category": [
          {
            "coding": [
              {
                "system": "http://terminology.hl7.org/CodeSystem/observation-category",
                "code": "laboratory"
              }
            ]
          }
        ],
        "code": {
          "coding": [
            {
              "code": "718-7",
              "system": "http://loinc.org",
              "display": "Hemoglobin [Mass/volume] in Blood"
            }
          ],
          "text": "Hemoglobin [Mass/volume] in Blood"
        },
        "valueQuantity": {
          "system": "http://unitsofmeasure.org",
          "value": 16,
          "unit": "g/dL",
          "code": "g/dL"
        },
        "referenceRange": [
          {
            "low": {
              "value": 14,
              "code": "g/dL",
              "system": "http://unitsofmeasure.org"
            }
          },
          {
            "high": {
              "value": 18,
              "code": "g/dL",
              "system": "http://unitsofmeasure.org"
            }
          }
        ],
        "text": {
          "status": "generated",
          "div": "<div xmlns=\"http://www.w3.org/1999/xhtml\"><table class=\"hl7__eu__lab__report\"><tr><th>Test</th><th>06-Oct-2022</th><th>Reference&#xA0;Range</th><th>Unit</th></tr><tr><td>Hemoglobin [Mass/volume] in Blood</td><td>16.0</td><td>14 - 18</td><td></td><td>g/dL</td></tr></table></div>"
        },
        "status": "final",
        "subject": {
          "reference": "urn:uuid:b29ca268-a90f-4ed5-874c-cba8369aca54",
          "display": "Hynek Kubíčková"
        },
        "effectiveDateTime": "2022-10-06T12:02:45Z"
      }
    },
    {
      "fullUrl": "urn:uuid:b249e798-c6ad-48d4-9882-934e41825ee0",
      "resource": {
        "resourceType": "Observation",
        "id": "b249e798-c6ad-48d4-9882-934e41825ee0",
        "meta": {
          "profile": [
            "http://hl7.eu/fhir/laboratory/StructureDefinition/Observation-resultslab-eu-lab"
          ]
        },
        "performer": [
          {
            "display": "The Central European Lab"
          }
        ],
        "category": [
          {
            "coding": [
              {
                "system": "http://terminology.hl7.org/CodeSystem/observation-category",
                "code": "laboratory"
              }
            ]
          }
        ],
        "code": {
          "coding": [
            {
              "code": "4544-3",
              "system": "http://loinc.org",
              "display": "Hematocrit [Volume Fraction] of Blood by Automated count"
            }
          ],
          "text": "Hematocrit [Volume Fraction] of Blood by Automated count"
        },
        "valueQuantity": {
          "system": "http://unitsofmeasure.org",
          "value": 48.7,
          "unit": "%",
          "code": "%"
        },
        "referenceRange": [
          {
            "low": {
              "value": 38,
              "code": "%",
              "system": "http://unitsofmeasure.org"
            }
          },
          {
            "high": {
              "value": 52,
              "code": "%",
              "system": "http://unitsofmeasure.org"
            }
          }
        ],
        "text": {
          "status": "generated",
          "div": "<div xmlns=\"http://www.w3.org/1999/xhtml\"><table class=\"hl7__eu__lab__report\"><tr><th>Test</th><th>06-Oct-2022</th><th>Reference&#xA0;Range</th><th>Unit</th></tr><tr><td>Hematocrit [Volume Fraction] of Blood by Automated count</td><td>48.7</td><td>38 - 52</td><td></td><td>%</td></tr></table></div>"
        },
        "status": "final",
        "subject": {
          "reference": "urn:uuid:b29ca268-a90f-4ed5-874c-cba8369aca54",
          "display": "Hynek Kubíčková"
        },
        "effectiveDateTime": "2022-10-06T12:02:45Z"
      }
    },
    {
      "fullUrl": "urn:uuid:b86f83ec-8b8c-40e2-92d6-a6af5177f20d",
      "resource": {
        "resourceType": "Observation",
        "id": "b86f83ec-8b8c-40e2-92d6-a6af5177f20d",
        "meta": {
          "profile": [
            "http://hl7.eu/fhir/laboratory/StructureDefinition/Observation-resultslab-eu-lab"
          ]
        },
        "performer": [
          {
            "display": "The Central European Lab"
          }
        ],
        "category": [
          {
            "coding": [
              {
                "system": "http://terminology.hl7.org/CodeSystem/observation-category",
                "code": "laboratory"
              }
            ]
          }
        ],
        "code": {
          "coding": [
            {
              "code": "787-2",
              "system": "http://loinc.org",
              "display": "MCV [Entitic volume] by Automated count"
            }
          ],
          "text": "MCV [Entitic volume] by Automated count"
        },
        "valueQuantity": {
          "system": "http://unitsofmeasure.org",
          "value": 86.5,
          "unit": "fL",
          "code": "fL"
        },
        "referenceRange": [
          {
            "low": {
              "value": 80,
              "code": "fL",
              "system": "http://unitsofmeasure.org"
            }
          },
          {
            "high": {
              "value": 98,
              "code": "fL",
              "system": "http://unitsofmeasure.org"
            }
          }
        ],
        "text": {
          "status": "generated",
          "div": "<div xmlns=\"http://www.w3.org/1999/xhtml\"><table class=\"hl7__eu__lab__report\"><tr><th>Test</th><th>06-Oct-2022</th><th>Reference&#xA0;Range</th><th>Unit</th></tr><tr><td>MCV [Entitic volume] by Automated count</td><td>86.5</td><td>80 - 98</td><td></td><td>fL</td></tr></table></div>"
        },
        "status": "final",
        "subject": {
          "reference": "urn:uuid:b29ca268-a90f-4ed5-874c-cba8369aca54",
          "display": "Hynek Kubíčková"
        },
        "effectiveDateTime": "2022-10-06T12:02:45Z"
      }
    },
    {
      "fullUrl": "urn:uuid:9432bde0-27da-4a74-b022-342771abbb68",
      "resource": {
        "resourceType": "Observation",
        "id": "9432bde0-27da-4a74-b022-342771abbb68",
        "meta": {
          "profile": [
            "http://hl7.eu/fhir/laboratory/StructureDefinition/Observation-resultslab-eu-lab"
          ]
        },
        "performer": [
          {
            "display": "The Central European Lab"
          }
        ],
        "category": [
          {
            "coding": [
              {
                "system": "http://terminology.hl7.org/CodeSystem/observation-category",
                "code": "laboratory"
              }
            ]
          }
        ],
        "code": {
          "coding": [
            {
              "code": "785-6",
              "system": "http://loinc.org",
              "display": "MCH [Entitic mass] by Automated count"
            }
          ],
          "text": "MCH [Entitic mass] by Automated count"
        },
        "valueQuantity": {
          "system": "http://unitsofmeasure.org",
          "value": 29.8,
          "unit": "pg",
          "code": "pg"
        },
        "referenceRange": [
          {
            "low": {
              "value": 27,
              "code": "pg",
              "system": "http://unitsofmeasure.org"
            }
          },
          {
            "high": {
              "value": 33,
              "code": "pg",
              "system": "http://unitsofmeasure.org"
            }
          }
        ],
        "text": {
          "status": "generated",
          "div": "<div xmlns=\"http://www.w3.org/1999/xhtml\"><table class=\"hl7__eu__lab__report\"><tr><th>Test</th><th>06-Oct-2022</th><th>Reference&#xA0;Range</th><th>Unit</th></tr><tr><td>MCH [Entitic mass] by Automated count</td><td>29.8</td><td>27 - 33</td><td></td><td>pg</td></tr></table></div>"
        },
        "status": "final",
        "subject": {
          "reference": "urn:uuid:b29ca268-a90f-4ed5-874c-cba8369aca54",
          "display": "Hynek Kubíčková"
        },
        "effectiveDateTime": "2022-10-06T12:02:45Z"
      }
    },
    {
      "fullUrl": "urn:uuid:d09a6af7-8c5b-456e-be8f-3f7025ad178f",
      "resource": {
        "resourceType": "Observation",
        "id": "d09a6af7-8c5b-456e-be8f-3f7025ad178f",
        "meta": {
          "profile": [
            "http://hl7.eu/fhir/laboratory/StructureDefinition/Observation-resultslab-eu-lab"
          ]
        },
        "performer": [
          {
            "display": "The Central European Lab"
          }
        ],
        "category": [
          {
            "coding": [
              {
                "system": "http://terminology.hl7.org/CodeSystem/observation-category",
                "code": "laboratory"
              }
            ]
          }
        ],
        "code": {
          "coding": [
            {
              "code": "786-4",
              "system": "http://loinc.org",
              "display": "MCHC [Mass/volume] by Automated count"
            }
          ],
          "text": "MCHC [Mass/volume] by Automated count"
        },
        "valueQuantity": {
          "system": "http://unitsofmeasure.org",
          "value": 33.8,
          "unit": "g/dL",
          "code": "g/dL"
        },
        "referenceRange": [
          {
            "low": {
              "value": 32,
              "code": "g/dL",
              "system": "http://unitsofmeasure.org"
            }
          },
          {
            "high": {
              "value": 36,
              "code": "g/dL",
              "system": "http://unitsofmeasure.org"
            }
          }
        ],
        "text": {
          "status": "generated",
          "div": "<div xmlns=\"http://www.w3.org/1999/xhtml\"><table class=\"hl7__eu__lab__report\"><tr><th>Test</th><th>06-Oct-2022</th><th>Reference&#xA0;Range</th><th>Unit</th></tr><tr><td>MCHC [Mass/volume] by Automated count</td><td>33.8</td><td>32 - 36</td><td></td><td>g/dL</td></tr></table></div>"
        },
        "status": "final",
        "subject": {
          "reference": "urn:uuid:b29ca268-a90f-4ed5-874c-cba8369aca54",
          "display": "Hynek Kubíčková"
        },
        "effectiveDateTime": "2022-10-06T12:02:45Z"
      }
    },
    {
      "fullUrl": "urn:uuid:ef482f8b-827a-4734-84eb-767c82016d2b",
      "resource": {
        "resourceType": "Observation",
        "id": "ef482f8b-827a-4734-84eb-767c82016d2b",
        "meta": {
          "profile": [
            "http://hl7.eu/fhir/laboratory/StructureDefinition/Observation-resultslab-eu-lab"
          ]
        },
        "performer": [
          {
            "display": "The Central European Lab"
          }
        ],
        "category": [
          {
            "coding": [
              {
                "system": "http://terminology.hl7.org/CodeSystem/observation-category",
                "code": "laboratory"
              }
            ]
          }
        ],
        "code": {
          "coding": [
            {
              "code": "21000-5",
              "system": "http://loinc.org",
              "display": "Erythrocyte distribution width [Entitic volume] by Automated count"
            }
          ],
          "text": "Erythrocyte distribution width [Entitic volume] by Automated count"
        },
        "valueQuantity": {
          "system": "http://unitsofmeasure.org",
          "value": 45.7,
          "unit": "fL",
          "code": "fL"
        },
        "referenceRange": [
          {
            "low": {
              "value": 36,
              "code": "fL",
              "system": "http://unitsofmeasure.org"
            }
          },
          {
            "high": {
              "value": 55,
              "code": "fL",
              "system": "http://unitsofmeasure.org"
            }
          }
        ],
        "text": {
          "status": "generated",
          "div": "<div xmlns=\"http://www.w3.org/1999/xhtml\"><table class=\"hl7__eu__lab__report\"><tr><th>Test</th><th>06-Oct-2022</th><th>Reference&#xA0;Range</th><th>Unit</th></tr><tr><td>Erythrocyte distribution width [Entitic volume] by Automated count</td><td>45.7</td><td>36 - 55</td><td></td><td>fL</td></tr></table></div>"
        },
        "status": "final",
        "subject": {
          "reference": "urn:uuid:b29ca268-a90f-4ed5-874c-cba8369aca54",
          "display": "Hynek Kubíčková"
        },
        "effectiveDateTime": "2022-10-06T12:02:45Z"
      }
    },
    {
      "fullUrl": "urn:uuid:320ea43e-11c9-40ca-a19c-3c60a43404c4",
      "resource": {
        "resourceType": "Observation",
        "id": "320ea43e-11c9-40ca-a19c-3c60a43404c4",
        "meta": {
          "profile": [
            "http://hl7.eu/fhir/laboratory/StructureDefinition/Observation-resultslab-eu-lab"
          ]
        },
        "performer": [
          {
            "display": "The Central European Lab"
          }
        ],
        "category": [
          {
            "coding": [
              {
                "system": "http://terminology.hl7.org/CodeSystem/observation-category",
                "code": "laboratory"
              }
            ]
          }
        ],
        "code": {
          "coding": [
            {
              "code": "777-3",
              "system": "http://loinc.org",
              "display": "Platelets [#/volume] in Blood by Automated count"
            }
          ],
          "text": "Platelets [#/volume] in Blood by Automated count"
        },
        "valueQuantity": {
          "system": "http://unitsofmeasure.org",
          "value": 251.7,
          "unit": "10*3/uL",
          "code": "10*3/uL"
        },
        "referenceRange": [
          {
            "low": {
              "value": 150,
              "code": "10*3/uL",
              "system": "http://unitsofmeasure.org"
            }
          },
          {
            "high": {
              "value": 350,
              "code": "10*3/uL",
              "system": "http://unitsofmeasure.org"
            }
          }
        ],
        "text": {
          "status": "generated",
          "div": "<div xmlns=\"http://www.w3.org/1999/xhtml\"><table class=\"hl7__eu__lab__report\"><tr><th>Test</th><th>06-Oct-2022</th><th>Reference&#xA0;Range</th><th>Unit</th></tr><tr><td>Platelets [#/volume] in Blood by Automated count</td><td>251.7</td><td>150 - 350</td><td></td><td>10*3/uL</td></tr></table></div>"
        },
        "status": "final",
        "subject": {
          "reference": "urn:uuid:b29ca268-a90f-4ed5-874c-cba8369aca54",
          "display": "Hynek Kubíčková"
        },
        "effectiveDateTime": "2022-10-06T12:02:45Z"
      }
    },
    {
      "fullUrl": "urn:uuid:6d011450-ed62-4c68-aefc-100b40c68921",
      "resource": {
        "resourceType": "Observation",
        "id": "6d011450-ed62-4c68-aefc-100b40c68921",
        "meta": {
          "profile": [
            "http://hl7.eu/fhir/laboratory/StructureDefinition/Observation-resultslab-eu-lab"
          ]
        },
        "performer": [
          {
            "display": "The Central European Lab"
          }
        ],
        "category": [
          {
            "coding": [
              {
                "system": "http://terminology.hl7.org/CodeSystem/observation-category",
                "code": "laboratory"
              }
            ]
          }
        ],
        "code": {
          "coding": [
            {
              "code": "32207-3",
              "system": "http://loinc.org",
              "display": "Platelet distribution width [Entitic volume] in Blood by Automated count"
            }
          ],
          "text": "Platelet distribution width [Entitic volume] in Blood by Automated count"
        },
        "valueQuantity": {
          "system": "http://unitsofmeasure.org",
          "value": 377.3,
          "unit": "fL",
          "code": "fL"
        },
        "referenceRange": [
          {
            "low": {
              "value": 150,
              "code": "fL",
              "system": "http://unitsofmeasure.org"
            }
          },
          {
            "high": {
              "value": 450,
              "code": "fL",
              "system": "http://unitsofmeasure.org"
            }
          }
        ],
        "text": {
          "status": "generated",
          "div": "<div xmlns=\"http://www.w3.org/1999/xhtml\"><table class=\"hl7__eu__lab__report\"><tr><th>Test</th><th>06-Oct-2022</th><th>Reference&#xA0;Range</th><th>Unit</th></tr><tr><td>Platelet distribution width [Entitic volume] in Blood by Automated count</td><td>377.3</td><td>150 - 450</td><td></td><td>fL</td></tr></table></div>"
        },
        "status": "final",
        "subject": {
          "reference": "urn:uuid:b29ca268-a90f-4ed5-874c-cba8369aca54",
          "display": "Hynek Kubíčková"
        },
        "effectiveDateTime": "2022-10-06T12:02:45Z"
      }
    },
    {
      "fullUrl": "urn:uuid:decfaa92-97c8-4517-ba74-34beaab26f83",
      "resource": {
        "resourceType": "Observation",
        "id": "decfaa92-97c8-4517-ba74-34beaab26f83",
        "meta": {
          "profile": [
            "http://hl7.eu/fhir/laboratory/StructureDefinition/Observation-resultslab-eu-lab"
          ]
        },
        "performer": [
          {
            "display": "The Central European Lab"
          }
        ],
        "category": [
          {
            "coding": [
              {
                "system": "http://terminology.hl7.org/CodeSystem/observation-category",
                "code": "laboratory"
              }
            ]
          }
        ],
        "code": {
          "coding": [
            {
              "code": "32623-1",
              "system": "http://loinc.org",
              "display": "Platelet mean volume [Entitic volume] in Blood by Automated count"
            }
          ],
          "text": "Platelet mean volume [Entitic volume] in Blood by Automated count"
        },
        "valueQuantity": {
          "system": "http://unitsofmeasure.org",
          "value": 11.8,
          "unit": "fL",
          "code": "fL"
        },
        "referenceRange": [
          {
            "low": {
              "value": 9.8,
              "code": "fL",
              "system": "http://unitsofmeasure.org"
            }
          },
          {
            "high": {
              "value": 13.8,
              "code": "fL",
              "system": "http://unitsofmeasure.org"
            }
          }
        ],
        "text": {
          "status": "generated",
          "div": "<div xmlns=\"http://www.w3.org/1999/xhtml\"><table class=\"hl7__eu__lab__report\"><tr><th>Test</th><th>06-Oct-2022</th><th>Reference&#xA0;Range</th><th>Unit</th></tr><tr><td>Platelet mean volume [Entitic volume] in Blood by Automated count</td><td>11.8</td><td>9.8 - 13.8</td><td></td><td>fL</td></tr></table></div>"
        },
        "status": "final",
        "subject": {
          "reference": "urn:uuid:b29ca268-a90f-4ed5-874c-cba8369aca54",
          "display": "Hynek Kubíčková"
        },
        "effectiveDateTime": "2022-10-06T12:02:45Z"
      }
    },
    {
      "fullUrl": "urn:uuid:79bc8e67-8fcf-4dce-a16e-f47b8ad5f30b",
      "resource": {
        "resourceType": "Device",
        "id": "79bc8e67-8fcf-4dce-a16e-f47b8ad5f30b",
        "deviceName": [
          {
            "name": "SYNDERAI Synthetic Generator",
            "type": "manufacturer-name"
          }
        ],
        "version": [
          {
            "value": "5.0"
          }
        ],
        "text": {
          "status": "generated",
          "div": "<div xmlns=\"http://www.w3.org/1999/xhtml\">SYNDERAI Synthetic Generator v5.0</div>"
        },
        "status": "active\"",
        "distinctIdentifier": "synderai-generator-50",
        "manufacturer": "SYNDERAI Project"
      }
    },
    {
      "fullUrl": "urn:uuid:47c6ff58-5a53-41f9-af32-80b71f6639b8",
      "resource": {
        "resourceType": "Provenance",
        "id": "47c6ff58-5a53-41f9-af32-80b71f6639b8",
        "target": [
          {
            "reference": "Patient/b29ca268-a90f-4ed5-874c-cba8369aca54"
          },
          {
            "reference": "Bundle/bea25003-aa8d-4440-82ad-f77bc84771fa"
          },
          {
            "reference": "Composition/ab13b8be-6c83-436c-90db-65b95d884d53"
          },
          {
            "reference": "PractitionerRole/e6a8a1b5-37a3-4a91-8baf-a039b2d15347"
          },
          {
            "reference": "Organization/8c014e56-f8f4-4ef4-b98d-8c9217f68655"
          },
          {
            "reference": "Practitioner/8cee5b02-d63b-4d62-89fb-0317ebdfd0c2"
          }
        ],
        "activity": {
          "text": "Synthetic Example Data Generation"
        },
        "policy": [
          "https://synderai.net/synderai-synthetic-data-policy"
        ],
        "agent": [
          {
            "type": {
              "text": "author"
            },
            "who": {
              "reference": "Device/79bc8e67-8fcf-4dce-a16e-f47b8ad5f30b"
            }
          }
        ],
        "reason": [
          {
            "text": "Interoperability Testing and Training (non-clinical use)"
          }
        ],
        "text": {
          "status": "generated",
          "div": "<div xmlns=\"http://www.w3.org/1999/xhtml\">Provenance for SYNDERAI Synthetic Example Data Resource</div>"
        },
        "recorded": "2022-10-06T12:02:45Z"
      }
    }
  ],
  "type": "document",
  "timestamp": "2022-10-06T12:02:45Z"
}
