{
  "resourceType": "Bundle",
  "id": "dc8bfe6f-17cc-4c34-be30-53117485b700",
  "meta": {
    "profile": [
      "http://hl7.eu/fhir/eps/StructureDefinition/bundle-eu-eps"
    ]
  },
  "identifier": {
    "assigner": {
      "display": "HL7 Europe"
    },
    "system": "urn:oid:2.16.840.1.113883.2.51.999",
    "value": "f198e98d-345c-4620-992f-14ad546e8de0"
  },
  "entry": [
    {
      "fullUrl": "urn:uuid:5a4ad858-135f-4dbc-9e8e-05e187fa79db",
      "resource": {
        "resourceType": "Composition",
        "id": "5a4ad858-135f-4dbc-9e8e-05e187fa79db",
        "meta": {
          "security": [
            {
              "system": "http://terminology.hl7.org/CodeSystem/v3-ActReason",
              "code": "HTEST"
            },
            {
              "system": "http://terminology.hl7.org/CodeSystem/v3-ActReason",
              "code": "TRAIN"
            }
          ],
          "tag": [
            {
              "system": "https://synderai.net/fhir/CodeSystem/tags",
              "code": "synthetic",
              "display": "SYNDERAI Synthetic data"
            }
          ],
          "profile": [
            "http://hl7.eu/fhir/eps/StructureDefinition/composition-eu-eps"
          ]
        },
        "identifier": {
          "assigner": {
            "display": "HL7 Europe"
          },
          "system": "urn:oid:2.16.840.1.113883.2.51.999",
          "value": "366dcb6a-a369-4de4-8c16-4f28d98dfbbe"
        },
        "type": {
          "coding": [
            {
              "system": "http://loinc.org",
              "code": "60591-5",
              "display": "Patient summary Document"
            }
          ],
          "text": "Patient summary Document"
        },
        "author": [
          {
            "reference": "urn:uuid:71ab422e-7d4d-4abc-9ad8-3af43210ffc4"
          }
        ],
        "section": [
          {
            "text": {
              "status": "generated",
              "div": "<div xmlns=\"http://www.w3.org/1999/xhtml\"><table class=\"hl7__ips\"><tr><th>Condition</th><th>Onset Date</th><th>Status</th></tr><tr><td>Chronic kidney disease stage 2</td><td><span class=\"nb\">11-Mar-2021</span></td><td>active</td></tr><tr><td>Microalbuminuria due to type 2 diabetes mellitus</td><td><span class=\"nb\">11-Mar-2021</span></td><td>active</td></tr><tr><td>Disorder of kidney due to diabetes mellitus</td><td><span class=\"nb\">01-Jan-2009</span></td><td>active</td></tr><tr><td>Chronic kidney disease stage 1</td><td><span class=\"nb\">01-Jan-2009</span></td><td>active</td></tr><tr><td>Hyperlipidemia</td><td><span class=\"nb\">20-Sep-1990</span></td><td>active</td></tr><tr><td>Essential hypertension</td><td><span class=\"nb\">05-Aug-1982</span></td><td>active</td></tr></table></div>"
            },
            "entry": [
              {
                "reference": "urn:uuid:dd646c92-5da5-414b-9868-733e4736888d"
              },
              {
                "reference": "urn:uuid:b310c9bf-6f41-4b4e-81a6-34cdf3c5f1b3"
              },
              {
                "reference": "urn:uuid:9dc976a1-2561-4159-9133-87bc8a1c6192"
              },
              {
                "reference": "urn:uuid:4569f54e-a657-4977-8a00-2ac873bf97b7"
              },
              {
                "reference": "urn:uuid:06c08ef3-7b0a-40f6-8599-6485ee027144"
              },
              {
                "reference": "urn:uuid:4a0da6e1-3cfa-4163-bbd5-b459f9ab5896"
              }
            ],
            "code": {
              "coding": [
                {
                  "system": "http://loinc.org",
                  "code": "11450-4",
                  "display": "Problem list - Reported"
                }
              ]
            },
            "title": "Problem list"
          },
          {
            "text": {
              "status": "generated",
              "div": "<div xmlns=\"http://www.w3.org/1999/xhtml\"><table class=\"hl7__ips\"><tr><th>Medication</th><th>Since</th><th>Form</th><th>Dosage</th><th>Reason</th></tr><tr><td>Amlodipine (as amlodipine besylate) 2.5 mg oral tablet</td><td><span class=\"nb\">2025-07-10</span></td><td>-</td><td>1 tablet (2.5 mg) by mouth once daily</td><td>Essential hypertension (disorder)</td></tr><tr><td>Lisinopril 10 mg oral tablet</td><td><span class=\"nb\">2025-07-10</span></td><td>-</td><td>1 tablet (10 mg) by mouth once daily</td><td>Essential hypertension (disorder)</td></tr><tr><td>Simvastatin 10 mg oral tablet</td><td><span class=\"nb\">2025-04-04</span></td><td>-</td><td>1 tablet (10 mg) by mouth once daily</td><td>Hyperlipidemia</td></tr></table></div>"
            },
            "entry": [
              {
                "reference": "urn:uuid:55dd228c-1d0c-487b-ac02-33307f79590b"
              },
              {
                "reference": "urn:uuid:2794a1e7-281a-45a6-a170-421c1a293569"
              },
              {
                "reference": "urn:uuid:a1787277-c3ea-4a0d-bbbc-364a08a62ece"
              }
            ],
            "code": {
              "coding": [
                {
                  "system": "http://loinc.org",
                  "code": "10160-0",
                  "display": "History of Medication use Narrative"
                }
              ]
            },
            "title": "Medication list"
          },
          {
            "text": {
              "status": "generated",
              "div": "<div xmlns=\"http://www.w3.org/1999/xhtml\"><table class=\"hl7__ips\"><tr><th>Vaccine</th><th>Date</th></tr><tr><td>Influenza virus antigen only vaccine product</td><td><span class=\"nb\">05-Dec-2024</span></td></tr><tr><td>Clostridium tetani toxoid antigen adsorbed only vaccine product</td><td><span class=\"nb\">19-Dec-2019</span></td></tr></table></div>"
            },
            "entry": [
              {
                "reference": "urn:uuid:5624a5da-63cf-460d-b6ef-0c33d783d235"
              },
              {
                "reference": "urn:uuid:bdaabbfe-0529-4293-8c56-8b1e55e5d8a5"
              }
            ],
            "code": {
              "coding": [
                {
                  "system": "http://loinc.org",
                  "code": "11369-6",
                  "display": "History of Immunization note"
                }
              ]
            },
            "title": "Immunizations list"
          },
          {
            "text": {
              "status": "generated",
              "div": "<div xmlns=\"http://www.w3.org/1999/xhtml\"><table class=\"hl7__ips\"><tr><th>Procedure</th><th>Date</th><th>Reason</th></tr><tr><td>Depression screening</td><td><span class=\"nb\">19-Dec-2024</span></td><td>-</td></tr><tr><td>Medication reconciliation</td><td><span class=\"nb\">19-Dec-2024</span></td><td>-</td></tr><tr><td>Assessment of health and social care needs</td><td><span class=\"nb\">19-Dec-2024</span></td><td>-</td></tr><tr><td>Depression screening using Patient Health Questionnaire Two-Item score (procedure)</td><td><span class=\"nb\">19-Dec-2024</span></td><td>-</td></tr><tr><td>Assessment using Morse Fall Scale</td><td><span class=\"nb\">05-Dec-2024</span></td><td>-</td></tr><tr><td>Assessment using AUDIT-C (Alcohol Use Disorders Identification Test - Consumption)</td><td><span class=\"nb\">05-Dec-2024</span></td><td>-</td></tr><tr><td>Assessment of substance use</td><td><span class=\"nb\">05-Dec-2024</span></td><td>-</td></tr><tr><td>Suture open wound</td><td><span class=\"nb\">25-Apr-2019</span></td><td>Facial laceration</td></tr><tr><td>Referral to home health care service</td><td><span class=\"nb\">10-Mar-2016</span></td><td>-</td></tr></table></div>"
            },
            "entry": [
              {
                "reference": "urn:uuid:bfde25c0-9a82-4c20-9aa3-85aebac9c965"
              },
              {
                "reference": "urn:uuid:e599d9a8-7292-4002-9559-da84b1544904"
              },
              {
                "reference": "urn:uuid:d5c50553-4875-45ac-b444-0c46ccdf9460"
              },
              {
                "reference": "urn:uuid:c299ed5d-0030-42a3-a7ad-6fffeb140751"
              },
              {
                "reference": "urn:uuid:148d4edc-966f-4184-83e5-4fd09a8a8c93"
              },
              {
                "reference": "urn:uuid:f8ed0cdd-6a4b-4e97-ad22-0c900a4e4ae9"
              },
              {
                "reference": "urn:uuid:4270be4b-7a65-468b-8b4d-c262c1fd0daf"
              },
              {
                "reference": "urn:uuid:7edee3fb-5c3f-4181-8f33-26385c4ec399"
              },
              {
                "reference": "urn:uuid:6d1e72dc-8c91-4ce6-a367-9333addb7acd"
              }
            ],
            "code": {
              "coding": [
                {
                  "system": "http://loinc.org",
                  "code": "47519-4",
                  "display": "History of Procedures Document"
                }
              ]
            },
            "title": "Procedure History list"
          },
          {
            "text": {
              "status": "generated",
              "div": "<div xmlns=\"http://www.w3.org/1999/xhtml\"><table class=\"hl7__ips\"><tr><th>Allergy/Intolerance</th><th>Onset Date</th><th>Status</th><th>Type</th><th>Reaction</th></tr><tr><td></td><td>?</td><td>active</td><td>?</td><td></td></tr></table></div>"
            },
            "entry": [
              {
                "reference": "urn:uuid:d8b1a703-21c6-4387-9ec9-e71528e5da15"
              }
            ],
            "code": {
              "coding": [
                {
                  "system": "http://loinc.org",
                  "code": "48765-2",
                  "display": "Allergies and adverse reactions Document"
                }
              ]
            },
            "title": "Allergies and Intolerances"
          },
          {
            "text": {
              "status": "generated",
              "div": "<div xmlns=\"http://www.w3.org/1999/xhtml\"><table class=\"hl7__ips\"><tr><th>Active Planned Care / Goals</th><th>Start Date</th><th>Reason</th></tr><tr><td>Hyperlipidemia clinical management plan</td><td><span class=\"nb\">11-Oct-1990</span></td><td>Hyperlipidemia</td></tr><tr><td><ul><li>Achieve and maintain LDL cholesterol below 70 mg/dL to reduce cardiovascular risk.</li><li>Keep total cholesterol below 200 mg/dL.</li><li>Keep triglycerides below 150 mg/dL.</li><li>Maintain HDL cholesterol above 50 mg/dL.</li></ul></td><td></td><td></td></tr><tr><td>Lifestyle education regarding hypertension</td><td><span class=\"nb\">05-Aug-1982</span></td><td>Essential hypertension (disorder)</td></tr><tr><td><ul><li>Maintain blood pressure below 130/80 mmHg to reduce risk of kidney and cardiovascular complications.</li><li>Patient will demonstrate understanding of lifestyle modifications for hypertension, including dietary sodium reduction, regular physical activity, and medication adherence.</li></ul></td><td></td><td></td></tr><tr><th>Immunization Recommendation</th><th>Due Date</th><th>Reason</th></tr><tr><td>Vaccine product containing only Influenza virus antigen (medicinal product)</td><td><span class=\"nb\">01-Oct-2025</span></td><td>Annual seasonal influenza vaccination</td></tr></table></div>"
            },
            "entry": [
              {
                "reference": "urn:uuid:d78b5ed9-cb5f-4854-86ce-acf65dc0a3dc"
              },
              {
                "reference": "urn:uuid:a163c73a-4f59-4c6b-a51f-107e446d5d32"
              },
              {
                "reference": "urn:uuid:65b6d4f1-7b67-4dca-9eb1-4e62986c8a5e"
              }
            ],
            "code": {
              "coding": [
                {
                  "system": "http://loinc.org",
                  "code": "18776-5",
                  "display": "Plan of care note"
                }
              ]
            },
            "title": "Care Plan"
          },
          {
            "text": {
              "status": "generated",
              "div": "<div xmlns=\"http://www.w3.org/1999/xhtml\"><table class=\"hl7__ips\"><tr><th>Vital Signs</th><th>2025-07-10</th><th>2025-04-03</th></tr><tr><td>Body Height</td><td>154.6 cm</td><td>154.6 cm</td></tr><tr><td>Pain severity - 0-10 verbal numeric rating [Score] - Reported</td><td>2 {score}</td><td>4 {score}</td></tr><tr><td>Body Weight</td><td>72.5 kg</td><td>72.5 kg</td></tr><tr><td>Body mass index (BMI) [Ratio]</td><td>30.3 kg/m2</td><td>30.3 kg/m2</td></tr><tr><td>Diastolic Blood Pressure</td><td>70 mm[Hg]</td><td>68 mm[Hg]</td></tr><tr><td>Systolic Blood Pressure</td><td>113 mm[Hg]</td><td>116 mm[Hg]</td></tr><tr><td>Heart rate</td><td>77 /min</td><td>97 /min</td></tr><tr><td>Respiratory rate</td><td>13 /min</td><td>15 /min</td></tr></table></div>"
            },
            "entry": [
              {
                "reference": "urn:uuid:e432a4e0-1697-4ec8-97ea-223006e053ef"
              },
              {
                "reference": "urn:uuid:c9ce231a-118b-4ff7-abb3-411a20999487"
              },
              {
                "reference": "urn:uuid:a0ef5cbc-3bce-4dab-bf94-fe07d4fc7660"
              },
              {
                "reference": "urn:uuid:1c9d532f-9e7e-4cf4-ae1a-a5141f67bc78"
              },
              {
                "reference": "urn:uuid:3c9de288-4c38-46b6-8b14-f8d444a4d220"
              },
              {
                "reference": "urn:uuid:5a4ffcc4-0567-48e4-a0a1-02f947cc89d1"
              },
              {
                "reference": "urn:uuid:f1ffe6ee-a4cf-4c8b-b1cd-ad195363a365"
              },
              {
                "reference": "urn:uuid:b52e8121-76c0-47a9-871f-155794dc14cb"
              },
              {
                "reference": "urn:uuid:c6b793e8-b793-42f9-a02c-2d9442bde8ab"
              },
              {
                "reference": "urn:uuid:b8972ec5-8435-4967-8533-6a680a7a389f"
              },
              {
                "reference": "urn:uuid:b46cdb9c-4e90-4ecc-8f25-9511d6461105"
              },
              {
                "reference": "urn:uuid:255072f3-dcb0-4305-a486-7f22b120ed01"
              },
              {
                "reference": "urn:uuid:ff22f270-8652-429e-bcf3-0846d80179a7"
              },
              {
                "reference": "urn:uuid:1fc4296c-21f9-47c4-8955-e107147ff6df"
              },
              {
                "reference": "urn:uuid:ae322e1d-6633-4e77-861a-14415d0010cf"
              },
              {
                "reference": "urn:uuid:f35667e5-c9ee-433b-8072-97ac5dd0c9ff"
              }
            ],
            "code": {
              "coding": [
                {
                  "system": "http://loinc.org",
                  "code": "8716-3",
                  "display": "Vital signs note"
                }
              ]
            },
            "title": "Vital Signs"
          },
          {
            "text": {
              "status": "generated",
              "div": "<div xmlns=\"http://www.w3.org/1999/xhtml\"><table class=\"hl7__ips\"><table class=\"hl7__ips\"><thead><tr><th>Recent Lab Observations</th><th>10-JUL-2025</th><th>Reference&#xA0;Range</th><th>Unit</th></tr></thead><tbody><tr><td>Glucose [Mass/volume] in Serum or Plasma</td><td>76.4</td><td>70 - 140</td><td>mg/dL</td></tr><tr><td>Urea nitrogen [Mass/volume] in Serum or Plasma</td><td>16.7</td><td>7 - 50</td><td>mg/dL</td></tr><tr><td>Creatinine [Mass/volume] in Serum or Plasma</td><td><strong>2.1 H</strong></td><td>0.6 - 1.1</td><td>mg/dL</td></tr><tr><td>Calcium [Mass/volume] in Serum or Plasma</td><td>9.5</td><td>8.5 - 10.5</td><td>mg/dL</td></tr><tr><td>Sodium [Moles/volume] in Serum or Plasma</td><td>143.6</td><td>135 - 145</td><td>mmol/L</td></tr><tr><td>Potassium [Moles/volume] in Serum or Plasma</td><td>4.1</td><td>3.5 - 5.1</td><td>mmol/L</td></tr><tr><td>Chloride [Moles/volume] in Serum or Plasma</td><td>102.5</td><td>98 - 108</td><td>mmol/L</td></tr><tr><td>Carbon dioxide, total [Moles/volume] in Serum or Plasma</td><td><strong>21.0 L</strong></td><td>22 - 32</td><td>mmol/L</td></tr><tr><td>Appearance of Urine</td><td>Cloudy urine</td><td></td><td></td></tr><tr><td>Odor of Urine</td><td>Urine smell ammoniacal</td><td></td><td></td></tr><tr><td>Clarity of Urine</td><td>Translucent</td><td></td><td></td></tr><tr><td>Color of Urine</td><td>Brown color</td><td></td><td></td></tr><tr><td>Glucose [Mass/volume] in Urine by Test strip</td><td><strong>1.8 H</strong></td><td>0.8 - 0</td><td>mg/dL</td></tr><tr><td>Glucose [Presence] in Urine by Test strip</td><td>++</td><td></td><td></td></tr><tr><td>Bilirubin.total [Mass/volume] in Urine by Test strip</td><td>0.8</td><td>0 - 1</td><td>mg/dL</td></tr><tr><td>Bilirubin.total [Presence] in Urine by Test strip</td><td>Finding of bilirubin in urine</td><td></td><td></td></tr><tr><td>Ketones [Mass/volume] in Urine by Test strip</td><td>12.0</td><td>0 - 20</td><td>mg/dL</td></tr><tr><td>Ketones [Presence] in Urine by Test strip</td><td>Urine ketone test = +</td><td></td><td></td></tr><tr><td>Specific gravity of Urine by Test strip</td><td><strong>1.0 L</strong></td><td>1.01 - 1.03</td><td>{nominal}</td></tr><tr><td>pH of Urine by Test strip</td><td>6.0</td><td>4.6 - 7</td><td>pH</td></tr><tr><td>Protein [Mass/volume] in Urine by Test strip</td><td><strong>223.4 H</strong></td><td>0 - 15</td><td>mg/dL</td></tr><tr><td>Protein [Presence] in Urine by Test strip</td><td>Urine protein test = ++</td><td></td><td></td></tr><tr><td>Nitrite [Presence] in Urine by Test strip</td><td>Urine nitrite negative</td><td></td><td></td></tr><tr><td>Hemoglobin [Presence] in Urine by Test strip</td><td>Urine blood test = negative</td><td></td><td></td></tr><tr><td>Leukocyte esterase [Presence] in Urine by Test strip</td><td>Urine leukocyte test negative</td><td></td><td></td></tr></tbody></table></table></div>"
            },
            "entry": [
              {
                "reference": "urn:uuid:eb2d70b0-e41a-4af0-ba91-68defa1b4005"
              },
              {
                "reference": "urn:uuid:ebe48ef5-34af-42c8-bd30-f3f16cf6b596"
              },
              {
                "reference": "urn:uuid:9c949798-c0c5-4a6c-917c-79e21fc16819"
              },
              {
                "reference": "urn:uuid:ee91dc4b-04da-4d0a-a804-e78279df820e"
              },
              {
                "reference": "urn:uuid:6abadebe-8eb7-432d-9a7b-22bd0aecfc6a"
              },
              {
                "reference": "urn:uuid:4a0da1b5-1496-4213-8006-ee0152df4207"
              },
              {
                "reference": "urn:uuid:d04cece5-a81c-4d89-b643-b6cea92e2fb8"
              },
              {
                "reference": "urn:uuid:6902e8fd-650b-4cc0-96f5-23077e4cdc97"
              },
              {
                "reference": "urn:uuid:945a601e-2491-4524-be3b-d48b713fab1a"
              },
              {
                "reference": "urn:uuid:b09165f8-0d29-4ac5-8217-7f585a969de3"
              },
              {
                "reference": "urn:uuid:80e89271-576f-4c8c-98df-725ccd226403"
              },
              {
                "reference": "urn:uuid:43dba35c-bf11-42ef-b6a3-8ef2712c0704"
              },
              {
                "reference": "urn:uuid:91d53a3a-5b5d-482b-9a2f-b95f292dba7b"
              },
              {
                "reference": "urn:uuid:a9c9e1ed-384a-4e64-ad48-d828f4b526c8"
              },
              {
                "reference": "urn:uuid:e0cc712c-39a7-41f2-a978-14342ceaad2a"
              },
              {
                "reference": "urn:uuid:8e7f43a5-6243-4053-b986-a37121c552e0"
              },
              {
                "reference": "urn:uuid:91c92c0f-3f4a-4115-a385-d2dbc9006212"
              },
              {
                "reference": "urn:uuid:db219039-890b-41d8-883b-2851e6f25c30"
              },
              {
                "reference": "urn:uuid:27a264f9-b421-40fa-8544-8debbf9e841d"
              },
              {
                "reference": "urn:uuid:53b51cde-cc3f-4862-806a-1248cc86072c"
              },
              {
                "reference": "urn:uuid:f7340d3a-5646-4135-b195-d3c8efce421d"
              },
              {
                "reference": "urn:uuid:1c82083f-26ab-4927-9b58-847bd0a2fb72"
              },
              {
                "reference": "urn:uuid:e8d27cb7-6468-4042-bdc8-f1afdd6e5b71"
              },
              {
                "reference": "urn:uuid:67a6fbf5-b96e-49e6-aa19-02c67425f5c0"
              },
              {
                "reference": "urn:uuid:a2a9d01e-5170-4c15-b72c-7af3c2626402"
              }
            ],
            "code": {
              "coding": [
                {
                  "system": "http://loinc.org",
                  "code": "30954-2",
                  "display": "Relevant diagnostic tests/laboratory data note"
                }
              ]
            },
            "title": "Relevant diagnostic tests/laboratory data"
          }
        ],
        "title": "European Patient Summary",
        "status": "final",
        "subject": {
          "reference": "urn:uuid:7b7f01f7-be68-4417-831d-aa53d674b363",
          "display": "Marthe Gallet"
        },
        "custodian": {
          "reference": "urn:uuid:93f52fbf-e555-4b8d-a7f8-88245b46211b"
        },
        "date": "2025-07-10",
        "confidentiality": "N"
      }
    },
    {
      "fullUrl": "urn:uuid:7b7f01f7-be68-4417-831d-aa53d674b363",
      "resource": {
        "resourceType": "Patient",
        "id": "7b7f01f7-be68-4417-831d-aa53d674b363",
        "meta": {
          "security": [
            {
              "system": "http://terminology.hl7.org/CodeSystem/v3-ActReason",
              "code": "HTEST"
            },
            {
              "system": "http://terminology.hl7.org/CodeSystem/v3-ActReason",
              "code": "TRAIN"
            }
          ],
          "tag": [
            {
              "system": "https://synderai.net/fhir/CodeSystem/tags",
              "code": "synthetic",
              "display": "SYNDERAI Synthetic data"
            }
          ],
          "profile": [
            "http://hl7.eu/fhir/eps/StructureDefinition/patient-eu-eps"
          ]
        },
        "identifier": [
          {
            "type": {
              "coding": [
                {
                  "code": "PT",
                  "system": "http://terminology.hl7.org/CodeSystem/v2-0203"
                }
              ]
            },
            "system": "http://ec.europa.eu/identifier/eci",
            "value": "9444-947487-6"
          },
          {
            "type": {
              "coding": [
                {
                  "code": "MR",
                  "system": "http://terminology.hl7.org/CodeSystem/v2-0203"
                }
              ]
            },
            "system": "http://local.setting.eu/identifier",
            "value": "854228d5-a476-2d9c-a1d7-c3202375a617"
          }
        ],
        "name": [
          {
            "family": "Gallet"
          },
          {
            "given": [
              "Marthe"
            ]
          },
          {
            "text": "Marthe Gallet"
          }
        ],
        "address": [
          {
            "line": [
              "3, rue Emmanuel Goncalves"
            ],
            "use": "home",
            "type": "physical",
            "postalCode": "49490",
            "city": "Briand",
            "country": "France"
          }
        ],
        "telecom": [
          {
            "system": "phone",
            "value": "+33 1 70 99 82 74"
          }
        ],
        "extension": [
          {
            "url": "http://hl7.org/fhir/StructureDefinition/patient-nationality",
            "valueCodeableConcept": {
              "coding": [
                {
                  "code": "FR",
                  "system": "http://hl7.org/fhir/ValueSet/country"
                }
              ]
            }
          }
        ],
        "text": {
          "status": "generated",
          "div": "<div xmlns=\"http://www.w3.org/1999/xhtml\"><table class=\"hl7__ips\"><tr><td>Marthe Gallet</td><td>female</td><td>29-Oct-1950</td></tr></table></div>"
        },
        "gender": "female",
        "birthDate": "1950-10-29"
      }
    },
    {
      "fullUrl": "urn:uuid:71ab422e-7d4d-4abc-9ad8-3af43210ffc4",
      "resource": {
        "resourceType": "PractitionerRole",
        "id": "71ab422e-7d4d-4abc-9ad8-3af43210ffc4",
        "meta": {
          "profile": [
            "http://hl7.eu/fhir/base/StructureDefinition/practitionerRole-eu"
          ]
        },
        "text": {
          "status": "generated",
          "div": "<div xmlns=\"http://www.w3.org/1999/xhtml\"><table class=\"hl7__ips\">Provider Role Id 71ab422e-7d4d-4abc-9ad8-3af43210ffc4</table></div>"
        },
        "practitioner": {
          "reference": "urn:uuid:f79aeddd-18b9-46fb-b721-e49c9342b392"
        },
        "organization": {
          "reference": "urn:uuid:93f52fbf-e555-4b8d-a7f8-88245b46211b"
        }
      }
    },
    {
      "fullUrl": "urn:uuid:f79aeddd-18b9-46fb-b721-e49c9342b392",
      "resource": {
        "resourceType": "Practitioner",
        "id": "f79aeddd-18b9-46fb-b721-e49c9342b392",
        "meta": {
          "profile": [
            "http://hl7.eu/fhir/base/StructureDefinition/practitioner-eu"
          ]
        },
        "name": [
          {
            "prefix": [
              "Dr."
            ],
            "given": [
              "Hel"
            ],
            "family": "Ping"
          }
        ],
        "text": {
          "status": "generated",
          "div": "<div xmlns=\"http://www.w3.org/1999/xhtml\"><table class=\"hl7__ips\">Dr. Hel Ping</table></div>"
        }
      }
    },
    {
      "fullUrl": "urn:uuid:93f52fbf-e555-4b8d-a7f8-88245b46211b",
      "resource": {
        "resourceType": "Organization",
        "id": "93f52fbf-e555-4b8d-a7f8-88245b46211b",
        "meta": {
          "profile": [
            "http://hl7.eu/fhir/base/StructureDefinition/organization-eu"
          ]
        },
        "identifier": [
          {
            "assigner": {
              "display": "HL7 Europe"
            },
            "system": "urn:oid:2.16.840.1.113883.2.51.999",
            "value": "ba321cdf-9815-4fc8-b6df-12ecd480b21e"
          }
        ],
        "address": [
          {
            "line": [
              "Rue Larrey nan"
            ],
            "city": "Angers",
            "postalCode": "49100",
            "country": "France"
          }
        ],
        "text": {
          "status": "generated",
          "div": "<div xmlns=\"http://www.w3.org/1999/xhtml\"><table class=\"hl7__ips\">CHU d&#039;Angers</table></div>"
        },
        "name": "CHU d&#039;Angers"
      }
    },
    {
      "fullUrl": "urn:uuid:dd646c92-5da5-414b-9868-733e4736888d",
      "resource": {
        "resourceType": "Condition",
        "id": "dd646c92-5da5-414b-9868-733e4736888d",
        "meta": {
          "profile": [
            "http://hl7.org/fhir/uv/ips/StructureDefinition/Condition-uv-ips"
          ]
        },
        "category": [
          {
            "coding": [
              {
                "code": "problem-list-item",
                "system": "http://terminology.hl7.org/CodeSystem/condition-category",
                "display": "Problem List Item"
              }
            ]
          }
        ],
        "code": {
          "coding": [
            {
              "code": "431856006",
              "system": "http://snomed.info/sct",
              "display": "Chronic kidney disease stage 2 (disorder)"
            }
          ],
          "text": "Chronic kidney disease stage 2"
        },
        "text": {
          "status": "generated",
          "div": "<div xmlns=\"http://www.w3.org/1999/xhtml\"><table class=\"hl7__ips\"><tr><td>Chronic kidney disease stage 2</td><td><span class=\"nb\">11-Mar-2021</span></td><td>active</td></tr></table></div>"
        },
        "onsetDateTime": "2021-03-11",
        "subject": {
          "reference": "urn:uuid:",
          "display": "Marthe Gallet"
        },
        "asserter": {
          "reference": "urn:uuid:",
          "display": "CHU d&#039;Angers"
        }
      }
    },
    {
      "fullUrl": "urn:uuid:b310c9bf-6f41-4b4e-81a6-34cdf3c5f1b3",
      "resource": {
        "resourceType": "Condition",
        "id": "b310c9bf-6f41-4b4e-81a6-34cdf3c5f1b3",
        "meta": {
          "profile": [
            "http://hl7.org/fhir/uv/ips/StructureDefinition/Condition-uv-ips"
          ]
        },
        "category": [
          {
            "coding": [
              {
                "code": "problem-list-item",
                "system": "http://terminology.hl7.org/CodeSystem/condition-category",
                "display": "Problem List Item"
              }
            ]
          }
        ],
        "code": {
          "coding": [
            {
              "code": "90781000119102",
              "system": "http://snomed.info/sct",
              "display": "Microalbuminuria due to type 2 diabetes mellitus (disorder)"
            }
          ],
          "text": "Microalbuminuria due to type 2 diabetes mellitus"
        },
        "text": {
          "status": "generated",
          "div": "<div xmlns=\"http://www.w3.org/1999/xhtml\"><table class=\"hl7__ips\"><tr><td>Microalbuminuria due to type 2 diabetes mellitus</td><td><span class=\"nb\">11-Mar-2021</span></td><td>active</td></tr></table></div>"
        },
        "onsetDateTime": "2021-03-11",
        "subject": {
          "reference": "urn:uuid:",
          "display": "Marthe Gallet"
        },
        "asserter": {
          "reference": "urn:uuid:",
          "display": "CHU d&#039;Angers"
        }
      }
    },
    {
      "fullUrl": "urn:uuid:9dc976a1-2561-4159-9133-87bc8a1c6192",
      "resource": {
        "resourceType": "Condition",
        "id": "9dc976a1-2561-4159-9133-87bc8a1c6192",
        "meta": {
          "profile": [
            "http://hl7.org/fhir/uv/ips/StructureDefinition/Condition-uv-ips"
          ]
        },
        "category": [
          {
            "coding": [
              {
                "code": "problem-list-item",
                "system": "http://terminology.hl7.org/CodeSystem/condition-category",
                "display": "Problem List Item"
              }
            ]
          }
        ],
        "code": {
          "coding": [
            {
              "code": "127013003",
              "system": "http://snomed.info/sct",
              "display": "Disorder of kidney due to diabetes mellitus (disorder)"
            }
          ],
          "text": "Disorder of kidney due to diabetes mellitus"
        },
        "text": {
          "status": "generated",
          "div": "<div xmlns=\"http://www.w3.org/1999/xhtml\"><table class=\"hl7__ips\"><tr><td>Disorder of kidney due to diabetes mellitus</td><td><span class=\"nb\">01-Jan-2009</span></td><td>active</td></tr></table></div>"
        },
        "onsetDateTime": "2009-01-01",
        "subject": {
          "reference": "urn:uuid:",
          "display": "Marthe Gallet"
        },
        "asserter": {
          "reference": "urn:uuid:",
          "display": "CHU d&#039;Angers"
        }
      }
    },
    {
      "fullUrl": "urn:uuid:4569f54e-a657-4977-8a00-2ac873bf97b7",
      "resource": {
        "resourceType": "Condition",
        "id": "4569f54e-a657-4977-8a00-2ac873bf97b7",
        "meta": {
          "profile": [
            "http://hl7.org/fhir/uv/ips/StructureDefinition/Condition-uv-ips"
          ]
        },
        "category": [
          {
            "coding": [
              {
                "code": "problem-list-item",
                "system": "http://terminology.hl7.org/CodeSystem/condition-category",
                "display": "Problem List Item"
              }
            ]
          }
        ],
        "code": {
          "coding": [
            {
              "code": "431855005",
              "system": "http://snomed.info/sct",
              "display": "Chronic kidney disease stage 1 (disorder)"
            }
          ],
          "text": "Chronic kidney disease stage 1"
        },
        "text": {
          "status": "generated",
          "div": "<div xmlns=\"http://www.w3.org/1999/xhtml\"><table class=\"hl7__ips\"><tr><td>Chronic kidney disease stage 1</td><td><span class=\"nb\">01-Jan-2009</span></td><td>active</td></tr></table></div>"
        },
        "onsetDateTime": "2009-01-01",
        "subject": {
          "reference": "urn:uuid:",
          "display": "Marthe Gallet"
        },
        "asserter": {
          "reference": "urn:uuid:",
          "display": "CHU d&#039;Angers"
        }
      }
    },
    {
      "fullUrl": "urn:uuid:06c08ef3-7b0a-40f6-8599-6485ee027144",
      "resource": {
        "resourceType": "Condition",
        "id": "06c08ef3-7b0a-40f6-8599-6485ee027144",
        "meta": {
          "profile": [
            "http://hl7.org/fhir/uv/ips/StructureDefinition/Condition-uv-ips"
          ]
        },
        "category": [
          {
            "coding": [
              {
                "code": "problem-list-item",
                "system": "http://terminology.hl7.org/CodeSystem/condition-category",
                "display": "Problem List Item"
              }
            ]
          }
        ],
        "code": {
          "coding": [
            {
              "code": "55822004",
              "system": "http://snomed.info/sct",
              "display": "Hyperlipidemia (disorder)"
            }
          ],
          "text": "Hyperlipidemia"
        },
        "text": {
          "status": "generated",
          "div": "<div xmlns=\"http://www.w3.org/1999/xhtml\"><table class=\"hl7__ips\"><tr><td>Hyperlipidemia</td><td><span class=\"nb\">20-Sep-1990</span></td><td>active</td></tr></table></div>"
        },
        "onsetDateTime": "1990-09-20",
        "subject": {
          "reference": "urn:uuid:",
          "display": "Marthe Gallet"
        },
        "asserter": {
          "reference": "urn:uuid:",
          "display": "CHU d&#039;Angers"
        }
      }
    },
    {
      "fullUrl": "urn:uuid:4a0da6e1-3cfa-4163-bbd5-b459f9ab5896",
      "resource": {
        "resourceType": "Condition",
        "id": "4a0da6e1-3cfa-4163-bbd5-b459f9ab5896",
        "meta": {
          "profile": [
            "http://hl7.org/fhir/uv/ips/StructureDefinition/Condition-uv-ips"
          ]
        },
        "category": [
          {
            "coding": [
              {
                "code": "problem-list-item",
                "system": "http://terminology.hl7.org/CodeSystem/condition-category",
                "display": "Problem List Item"
              }
            ]
          }
        ],
        "code": {
          "coding": [
            {
              "code": "59621000",
              "system": "http://snomed.info/sct",
              "display": "Essential hypertension (disorder)"
            }
          ],
          "text": "Essential hypertension"
        },
        "text": {
          "status": "generated",
          "div": "<div xmlns=\"http://www.w3.org/1999/xhtml\"><table class=\"hl7__ips\"><tr><td>Essential hypertension</td><td><span class=\"nb\">05-Aug-1982</span></td><td>active</td></tr></table></div>"
        },
        "onsetDateTime": "1982-08-05",
        "subject": {
          "reference": "urn:uuid:",
          "display": "Marthe Gallet"
        },
        "asserter": {
          "reference": "urn:uuid:",
          "display": "CHU d&#039;Angers"
        }
      }
    },
    {
      "fullUrl": "urn:uuid:acaf03e7-252a-43e6-a36d-c349672dfa58",
      "resource": {
        "resourceType": "Condition",
        "id": "acaf03e7-252a-43e6-a36d-c349672dfa58",
        "meta": {
          "profile": [
            "http://hl7.org/fhir/uv/ips/StructureDefinition/Condition-uv-ips"
          ]
        },
        "category": [
          {
            "coding": [
              {
                "code": "problem-list-item",
                "system": "http://terminology.hl7.org/CodeSystem/condition-category",
                "display": "Problem List Item"
              }
            ]
          }
        ],
        "code": {
          "coding": [
            {
              "code": "10509002",
              "system": "http://snomed.info/sct",
              "display": "Acute bronchitis (disorder)"
            }
          ],
          "text": "Acute bronchitis"
        },
        "text": {
          "status": "generated",
          "div": "<div xmlns=\"http://www.w3.org/1999/xhtml\"><table class=\"hl7__ips\"><tr><td><span class=\"grayedout\">Acute bronchitis</span></td><td><span class=\"nb\">24-Nov-2024 - 14-Dec-2024</span></td><td><span class=\"grayedout\">inactive</span></td></tr></table></div>"
        },
        "onsetDateTime": "2024-11-24",
        "abatementDateTime": "2024-12-14",
        "subject": {
          "reference": "urn:uuid:",
          "display": "Marthe Gallet"
        },
        "asserter": {
          "reference": "urn:uuid:",
          "display": "CHU d&#039;Angers"
        }
      }
    },
    {
      "fullUrl": "urn:uuid:445b1c36-f22d-4490-b174-e757f83ef9b4",
      "resource": {
        "resourceType": "Condition",
        "id": "445b1c36-f22d-4490-b174-e757f83ef9b4",
        "meta": {
          "profile": [
            "http://hl7.org/fhir/uv/ips/StructureDefinition/Condition-uv-ips"
          ]
        },
        "category": [
          {
            "coding": [
              {
                "code": "problem-list-item",
                "system": "http://terminology.hl7.org/CodeSystem/condition-category",
                "display": "Problem List Item"
              }
            ]
          }
        ],
        "code": {
          "coding": [
            {
              "code": "10509002",
              "system": "http://snomed.info/sct",
              "display": "Acute bronchitis (disorder)"
            }
          ],
          "text": "Acute bronchitis"
        },
        "text": {
          "status": "generated",
          "div": "<div xmlns=\"http://www.w3.org/1999/xhtml\"><table class=\"hl7__ips\"><tr><td><span class=\"grayedout\">Acute bronchitis</span></td><td><span class=\"nb\">11-Dec-2019 - 19-Dec-2019</span></td><td><span class=\"grayedout\">inactive</span></td></tr></table></div>"
        },
        "onsetDateTime": "2019-12-11",
        "abatementDateTime": "2019-12-19",
        "subject": {
          "reference": "urn:uuid:",
          "display": "Marthe Gallet"
        },
        "asserter": {
          "reference": "urn:uuid:",
          "display": "CHU d&#039;Angers"
        }
      }
    },
    {
      "fullUrl": "urn:uuid:aa7aff37-fa0e-4dac-b653-22cccfe4798a",
      "resource": {
        "resourceType": "Condition",
        "id": "aa7aff37-fa0e-4dac-b653-22cccfe4798a",
        "meta": {
          "profile": [
            "http://hl7.org/fhir/uv/ips/StructureDefinition/Condition-uv-ips"
          ]
        },
        "category": [
          {
            "coding": [
              {
                "code": "problem-list-item",
                "system": "http://terminology.hl7.org/CodeSystem/condition-category",
                "display": "Problem List Item"
              }
            ]
          }
        ],
        "code": {
          "coding": [
            {
              "code": "312608009",
              "system": "http://snomed.info/sct",
              "display": "Laceration - injury (disorder)"
            }
          ],
          "text": "Laceration - injury"
        },
        "text": {
          "status": "generated",
          "div": "<div xmlns=\"http://www.w3.org/1999/xhtml\"><table class=\"hl7__ips\"><tr><td><span class=\"grayedout\">Laceration - injury</span></td><td><span class=\"nb\">25-Apr-2019 - 12-May-2019</span></td><td><span class=\"grayedout\">inactive</span></td></tr></table></div>"
        },
        "onsetDateTime": "2019-04-25",
        "abatementDateTime": "2019-05-12",
        "subject": {
          "reference": "urn:uuid:",
          "display": "Marthe Gallet"
        },
        "asserter": {
          "reference": "urn:uuid:",
          "display": "CHU d&#039;Angers"
        }
      }
    },
    {
      "fullUrl": "urn:uuid:610e82c2-da42-4547-9f9d-1e9219dadc4c",
      "resource": {
        "resourceType": "Condition",
        "id": "610e82c2-da42-4547-9f9d-1e9219dadc4c",
        "meta": {
          "profile": [
            "http://hl7.org/fhir/uv/ips/StructureDefinition/Condition-uv-ips"
          ]
        },
        "category": [
          {
            "coding": [
              {
                "code": "problem-list-item",
                "system": "http://terminology.hl7.org/CodeSystem/condition-category",
                "display": "Problem List Item"
              }
            ]
          }
        ],
        "code": {
          "coding": [
            {
              "code": "370247008",
              "system": "http://snomed.info/sct",
              "display": "Facial laceration (disorder)"
            }
          ],
          "text": "Facial laceration"
        },
        "text": {
          "status": "generated",
          "div": "<div xmlns=\"http://www.w3.org/1999/xhtml\"><table class=\"hl7__ips\"><tr><td><span class=\"grayedout\">Facial laceration</span></td><td><span class=\"nb\">25-Apr-2019 - 12-May-2019</span></td><td><span class=\"grayedout\">inactive</span></td></tr></table></div>"
        },
        "onsetDateTime": "2019-04-25",
        "abatementDateTime": "2019-05-12",
        "subject": {
          "reference": "urn:uuid:",
          "display": "Marthe Gallet"
        },
        "asserter": {
          "reference": "urn:uuid:",
          "display": "CHU d&#039;Angers"
        }
      }
    },
    {
      "fullUrl": "urn:uuid:81cdafea-af72-4a83-ae9d-ddc139c7a351",
      "resource": {
        "resourceType": "Medication",
        "id": "81cdafea-af72-4a83-ae9d-ddc139c7a351",
        "meta": {
          "profile": [
            "http://hl7.eu/fhir/eps/StructureDefinition/Medication-eu-eps"
          ]
        },
        "code": {
          "coding": [
            {
              "code": "1153431000",
              "system": "http://snomed.info/sct",
              "display": "Amlodipine (as amlodipine besylate) 2.5 mg oral tablet"
            }
          ],
          "text": "Amlodipine (as amlodipine besylate) 2.5 mg oral tablet"
        },
        "text": {
          "status": "generated",
          "div": "<div xmlns=\"http://www.w3.org/1999/xhtml\">Amlodipine (as amlodipine besylate) 2.5 mg oral tablet</div>"
        }
      }
    },
    {
      "fullUrl": "urn:uuid:55dd228c-1d0c-487b-ac02-33307f79590b",
      "resource": {
        "resourceType": "MedicationStatement",
        "id": "55dd228c-1d0c-487b-ac02-33307f79590b",
        "meta": {
          "profile": [
            "http://hl7.eu/fhir/eps/StructureDefinition/MedicationStatement-eu-eps"
          ]
        },
        "effectivePeriod": {
          "start": "2025-07-10"
        },
        "dosage": [
          {
            "doseAndRate": [
              {
                "doseQuantity": {
                  "value": 1,
                  "unit": "{tbl}",
                  "system": "$ucum",
                  "code": "{tbl}"
                }
              }
            ],
            "timing": {
              "repeat": {
                "frequency": 1,
                "period": 1,
                "periodUnit": "d"
              }
            },
            "text": "1 tablet (2.5 mg) by mouth once daily",
            "asNeededBoolean": false
          }
        ],
        "reasonCode": [
          {
            "coding": [
              {
                "code": "59621000",
                "system": "http://snomed.info/sct",
                "display": "Essential hypertension (disorder)"
              }
            ]
          }
        ],
        "text": {
          "status": "generated",
          "div": "<div xmlns=\"http://www.w3.org/1999/xhtml\"><table class=\"hl7__ips first25\"><tr><th>Medication</th><th>Since</th><th>Form</th><th>Dosage</th><th>Reason</th></tr><tr><td>Amlodipine (as amlodipine besylate) 2.5 mg oral tablet</td><td><span class=\"nb\">2025-07-10</span></td><td>-</td><td>1 tablet (2.5 mg) by mouth once daily</td><td>Essential hypertension (disorder)</td></tr></table></div>"
        },
        "status": "active",
        "medicationReference": {
          "reference": "urn:uuid:81cdafea-af72-4a83-ae9d-ddc139c7a351",
          "display": "Amlodipine (as amlodipine besylate) 2.5 mg oral tablet"
        },
        "subject": {
          "reference": "urn:uuid:7b7f01f7-be68-4417-831d-aa53d674b363",
          "display": "Marthe Gallet"
        }
      }
    },
    {
      "fullUrl": "urn:uuid:02027286-16a3-46eb-84a7-9130b58ba469",
      "resource": {
        "resourceType": "Medication",
        "id": "02027286-16a3-46eb-84a7-9130b58ba469",
        "meta": {
          "profile": [
            "http://hl7.eu/fhir/eps/StructureDefinition/Medication-eu-eps"
          ]
        },
        "code": {
          "coding": [
            {
              "code": "318859000",
              "system": "http://snomed.info/sct",
              "display": "Lisinopril 10 mg oral tablet"
            }
          ],
          "text": "Lisinopril 10 mg oral tablet"
        },
        "text": {
          "status": "generated",
          "div": "<div xmlns=\"http://www.w3.org/1999/xhtml\">Lisinopril 10 mg oral tablet</div>"
        }
      }
    },
    {
      "fullUrl": "urn:uuid:2794a1e7-281a-45a6-a170-421c1a293569",
      "resource": {
        "resourceType": "MedicationStatement",
        "id": "2794a1e7-281a-45a6-a170-421c1a293569",
        "meta": {
          "profile": [
            "http://hl7.eu/fhir/eps/StructureDefinition/MedicationStatement-eu-eps"
          ]
        },
        "effectivePeriod": {
          "start": "2025-07-10"
        },
        "dosage": [
          {
            "doseAndRate": [
              {
                "doseQuantity": {
                  "value": 1,
                  "unit": "{tbl}",
                  "code": "{tbl}"
                }
              }
            ],
            "timing": {
              "repeat": {
                "frequency": 1,
                "period": 1,
                "periodUnit": "d"
              }
            },
            "text": "1 tablet (10 mg) by mouth once daily",
            "asNeededBoolean": false
          }
        ],
        "reasonCode": [
          {
            "coding": [
              {
                "code": "59621000",
                "system": "http://snomed.info/sct",
                "display": "Essential hypertension (disorder)"
              }
            ]
          }
        ],
        "text": {
          "status": "generated",
          "div": "<div xmlns=\"http://www.w3.org/1999/xhtml\"><table class=\"hl7__ips first25\"><tr><th>Medication</th><th>Since</th><th>Form</th><th>Dosage</th><th>Reason</th></tr><tr><td>Lisinopril 10 mg oral tablet</td><td><span class=\"nb\">2025-07-10</span></td><td>-</td><td>1 tablet (10 mg) by mouth once daily</td><td>Essential hypertension (disorder)</td></tr></table></div>"
        },
        "status": "active",
        "medicationReference": {
          "reference": "urn:uuid:02027286-16a3-46eb-84a7-9130b58ba469",
          "display": "Lisinopril 10 mg oral tablet"
        },
        "subject": {
          "reference": "urn:uuid:7b7f01f7-be68-4417-831d-aa53d674b363",
          "display": "Marthe Gallet"
        }
      }
    },
    {
      "fullUrl": "urn:uuid:b22cee2f-6749-4a1c-a22d-378eb4db7121",
      "resource": {
        "resourceType": "Medication",
        "id": "b22cee2f-6749-4a1c-a22d-378eb4db7121",
        "meta": {
          "profile": [
            "http://hl7.eu/fhir/eps/StructureDefinition/Medication-eu-eps"
          ]
        },
        "code": {
          "coding": [
            {
              "code": "319996000",
              "system": "http://snomed.info/sct",
              "display": "Simvastatin 10 mg oral tablet"
            }
          ],
          "text": "Simvastatin 10 mg oral tablet"
        },
        "text": {
          "status": "generated",
          "div": "<div xmlns=\"http://www.w3.org/1999/xhtml\">Simvastatin 10 mg oral tablet</div>"
        }
      }
    },
    {
      "fullUrl": "urn:uuid:a1787277-c3ea-4a0d-bbbc-364a08a62ece",
      "resource": {
        "resourceType": "MedicationStatement",
        "id": "a1787277-c3ea-4a0d-bbbc-364a08a62ece",
        "meta": {
          "profile": [
            "http://hl7.eu/fhir/eps/StructureDefinition/MedicationStatement-eu-eps"
          ]
        },
        "effectivePeriod": {
          "start": "2025-04-04"
        },
        "dosage": [
          {
            "doseAndRate": [
              {
                "doseQuantity": {
                  "value": 1,
                  "unit": "{tbl}",
                  "code": "{tbl}"
                }
              }
            ],
            "timing": {
              "repeat": {
                "frequency": 1,
                "period": 1,
                "periodUnit": "d"
              }
            },
            "text": "1 tablet (10 mg) by mouth once daily",
            "asNeededBoolean": false
          }
        ],
        "reasonCode": [
          {
            "coding": [
              {
                "code": "55822004",
                "system": "http://snomed.info/sct",
                "display": "Hyperlipidemia"
              }
            ]
          }
        ],
        "text": {
          "status": "generated",
          "div": "<div xmlns=\"http://www.w3.org/1999/xhtml\"><table class=\"hl7__ips first25\"><tr><th>Medication</th><th>Since</th><th>Form</th><th>Dosage</th><th>Reason</th></tr><tr><td>Simvastatin 10 mg oral tablet</td><td><span class=\"nb\">2025-04-04</span></td><td>-</td><td>1 tablet (10 mg) by mouth once daily</td><td>Hyperlipidemia</td></tr></table></div>"
        },
        "status": "active",
        "medicationReference": {
          "reference": "urn:uuid:b22cee2f-6749-4a1c-a22d-378eb4db7121",
          "display": "Simvastatin 10 mg oral tablet"
        },
        "subject": {
          "reference": "urn:uuid:7b7f01f7-be68-4417-831d-aa53d674b363",
          "display": "Marthe Gallet"
        }
      }
    },
    {
      "fullUrl": "urn:uuid:5624a5da-63cf-460d-b6ef-0c33d783d235",
      "resource": {
        "resourceType": "Immunization",
        "id": "5624a5da-63cf-460d-b6ef-0c33d783d235",
        "meta": {
          "profile": [
            "http://hl7.org/fhir/uv/ips/StructureDefinition/Immunization-uv-ips"
          ]
        },
        "vaccineCode": {
          "coding": [
            {
              "code": "1181000221105",
              "system": "http://snomed.info/sct",
              "display": "Vaccine product containing Influenza virus antigen"
            },
            {
              "code": "J07BB02",
              "system": "http://www.whocc.no/atc",
              "display": "Influenza, inactivated, split virus"
            }
          ],
          "text": "Influenza virus antigen only vaccine product"
        },
        "site": {
          "coding": [
            {
              "code": "244979005",
              "system": "http://snomed.info/sct",
              "display": "Entire muscle of upper arm"
            }
          ],
          "text": "Entire muscle of upper arm"
        },
        "route": {
          "coding": [
            {
              "code": "78421000",
              "system": "http://snomed.info/sct",
              "display": "Intramuscular route"
            }
          ],
          "text": "Intramuscular route"
        },
        "text": {
          "status": "generated",
          "div": "<div xmlns=\"http://www.w3.org/1999/xhtml\"><table class=\"hl7__ips\"><tr><td>Influenza virus antigen only vaccine product</td><td><span class=\"nb\">05-Dec-2024</span></td></tr></table></div>"
        },
        "status": "completed",
        "patient": {
          "reference": "urn:uuid:7b7f01f7-be68-4417-831d-aa53d674b363",
          "display": "Marthe Gallet"
        },
        "occurrenceDateTime": "2024-12-05",
        "lotNumber": "QB-WM8vaPvgW",
        "expirationDate": "2025-11-08"
      }
    },
    {
      "fullUrl": "urn:uuid:bdaabbfe-0529-4293-8c56-8b1e55e5d8a5",
      "resource": {
        "resourceType": "Immunization",
        "id": "bdaabbfe-0529-4293-8c56-8b1e55e5d8a5",
        "meta": {
          "profile": [
            "http://hl7.org/fhir/uv/ips/StructureDefinition/Immunization-uv-ips"
          ]
        },
        "vaccineCode": {
          "coding": [
            {
              "code": "777725002",
              "system": "http://snomed.info/sct",
              "display": "Vaccine product containing only Clostridium tetani toxoid antigen adsorbed"
            },
            {
              "code": "J07AM51",
              "system": "http://www.whocc.no/atc",
              "display": "Diphtheria-tetanus vaccines, adult type"
            }
          ],
          "text": "Clostridium tetani toxoid antigen adsorbed only vaccine product"
        },
        "site": {
          "coding": [
            {
              "code": "244979005",
              "system": "http://snomed.info/sct",
              "display": "Entire muscle of upper arm"
            }
          ],
          "text": "Entire muscle of upper arm"
        },
        "route": {
          "coding": [
            {
              "code": "78421000",
              "system": "http://snomed.info/sct",
              "display": "Intramuscular route"
            }
          ],
          "text": "Intramuscular route"
        },
        "text": {
          "status": "generated",
          "div": "<div xmlns=\"http://www.w3.org/1999/xhtml\"><table class=\"hl7__ips\"><tr><td>Clostridium tetani toxoid antigen adsorbed only vaccine product</td><td><span class=\"nb\">19-Dec-2019</span></td></tr></table></div>"
        },
        "status": "completed",
        "patient": {
          "reference": "urn:uuid:7b7f01f7-be68-4417-831d-aa53d674b363",
          "display": "Marthe Gallet"
        },
        "occurrenceDateTime": "2019-12-19",
        "lotNumber": "CA-TnS2DHTip",
        "expirationDate": "2020-10-17"
      }
    },
    {
      "fullUrl": "urn:uuid:bfde25c0-9a82-4c20-9aa3-85aebac9c965",
      "resource": {
        "resourceType": "Procedure",
        "id": "bfde25c0-9a82-4c20-9aa3-85aebac9c965",
        "meta": {
          "profile": [
            "http://hl7.org/fhir/uv/ips/StructureDefinition/Procedure-uv-ips"
          ]
        },
        "code": {
          "coding": [
            {
              "code": "171207006",
              "system": "http://snomed.info/sct",
              "display": "Depression screening (procedure)"
            }
          ],
          "text": "Depression screening"
        },
        "text": {
          "status": "generated",
          "div": "<div xmlns=\"http://www.w3.org/1999/xhtml\"><table class=\"hl7__ips\"><tr><td>Depression screening</td><td><span class=\"nb\">19-Dec-2024</span></td><td>-</td></tr></table></div>"
        },
        "status": "completed",
        "performedDateTime": "2024-12-19",
        "subject": {
          "reference": "urn:uuid:",
          "display": "Marthe Gallet"
        }
      }
    },
    {
      "fullUrl": "urn:uuid:e599d9a8-7292-4002-9559-da84b1544904",
      "resource": {
        "resourceType": "Procedure",
        "id": "e599d9a8-7292-4002-9559-da84b1544904",
        "meta": {
          "profile": [
            "http://hl7.org/fhir/uv/ips/StructureDefinition/Procedure-uv-ips"
          ]
        },
        "code": {
          "coding": [
            {
              "code": "430193006",
              "system": "http://snomed.info/sct",
              "display": "Medication Reconciliation (procedure)"
            }
          ],
          "text": "Medication reconciliation"
        },
        "text": {
          "status": "generated",
          "div": "<div xmlns=\"http://www.w3.org/1999/xhtml\"><table class=\"hl7__ips\"><tr><td>Medication reconciliation</td><td><span class=\"nb\">19-Dec-2024</span></td><td>-</td></tr></table></div>"
        },
        "status": "completed",
        "performedDateTime": "2024-12-19",
        "subject": {
          "reference": "urn:uuid:",
          "display": "Marthe Gallet"
        }
      }
    },
    {
      "fullUrl": "urn:uuid:d5c50553-4875-45ac-b444-0c46ccdf9460",
      "resource": {
        "resourceType": "Procedure",
        "id": "d5c50553-4875-45ac-b444-0c46ccdf9460",
        "meta": {
          "profile": [
            "http://hl7.org/fhir/uv/ips/StructureDefinition/Procedure-uv-ips"
          ]
        },
        "code": {
          "coding": [
            {
              "code": "710824005",
              "system": "http://snomed.info/sct",
              "display": "Assessment of health and social care needs (procedure)"
            }
          ],
          "text": "Assessment of health and social care needs"
        },
        "text": {
          "status": "generated",
          "div": "<div xmlns=\"http://www.w3.org/1999/xhtml\"><table class=\"hl7__ips\"><tr><td>Assessment of health and social care needs</td><td><span class=\"nb\">19-Dec-2024</span></td><td>-</td></tr></table></div>"
        },
        "status": "completed",
        "performedDateTime": "2024-12-19",
        "subject": {
          "reference": "urn:uuid:",
          "display": "Marthe Gallet"
        }
      }
    },
    {
      "fullUrl": "urn:uuid:c299ed5d-0030-42a3-a7ad-6fffeb140751",
      "resource": {
        "resourceType": "Procedure",
        "id": "c299ed5d-0030-42a3-a7ad-6fffeb140751",
        "meta": {
          "profile": [
            "http://hl7.org/fhir/uv/ips/StructureDefinition/Procedure-uv-ips"
          ]
        },
        "code": {
          "coding": [
            {
              "code": "454711000124102",
              "system": "http://snomed.info/sct",
              "display": "Depression screening using Patient Health Questionnaire Two-Item score (procedure)"
            }
          ]
        },
        "text": {
          "status": "generated",
          "div": "<div xmlns=\"http://www.w3.org/1999/xhtml\"><table class=\"hl7__ips\"><tr><td>Depression screening using Patient Health Questionnaire Two-Item score (procedure)</td><td><span class=\"nb\">19-Dec-2024</span></td><td>-</td></tr></table></div>"
        },
        "status": "completed",
        "performedDateTime": "2024-12-19",
        "subject": {
          "reference": "urn:uuid:",
          "display": "Marthe Gallet"
        }
      }
    },
    {
      "fullUrl": "urn:uuid:148d4edc-966f-4184-83e5-4fd09a8a8c93",
      "resource": {
        "resourceType": "Procedure",
        "id": "148d4edc-966f-4184-83e5-4fd09a8a8c93",
        "meta": {
          "profile": [
            "http://hl7.org/fhir/uv/ips/StructureDefinition/Procedure-uv-ips"
          ]
        },
        "code": {
          "coding": [
            {
              "code": "762993000",
              "system": "http://snomed.info/sct",
              "display": "Assessment using Morse Fall Scale (procedure)"
            }
          ],
          "text": "Assessment using Morse Fall Scale"
        },
        "text": {
          "status": "generated",
          "div": "<div xmlns=\"http://www.w3.org/1999/xhtml\"><table class=\"hl7__ips\"><tr><td>Assessment using Morse Fall Scale</td><td><span class=\"nb\">05-Dec-2024</span></td><td>-</td></tr></table></div>"
        },
        "status": "completed",
        "performedDateTime": "2024-12-05",
        "subject": {
          "reference": "urn:uuid:",
          "display": "Marthe Gallet"
        }
      }
    },
    {
      "fullUrl": "urn:uuid:f8ed0cdd-6a4b-4e97-ad22-0c900a4e4ae9",
      "resource": {
        "resourceType": "Procedure",
        "id": "f8ed0cdd-6a4b-4e97-ad22-0c900a4e4ae9",
        "meta": {
          "profile": [
            "http://hl7.org/fhir/uv/ips/StructureDefinition/Procedure-uv-ips"
          ]
        },
        "code": {
          "coding": [
            {
              "code": "763302001",
              "system": "http://snomed.info/sct",
              "display": "Assessment using Alcohol Use Disorders Identification Test - Consumption (procedure)"
            }
          ],
          "text": "Assessment using AUDIT-C (Alcohol Use Disorders Identification Test - Consumption)"
        },
        "text": {
          "status": "generated",
          "div": "<div xmlns=\"http://www.w3.org/1999/xhtml\"><table class=\"hl7__ips\"><tr><td>Assessment using AUDIT-C (Alcohol Use Disorders Identification Test - Consumption)</td><td><span class=\"nb\">05-Dec-2024</span></td><td>-</td></tr></table></div>"
        },
        "status": "completed",
        "performedDateTime": "2024-12-05",
        "subject": {
          "reference": "urn:uuid:",
          "display": "Marthe Gallet"
        }
      }
    },
    {
      "fullUrl": "urn:uuid:4270be4b-7a65-468b-8b4d-c262c1fd0daf",
      "resource": {
        "resourceType": "Procedure",
        "id": "4270be4b-7a65-468b-8b4d-c262c1fd0daf",
        "meta": {
          "profile": [
            "http://hl7.org/fhir/uv/ips/StructureDefinition/Procedure-uv-ips"
          ]
        },
        "code": {
          "coding": [
            {
              "code": "428211000124100",
              "system": "http://snomed.info/sct",
              "display": "Assessment of substance use (procedure)"
            }
          ],
          "text": "Assessment of substance use"
        },
        "text": {
          "status": "generated",
          "div": "<div xmlns=\"http://www.w3.org/1999/xhtml\"><table class=\"hl7__ips\"><tr><td>Assessment of substance use</td><td><span class=\"nb\">05-Dec-2024</span></td><td>-</td></tr></table></div>"
        },
        "status": "completed",
        "performedDateTime": "2024-12-05",
        "subject": {
          "reference": "urn:uuid:",
          "display": "Marthe Gallet"
        }
      }
    },
    {
      "fullUrl": "urn:uuid:7edee3fb-5c3f-4181-8f33-26385c4ec399",
      "resource": {
        "resourceType": "Procedure",
        "id": "7edee3fb-5c3f-4181-8f33-26385c4ec399",
        "meta": {
          "profile": [
            "http://hl7.org/fhir/uv/ips/StructureDefinition/Procedure-uv-ips"
          ]
        },
        "code": {
          "coding": [
            {
              "code": "288086009",
              "system": "http://snomed.info/sct",
              "display": "Suture open wound"
            }
          ],
          "text": "Suture open wound"
        },
        "reasonCode": [
          {
            "coding": [
              {
                "code": "370247008",
                "system": "http://snomed.info/sct",
                "display": "Facial laceration"
              }
            ]
          }
        ],
        "text": {
          "status": "generated",
          "div": "<div xmlns=\"http://www.w3.org/1999/xhtml\"><table class=\"hl7__ips\"><tr><td>Suture open wound</td><td><span class=\"nb\">25-Apr-2019</span></td><td>Facial laceration</td></tr></table></div>"
        },
        "status": "completed",
        "performedDateTime": "2019-04-25",
        "subject": {
          "reference": "urn:uuid:",
          "display": "Marthe Gallet"
        }
      }
    },
    {
      "fullUrl": "urn:uuid:6d1e72dc-8c91-4ce6-a367-9333addb7acd",
      "resource": {
        "resourceType": "Procedure",
        "id": "6d1e72dc-8c91-4ce6-a367-9333addb7acd",
        "meta": {
          "profile": [
            "http://hl7.org/fhir/uv/ips/StructureDefinition/Procedure-uv-ips"
          ]
        },
        "code": {
          "coding": [
            {
              "code": "417511005",
              "system": "http://snomed.info/sct",
              "display": "Referral to home health care service (procedure)"
            }
          ],
          "text": "Referral to home health care service"
        },
        "text": {
          "status": "generated",
          "div": "<div xmlns=\"http://www.w3.org/1999/xhtml\"><table class=\"hl7__ips\"><tr><td>Referral to home health care service</td><td><span class=\"nb\">10-Mar-2016</span></td><td>-</td></tr></table></div>"
        },
        "status": "completed",
        "performedDateTime": "2016-03-10",
        "subject": {
          "reference": "urn:uuid:",
          "display": "Marthe Gallet"
        }
      }
    },
    {
      "fullUrl": "urn:uuid:d8b1a703-21c6-4387-9ec9-e71528e5da15",
      "resource": {
        "resourceType": "AllergyIntolerance",
        "id": "d8b1a703-21c6-4387-9ec9-e71528e5da15",
        "meta": {
          "profile": [
            "http://hl7.eu/fhir/eps/StructureDefinition/allergyIntolerance-eu-eps"
          ]
        },
        "code": {
          "text": ""
        },
        "clinicalStatus": {
          "coding": [
            {
              "code": "active",
              "system": "http://terminology.hl7.org/CodeSystem/allergyintolerance-clinical"
            }
          ]
        },
        "text": {
          "status": "generated",
          "div": "<div xmlns=\"http://www.w3.org/1999/xhtml\"><table class=\"hl7__ips\"><tr><th>Allergy/Intolerance</th><th>Onset Date</th><th>Status</th><th>Type</th><th>Reaction</th></tr><tr><td></td><td>?</td><td>active</td><td>?</td><td></td></tr></table></div>"
        },
        "verificationStatus": {
          "coding": [
            {
              "code": "confirmed",
              "system": "http://terminology.hl7.org/CodeSystem/allergyintolerance-verification"
            }
          ]
        },
        "patient": {
          "reference": "urn:uuid:7b7f01f7-be68-4417-831d-aa53d674b363",
          "display": "Marthe Gallet"
        },
        "_onsetDateTime": {
          "extension": [
            {
              "url": "http://hl7.org/fhir/StructureDefinition/data-absent-reason",
              "valueCode": "unknown"
            }
          ]
        }
      }
    },
    {
      "fullUrl": "urn:uuid:d78b5ed9-cb5f-4854-86ce-acf65dc0a3dc",
      "resource": {
        "resourceType": "CarePlan",
        "id": "d78b5ed9-cb5f-4854-86ce-acf65dc0a3dc",
        "category": [
          {
            "coding": [
              {
                "code": "assess-plan",
                "system": "http://terminology.hl7.org/CodeSystem/care-plan-category",
                "display": "Assessment and Plan"
              }
            ]
          }
        ],
        "activity": [
          {
            "detail": {
              "code": {
                "coding": [
                  {
                    "code": "736285004",
                    "system": "http://snomed.info/sct",
                    "display": "Hyperlipidemia clinical management plan (record artifact)"
                  }
                ]
              },
              "reasonCode": [
                {
                  "coding": [
                    {
                      "code": "55822004",
                      "system": "http://snomed.info/sct",
                      "display": "Hyperlipidemia"
                    }
                  ]
                }
              ],
              "status": "unknown",
              "description": "Hyperlipidemia clinical management plan",
              "kind": "Appointment"
            }
          }
        ],
        "period": {
          "start": "1990-10-11"
        },
        "goal": [
          {
            "reference": "urn:uuid:1f4add90-fcfe-46af-b5d8-fe6d02a2f374"
          },
          {
            "reference": "urn:uuid:e9af3858-f654-4ad1-b0bc-5e399f02b90c"
          },
          {
            "reference": "urn:uuid:b1ee28ff-e291-4994-a407-24149e79af06"
          },
          {
            "reference": "urn:uuid:2652cf95-0061-4491-a4f4-dd24a4376a2d"
          }
        ],
        "text": {
          "status": "generated",
          "div": "<div xmlns=\"http://www.w3.org/1999/xhtml\"><table class=\"hl7__ips first25\"><tr><th>Active Planned Care / Goals</th><th>Start Date</th><th>Reason</th></tr><tr><td>Hyperlipidemia clinical management plan</td><td><span class=\"nb\">11-Oct-1990</span></td><td>Hyperlipidemia</td></tr><tr><td><ul><li>Achieve and maintain LDL cholesterol below 70 mg/dL to reduce cardiovascular risk.</li><li>Keep total cholesterol below 200 mg/dL.</li><li>Keep triglycerides below 150 mg/dL.</li><li>Maintain HDL cholesterol above 50 mg/dL.</li></ul></td><td></td><td></td></tr></table></div>"
        },
        "status": "active",
        "intent": "plan",
        "subject": {
          "reference": "urn:uuid:7b7f01f7-be68-4417-831d-aa53d674b363",
          "display": "Marthe Gallet"
        }
      }
    },
    {
      "fullUrl": "urn:uuid:a163c73a-4f59-4c6b-a51f-107e446d5d32",
      "resource": {
        "resourceType": "CarePlan",
        "id": "a163c73a-4f59-4c6b-a51f-107e446d5d32",
        "category": [
          {
            "coding": [
              {
                "code": "assess-plan",
                "system": "http://terminology.hl7.org/CodeSystem/care-plan-category",
                "display": "Assessment and Plan"
              }
            ]
          }
        ],
        "activity": [
          {
            "detail": {
              "code": {
                "coding": [
                  {
                    "code": "443402002",
                    "system": "http://snomed.info/sct",
                    "display": "Lifestyle education regarding hypertension (procedure)"
                  }
                ]
              },
              "reasonCode": [
                {
                  "coding": [
                    {
                      "code": "59621000",
                      "system": "http://snomed.info/sct",
                      "display": "Essential hypertension (disorder)"
                    }
                  ]
                }
              ],
              "status": "unknown",
              "description": "Lifestyle education regarding hypertension",
              "kind": "Appointment"
            }
          }
        ],
        "period": {
          "start": "1982-08-05"
        },
        "goal": [
          {
            "reference": "urn:uuid:b55fed23-0e57-42eb-b11d-c2dfe21f266e"
          },
          {
            "reference": "urn:uuid:942b7c71-f9ca-4f43-8aab-12f6349e1d7c"
          }
        ],
        "text": {
          "status": "generated",
          "div": "<div xmlns=\"http://www.w3.org/1999/xhtml\"><table class=\"hl7__ips first25\"><tr><th>Active Planned Care / Goals</th><th>Start Date</th><th>Reason</th></tr><tr><td>Lifestyle education regarding hypertension</td><td><span class=\"nb\">05-Aug-1982</span></td><td>Essential hypertension (disorder)</td></tr><tr><td><ul><li>Maintain blood pressure below 130/80 mmHg to reduce risk of kidney and cardiovascular complications.</li><li>Patient will demonstrate understanding of lifestyle modifications for hypertension, including dietary sodium reduction, regular physical activity, and medication adherence.</li></ul></td><td></td><td></td></tr></table></div>"
        },
        "status": "active",
        "intent": "plan",
        "subject": {
          "reference": "urn:uuid:7b7f01f7-be68-4417-831d-aa53d674b363",
          "display": "Marthe Gallet"
        }
      }
    },
    {
      "fullUrl": "urn:uuid:65b6d4f1-7b67-4dca-9eb1-4e62986c8a5e",
      "resource": {
        "resourceType": "ImmunizationRecommendation",
        "id": "65b6d4f1-7b67-4dca-9eb1-4e62986c8a5e",
        "recommendation": [
          {
            "vaccineCode": [
              {
                "coding": [
                  {
                    "code": "1181000221105",
                    "system": "http://snomed.info/sct",
                    "display": "Vaccine product containing only Influenza virus antigen (medicinal product)"
                  }
                ]
              }
            ],
            "dateCriterion": [
              {
                "code": {
                  "coding": [
                    {
                      "code": "30980-7",
                      "system": "http://loinc.org",
                      "display": "Date vaccine due"
                    }
                  ]
                },
                "value": "2025-10-01"
              }
            ],
            "targetDisease": {
              "coding": [
                {
                  "code": "6142004",
                  "system": "http://snomed.info/sct",
                  "display": "Influenza (disorder)"
                }
              ]
            },
            "series": "Annual seasonal influenza vaccination",
            "forecastStatus": {
              "coding": [
                {
                  "code": "due",
                  "system": "http://terminology.hl7.org/CodeSystem/immunization-recommendation-status",
                  "display": "Due"
                }
              ]
            }
          }
        ],
        "text": {
          "status": "generated",
          "div": "<div xmlns=\"http://www.w3.org/1999/xhtml\"><table class=\"hl7__ips\"><tr><td>Vaccine product containing only Influenza virus antigen (medicinal product)</td><td><span class=\"nb\">01-Oct-2025</span></td><td>Annual seasonal influenza vaccination</td></tr></table></div>"
        },
        "date": "2025-10-22",
        "patient": {
          "reference": "urn:uuid:7b7f01f7-be68-4417-831d-aa53d674b363",
          "display": "Marthe Gallet"
        }
      }
    },
    {
      "fullUrl": "urn:uuid:e432a4e0-1697-4ec8-97ea-223006e053ef",
      "resource": {
        "resourceType": "Observation",
        "id": "e432a4e0-1697-4ec8-97ea-223006e053ef",
        "meta": {
          "profile": [
            "http://hl7.org/fhir/StructureDefinition/vitalsigns"
          ]
        },
        "category": [
          {
            "coding": [
              {
                "system": "http://terminology.hl7.org/CodeSystem/observation-category",
                "code": "vital-signs",
                "display": "Vital Signs"
              }
            ]
          }
        ],
        "valueQuantity": {
          "value": 154.6,
          "code": "cm",
          "unit": "cm"
        },
        "text": {
          "status": "generated",
          "div": "<div xmlns=\"http://www.w3.org/1999/xhtml\"><table class=\"hl7__ips\"><tr><th>Vital Sign</th><th>Date</th><th>Measurement</th></tr><tr><td>Body Height</td><td>10-Jul-2025</td><td>154.6 cm</td></tr></table></div>"
        },
        "status": "final",
        "code": {
          "coding": [
            {
              "code": "$8302-2",
              "system": "http://loinc.org",
              "display": "Body Height"
            }
          ]
        },
        "subject": {
          "reference": "urn:uuid:7b7f01f7-be68-4417-831d-aa53d674b363",
          "display": "Marthe Gallet"
        },
        "effectiveDateTime": "2025-07-10"
      }
    },
    {
      "fullUrl": "urn:uuid:c9ce231a-118b-4ff7-abb3-411a20999487",
      "resource": {
        "resourceType": "Observation",
        "id": "c9ce231a-118b-4ff7-abb3-411a20999487",
        "meta": {
          "profile": [
            "http://hl7.org/fhir/StructureDefinition/vitalsigns"
          ]
        },
        "category": [
          {
            "coding": [
              {
                "system": "http://terminology.hl7.org/CodeSystem/observation-category",
                "code": "vital-signs",
                "display": "Vital Signs"
              }
            ]
          }
        ],
        "valueQuantity": {
          "value": 2,
          "code": "{score}",
          "unit": "{score}"
        },
        "text": {
          "status": "generated",
          "div": "<div xmlns=\"http://www.w3.org/1999/xhtml\"><table class=\"hl7__ips\"><tr><th>Vital Sign</th><th>Date</th><th>Measurement</th></tr><tr><td>Pain severity - 0-10 verbal numeric rating [Score] - Reported</td><td>10-Jul-2025</td><td>2 {score}</td></tr></table></div>"
        },
        "status": "final",
        "code": {
          "coding": [
            {
              "code": "$72514-3",
              "system": "http://loinc.org",
              "display": "Pain severity - 0-10 verbal numeric rating [Score] - Reported"
            }
          ]
        },
        "subject": {
          "reference": "urn:uuid:7b7f01f7-be68-4417-831d-aa53d674b363",
          "display": "Marthe Gallet"
        },
        "effectiveDateTime": "2025-07-10"
      }
    },
    {
      "fullUrl": "urn:uuid:a0ef5cbc-3bce-4dab-bf94-fe07d4fc7660",
      "resource": {
        "resourceType": "Observation",
        "id": "a0ef5cbc-3bce-4dab-bf94-fe07d4fc7660",
        "meta": {
          "profile": [
            "http://hl7.org/fhir/StructureDefinition/vitalsigns"
          ]
        },
        "category": [
          {
            "coding": [
              {
                "system": "http://terminology.hl7.org/CodeSystem/observation-category",
                "code": "vital-signs",
                "display": "Vital Signs"
              }
            ]
          }
        ],
        "valueQuantity": {
          "value": 72.5,
          "code": "kg",
          "unit": "kg"
        },
        "text": {
          "status": "generated",
          "div": "<div xmlns=\"http://www.w3.org/1999/xhtml\"><table class=\"hl7__ips\"><tr><th>Vital Sign</th><th>Date</th><th>Measurement</th></tr><tr><td>Body Weight</td><td>10-Jul-2025</td><td>72.5 kg</td></tr></table></div>"
        },
        "status": "final",
        "code": {
          "coding": [
            {
              "code": "$29463-7",
              "system": "http://loinc.org",
              "display": "Body Weight"
            }
          ]
        },
        "subject": {
          "reference": "urn:uuid:7b7f01f7-be68-4417-831d-aa53d674b363",
          "display": "Marthe Gallet"
        },
        "effectiveDateTime": "2025-07-10"
      }
    },
    {
      "fullUrl": "urn:uuid:1c9d532f-9e7e-4cf4-ae1a-a5141f67bc78",
      "resource": {
        "resourceType": "Observation",
        "id": "1c9d532f-9e7e-4cf4-ae1a-a5141f67bc78",
        "meta": {
          "profile": [
            "http://hl7.org/fhir/StructureDefinition/vitalsigns"
          ]
        },
        "category": [
          {
            "coding": [
              {
                "system": "http://terminology.hl7.org/CodeSystem/observation-category",
                "code": "vital-signs",
                "display": "Vital Signs"
              }
            ]
          }
        ],
        "valueQuantity": {
          "value": 30.3,
          "code": "kg/m2",
          "unit": "kg/m2"
        },
        "text": {
          "status": "generated",
          "div": "<div xmlns=\"http://www.w3.org/1999/xhtml\"><table class=\"hl7__ips\"><tr><th>Vital Sign</th><th>Date</th><th>Measurement</th></tr><tr><td>Body mass index (BMI) [Ratio]</td><td>10-Jul-2025</td><td>30.3 kg/m2</td></tr></table></div>"
        },
        "status": "final",
        "code": {
          "coding": [
            {
              "code": "$39156-5",
              "system": "http://loinc.org",
              "display": "Body mass index (BMI) [Ratio]"
            }
          ]
        },
        "subject": {
          "reference": "urn:uuid:7b7f01f7-be68-4417-831d-aa53d674b363",
          "display": "Marthe Gallet"
        },
        "effectiveDateTime": "2025-07-10"
      }
    },
    {
      "fullUrl": "urn:uuid:3c9de288-4c38-46b6-8b14-f8d444a4d220",
      "resource": {
        "resourceType": "Observation",
        "id": "3c9de288-4c38-46b6-8b14-f8d444a4d220",
        "meta": {
          "profile": [
            "http://hl7.org/fhir/StructureDefinition/vitalsigns"
          ]
        },
        "category": [
          {
            "coding": [
              {
                "system": "http://terminology.hl7.org/CodeSystem/observation-category",
                "code": "vital-signs",
                "display": "Vital Signs"
              }
            ]
          }
        ],
        "valueQuantity": {
          "value": 70,
          "code": "mm[Hg]",
          "unit": "mm[Hg]"
        },
        "text": {
          "status": "generated",
          "div": "<div xmlns=\"http://www.w3.org/1999/xhtml\"><table class=\"hl7__ips\"><tr><th>Vital Sign</th><th>Date</th><th>Measurement</th></tr><tr><td>Diastolic Blood Pressure</td><td>10-Jul-2025</td><td>70 mm[Hg]</td></tr></table></div>"
        },
        "status": "final",
        "code": {
          "coding": [
            {
              "code": "$8462-4",
              "system": "http://loinc.org",
              "display": "Diastolic Blood Pressure"
            }
          ]
        },
        "subject": {
          "reference": "urn:uuid:7b7f01f7-be68-4417-831d-aa53d674b363",
          "display": "Marthe Gallet"
        },
        "effectiveDateTime": "2025-07-10"
      }
    },
    {
      "fullUrl": "urn:uuid:5a4ffcc4-0567-48e4-a0a1-02f947cc89d1",
      "resource": {
        "resourceType": "Observation",
        "id": "5a4ffcc4-0567-48e4-a0a1-02f947cc89d1",
        "meta": {
          "profile": [
            "http://hl7.org/fhir/StructureDefinition/vitalsigns"
          ]
        },
        "category": [
          {
            "coding": [
              {
                "system": "http://terminology.hl7.org/CodeSystem/observation-category",
                "code": "vital-signs",
                "display": "Vital Signs"
              }
            ]
          }
        ],
        "valueQuantity": {
          "value": 113,
          "code": "mm[Hg]",
          "unit": "mm[Hg]"
        },
        "text": {
          "status": "generated",
          "div": "<div xmlns=\"http://www.w3.org/1999/xhtml\"><table class=\"hl7__ips\"><tr><th>Vital Sign</th><th>Date</th><th>Measurement</th></tr><tr><td>Systolic Blood Pressure</td><td>10-Jul-2025</td><td>113 mm[Hg]</td></tr></table></div>"
        },
        "status": "final",
        "code": {
          "coding": [
            {
              "code": "$8480-6",
              "system": "http://loinc.org",
              "display": "Systolic Blood Pressure"
            }
          ]
        },
        "subject": {
          "reference": "urn:uuid:7b7f01f7-be68-4417-831d-aa53d674b363",
          "display": "Marthe Gallet"
        },
        "effectiveDateTime": "2025-07-10"
      }
    },
    {
      "fullUrl": "urn:uuid:f1ffe6ee-a4cf-4c8b-b1cd-ad195363a365",
      "resource": {
        "resourceType": "Observation",
        "id": "f1ffe6ee-a4cf-4c8b-b1cd-ad195363a365",
        "meta": {
          "profile": [
            "http://hl7.org/fhir/StructureDefinition/vitalsigns"
          ]
        },
        "category": [
          {
            "coding": [
              {
                "system": "http://terminology.hl7.org/CodeSystem/observation-category",
                "code": "vital-signs",
                "display": "Vital Signs"
              }
            ]
          }
        ],
        "valueQuantity": {
          "value": 77,
          "code": "/min",
          "unit": "/min"
        },
        "text": {
          "status": "generated",
          "div": "<div xmlns=\"http://www.w3.org/1999/xhtml\"><table class=\"hl7__ips\"><tr><th>Vital Sign</th><th>Date</th><th>Measurement</th></tr><tr><td>Heart rate</td><td>10-Jul-2025</td><td>77 /min</td></tr></table></div>"
        },
        "status": "final",
        "code": {
          "coding": [
            {
              "code": "$8867-4",
              "system": "http://loinc.org",
              "display": "Heart rate"
            }
          ]
        },
        "subject": {
          "reference": "urn:uuid:7b7f01f7-be68-4417-831d-aa53d674b363",
          "display": "Marthe Gallet"
        },
        "effectiveDateTime": "2025-07-10"
      }
    },
    {
      "fullUrl": "urn:uuid:b52e8121-76c0-47a9-871f-155794dc14cb",
      "resource": {
        "resourceType": "Observation",
        "id": "b52e8121-76c0-47a9-871f-155794dc14cb",
        "meta": {
          "profile": [
            "http://hl7.org/fhir/StructureDefinition/vitalsigns"
          ]
        },
        "category": [
          {
            "coding": [
              {
                "system": "http://terminology.hl7.org/CodeSystem/observation-category",
                "code": "vital-signs",
                "display": "Vital Signs"
              }
            ]
          }
        ],
        "valueQuantity": {
          "value": 13,
          "code": "/min",
          "unit": "/min"
        },
        "text": {
          "status": "generated",
          "div": "<div xmlns=\"http://www.w3.org/1999/xhtml\"><table class=\"hl7__ips\"><tr><th>Vital Sign</th><th>Date</th><th>Measurement</th></tr><tr><td>Respiratory rate</td><td>10-Jul-2025</td><td>13 /min</td></tr></table></div>"
        },
        "status": "final",
        "code": {
          "coding": [
            {
              "code": "$9279-1",
              "system": "http://loinc.org",
              "display": "Respiratory rate"
            }
          ]
        },
        "subject": {
          "reference": "urn:uuid:7b7f01f7-be68-4417-831d-aa53d674b363",
          "display": "Marthe Gallet"
        },
        "effectiveDateTime": "2025-07-10"
      }
    },
    {
      "fullUrl": "urn:uuid:c6b793e8-b793-42f9-a02c-2d9442bde8ab",
      "resource": {
        "resourceType": "Observation",
        "id": "c6b793e8-b793-42f9-a02c-2d9442bde8ab",
        "meta": {
          "profile": [
            "http://hl7.org/fhir/StructureDefinition/vitalsigns"
          ]
        },
        "category": [
          {
            "coding": [
              {
                "system": "http://terminology.hl7.org/CodeSystem/observation-category",
                "code": "vital-signs",
                "display": "Vital Signs"
              }
            ]
          }
        ],
        "valueQuantity": {
          "value": 154.6,
          "code": "cm",
          "unit": "cm"
        },
        "text": {
          "status": "generated",
          "div": "<div xmlns=\"http://www.w3.org/1999/xhtml\"><table class=\"hl7__ips\"><tr><th>Vital Sign</th><th>Date</th><th>Measurement</th></tr><tr><td>Body Height</td><td>03-Apr-2025</td><td>154.6 cm</td></tr></table></div>"
        },
        "status": "final",
        "code": {
          "coding": [
            {
              "code": "$8302-2",
              "system": "http://loinc.org",
              "display": "Body Height"
            }
          ]
        },
        "subject": {
          "reference": "urn:uuid:7b7f01f7-be68-4417-831d-aa53d674b363",
          "display": "Marthe Gallet"
        },
        "effectiveDateTime": "2025-04-03"
      }
    },
    {
      "fullUrl": "urn:uuid:b8972ec5-8435-4967-8533-6a680a7a389f",
      "resource": {
        "resourceType": "Observation",
        "id": "b8972ec5-8435-4967-8533-6a680a7a389f",
        "meta": {
          "profile": [
            "http://hl7.org/fhir/StructureDefinition/vitalsigns"
          ]
        },
        "category": [
          {
            "coding": [
              {
                "system": "http://terminology.hl7.org/CodeSystem/observation-category",
                "code": "vital-signs",
                "display": "Vital Signs"
              }
            ]
          }
        ],
        "valueQuantity": {
          "value": 4,
          "code": "{score}",
          "unit": "{score}"
        },
        "text": {
          "status": "generated",
          "div": "<div xmlns=\"http://www.w3.org/1999/xhtml\"><table class=\"hl7__ips\"><tr><th>Vital Sign</th><th>Date</th><th>Measurement</th></tr><tr><td>Pain severity - 0-10 verbal numeric rating [Score] - Reported</td><td>03-Apr-2025</td><td>4 {score}</td></tr></table></div>"
        },
        "status": "final",
        "code": {
          "coding": [
            {
              "code": "$72514-3",
              "system": "http://loinc.org",
              "display": "Pain severity - 0-10 verbal numeric rating [Score] - Reported"
            }
          ]
        },
        "subject": {
          "reference": "urn:uuid:7b7f01f7-be68-4417-831d-aa53d674b363",
          "display": "Marthe Gallet"
        },
        "effectiveDateTime": "2025-04-03"
      }
    },
    {
      "fullUrl": "urn:uuid:b46cdb9c-4e90-4ecc-8f25-9511d6461105",
      "resource": {
        "resourceType": "Observation",
        "id": "b46cdb9c-4e90-4ecc-8f25-9511d6461105",
        "meta": {
          "profile": [
            "http://hl7.org/fhir/StructureDefinition/vitalsigns"
          ]
        },
        "category": [
          {
            "coding": [
              {
                "system": "http://terminology.hl7.org/CodeSystem/observation-category",
                "code": "vital-signs",
                "display": "Vital Signs"
              }
            ]
          }
        ],
        "valueQuantity": {
          "value": 72.5,
          "code": "kg",
          "unit": "kg"
        },
        "text": {
          "status": "generated",
          "div": "<div xmlns=\"http://www.w3.org/1999/xhtml\"><table class=\"hl7__ips\"><tr><th>Vital Sign</th><th>Date</th><th>Measurement</th></tr><tr><td>Body Weight</td><td>03-Apr-2025</td><td>72.5 kg</td></tr></table></div>"
        },
        "status": "final",
        "code": {
          "coding": [
            {
              "code": "$29463-7",
              "system": "http://loinc.org",
              "display": "Body Weight"
            }
          ]
        },
        "subject": {
          "reference": "urn:uuid:7b7f01f7-be68-4417-831d-aa53d674b363",
          "display": "Marthe Gallet"
        },
        "effectiveDateTime": "2025-04-03"
      }
    },
    {
      "fullUrl": "urn:uuid:255072f3-dcb0-4305-a486-7f22b120ed01",
      "resource": {
        "resourceType": "Observation",
        "id": "255072f3-dcb0-4305-a486-7f22b120ed01",
        "meta": {
          "profile": [
            "http://hl7.org/fhir/StructureDefinition/vitalsigns"
          ]
        },
        "category": [
          {
            "coding": [
              {
                "system": "http://terminology.hl7.org/CodeSystem/observation-category",
                "code": "vital-signs",
                "display": "Vital Signs"
              }
            ]
          }
        ],
        "valueQuantity": {
          "value": 30.3,
          "code": "kg/m2",
          "unit": "kg/m2"
        },
        "text": {
          "status": "generated",
          "div": "<div xmlns=\"http://www.w3.org/1999/xhtml\"><table class=\"hl7__ips\"><tr><th>Vital Sign</th><th>Date</th><th>Measurement</th></tr><tr><td>Body mass index (BMI) [Ratio]</td><td>03-Apr-2025</td><td>30.3 kg/m2</td></tr></table></div>"
        },
        "status": "final",
        "code": {
          "coding": [
            {
              "code": "$39156-5",
              "system": "http://loinc.org",
              "display": "Body mass index (BMI) [Ratio]"
            }
          ]
        },
        "subject": {
          "reference": "urn:uuid:7b7f01f7-be68-4417-831d-aa53d674b363",
          "display": "Marthe Gallet"
        },
        "effectiveDateTime": "2025-04-03"
      }
    },
    {
      "fullUrl": "urn:uuid:ff22f270-8652-429e-bcf3-0846d80179a7",
      "resource": {
        "resourceType": "Observation",
        "id": "ff22f270-8652-429e-bcf3-0846d80179a7",
        "meta": {
          "profile": [
            "http://hl7.org/fhir/StructureDefinition/vitalsigns"
          ]
        },
        "category": [
          {
            "coding": [
              {
                "system": "http://terminology.hl7.org/CodeSystem/observation-category",
                "code": "vital-signs",
                "display": "Vital Signs"
              }
            ]
          }
        ],
        "valueQuantity": {
          "value": 68,
          "code": "mm[Hg]",
          "unit": "mm[Hg]"
        },
        "text": {
          "status": "generated",
          "div": "<div xmlns=\"http://www.w3.org/1999/xhtml\"><table class=\"hl7__ips\"><tr><th>Vital Sign</th><th>Date</th><th>Measurement</th></tr><tr><td>Diastolic Blood Pressure</td><td>03-Apr-2025</td><td>68 mm[Hg]</td></tr></table></div>"
        },
        "status": "final",
        "code": {
          "coding": [
            {
              "code": "$8462-4",
              "system": "http://loinc.org",
              "display": "Diastolic Blood Pressure"
            }
          ]
        },
        "subject": {
          "reference": "urn:uuid:7b7f01f7-be68-4417-831d-aa53d674b363",
          "display": "Marthe Gallet"
        },
        "effectiveDateTime": "2025-04-03"
      }
    },
    {
      "fullUrl": "urn:uuid:1fc4296c-21f9-47c4-8955-e107147ff6df",
      "resource": {
        "resourceType": "Observation",
        "id": "1fc4296c-21f9-47c4-8955-e107147ff6df",
        "meta": {
          "profile": [
            "http://hl7.org/fhir/StructureDefinition/vitalsigns"
          ]
        },
        "category": [
          {
            "coding": [
              {
                "system": "http://terminology.hl7.org/CodeSystem/observation-category",
                "code": "vital-signs",
                "display": "Vital Signs"
              }
            ]
          }
        ],
        "valueQuantity": {
          "value": 116,
          "code": "mm[Hg]",
          "unit": "mm[Hg]"
        },
        "text": {
          "status": "generated",
          "div": "<div xmlns=\"http://www.w3.org/1999/xhtml\"><table class=\"hl7__ips\"><tr><th>Vital Sign</th><th>Date</th><th>Measurement</th></tr><tr><td>Systolic Blood Pressure</td><td>03-Apr-2025</td><td>116 mm[Hg]</td></tr></table></div>"
        },
        "status": "final",
        "code": {
          "coding": [
            {
              "code": "$8480-6",
              "system": "http://loinc.org",
              "display": "Systolic Blood Pressure"
            }
          ]
        },
        "subject": {
          "reference": "urn:uuid:7b7f01f7-be68-4417-831d-aa53d674b363",
          "display": "Marthe Gallet"
        },
        "effectiveDateTime": "2025-04-03"
      }
    },
    {
      "fullUrl": "urn:uuid:ae322e1d-6633-4e77-861a-14415d0010cf",
      "resource": {
        "resourceType": "Observation",
        "id": "ae322e1d-6633-4e77-861a-14415d0010cf",
        "meta": {
          "profile": [
            "http://hl7.org/fhir/StructureDefinition/vitalsigns"
          ]
        },
        "category": [
          {
            "coding": [
              {
                "system": "http://terminology.hl7.org/CodeSystem/observation-category",
                "code": "vital-signs",
                "display": "Vital Signs"
              }
            ]
          }
        ],
        "valueQuantity": {
          "value": 97,
          "code": "/min",
          "unit": "/min"
        },
        "text": {
          "status": "generated",
          "div": "<div xmlns=\"http://www.w3.org/1999/xhtml\"><table class=\"hl7__ips\"><tr><th>Vital Sign</th><th>Date</th><th>Measurement</th></tr><tr><td>Heart rate</td><td>03-Apr-2025</td><td>97 /min</td></tr></table></div>"
        },
        "status": "final",
        "code": {
          "coding": [
            {
              "code": "$8867-4",
              "system": "http://loinc.org",
              "display": "Heart rate"
            }
          ]
        },
        "subject": {
          "reference": "urn:uuid:7b7f01f7-be68-4417-831d-aa53d674b363",
          "display": "Marthe Gallet"
        },
        "effectiveDateTime": "2025-04-03"
      }
    },
    {
      "fullUrl": "urn:uuid:f35667e5-c9ee-433b-8072-97ac5dd0c9ff",
      "resource": {
        "resourceType": "Observation",
        "id": "f35667e5-c9ee-433b-8072-97ac5dd0c9ff",
        "meta": {
          "profile": [
            "http://hl7.org/fhir/StructureDefinition/vitalsigns"
          ]
        },
        "category": [
          {
            "coding": [
              {
                "system": "http://terminology.hl7.org/CodeSystem/observation-category",
                "code": "vital-signs",
                "display": "Vital Signs"
              }
            ]
          }
        ],
        "valueQuantity": {
          "value": 15,
          "code": "/min",
          "unit": "/min"
        },
        "text": {
          "status": "generated",
          "div": "<div xmlns=\"http://www.w3.org/1999/xhtml\"><table class=\"hl7__ips\"><tr><th>Vital Sign</th><th>Date</th><th>Measurement</th></tr><tr><td>Respiratory rate</td><td>03-Apr-2025</td><td>15 /min</td></tr></table></div>"
        },
        "status": "final",
        "code": {
          "coding": [
            {
              "code": "$9279-1",
              "system": "http://loinc.org",
              "display": "Respiratory rate"
            }
          ]
        },
        "subject": {
          "reference": "urn:uuid:7b7f01f7-be68-4417-831d-aa53d674b363",
          "display": "Marthe Gallet"
        },
        "effectiveDateTime": "2025-04-03"
      }
    },
    {
      "fullUrl": "urn:uuid:eb2d70b0-e41a-4af0-ba91-68defa1b4005",
      "resource": {
        "resourceType": "Observation",
        "id": "eb2d70b0-e41a-4af0-ba91-68defa1b4005",
        "meta": {
          "profile": [
            "http://hl7.eu/fhir/laboratory/StructureDefinition/Observation-resultslab-eu-lab"
          ]
        },
        "performer": [
          {
            "display": "The Central European Lab"
          }
        ],
        "category": [
          {
            "coding": [
              {
                "system": "http://terminology.hl7.org/CodeSystem/observation-category",
                "code": "laboratory"
              }
            ]
          }
        ],
        "code": {
          "coding": [
            {
              "code": "2345-7",
              "system": "http://loinc.org",
              "display": "Glucose [Mass/volume] in Serum or Plasma"
            }
          ],
          "text": "Glucose [Mass/volume] in Serum or Plasma"
        },
        "valueQuantity": {
          "system": "http://unitsofmeasure.org",
          "value": 76.4,
          "unit": "mg/dL",
          "code": "mg/dL"
        },
        "referenceRange": [
          {
            "low": {
              "value": 70,
              "code": "mg/dL",
              "system": "http://unitsofmeasure.org"
            }
          },
          {
            "high": {
              "value": 140,
              "code": "mg/dL",
              "system": "http://unitsofmeasure.org"
            }
          }
        ],
        "text": {
          "status": "generated",
          "div": "<div xmlns=\"http://www.w3.org/1999/xhtml\"><table class=\"hl7__eu__lab__report\"><tr><th>Test</th><th>10-Jul-2025</th><th>Reference&#xA0;Range</th><th>Unit</th></tr><tr><td>Glucose [Mass/volume] in Serum or Plasma</td><td>76.4</td><td>70 - 140</td><td></td><td>mg/dL</td></tr></table></div>"
        },
        "status": "final",
        "subject": {
          "reference": "urn:uuid:7b7f01f7-be68-4417-831d-aa53d674b363",
          "display": "Marthe Gallet"
        },
        "effectiveDateTime": "2025-07-10T19:05:43Z"
      }
    },
    {
      "fullUrl": "urn:uuid:ebe48ef5-34af-42c8-bd30-f3f16cf6b596",
      "resource": {
        "resourceType": "Observation",
        "id": "ebe48ef5-34af-42c8-bd30-f3f16cf6b596",
        "meta": {
          "profile": [
            "http://hl7.eu/fhir/laboratory/StructureDefinition/Observation-resultslab-eu-lab"
          ]
        },
        "performer": [
          {
            "display": "The Central European Lab"
          }
        ],
        "category": [
          {
            "coding": [
              {
                "system": "http://terminology.hl7.org/CodeSystem/observation-category",
                "code": "laboratory"
              }
            ]
          }
        ],
        "code": {
          "coding": [
            {
              "code": "3094-0",
              "system": "http://loinc.org",
              "display": "Urea nitrogen [Mass/volume] in Serum or Plasma"
            }
          ],
          "text": "Urea nitrogen [Mass/volume] in Serum or Plasma"
        },
        "valueQuantity": {
          "system": "http://unitsofmeasure.org",
          "value": 16.7,
          "unit": "mg/dL",
          "code": "mg/dL"
        },
        "referenceRange": [
          {
            "low": {
              "value": 7,
              "code": "mg/dL",
              "system": "http://unitsofmeasure.org"
            }
          },
          {
            "high": {
              "value": 50,
              "code": "mg/dL",
              "system": "http://unitsofmeasure.org"
            }
          }
        ],
        "text": {
          "status": "generated",
          "div": "<div xmlns=\"http://www.w3.org/1999/xhtml\"><table class=\"hl7__eu__lab__report\"><tr><th>Test</th><th>10-Jul-2025</th><th>Reference&#xA0;Range</th><th>Unit</th></tr><tr><td>Urea nitrogen [Mass/volume] in Serum or Plasma</td><td>16.7</td><td>7 - 50</td><td></td><td>mg/dL</td></tr></table></div>"
        },
        "status": "final",
        "subject": {
          "reference": "urn:uuid:7b7f01f7-be68-4417-831d-aa53d674b363",
          "display": "Marthe Gallet"
        },
        "effectiveDateTime": "2025-07-10T19:05:43Z"
      }
    },
    {
      "fullUrl": "urn:uuid:9c949798-c0c5-4a6c-917c-79e21fc16819",
      "resource": {
        "resourceType": "Observation",
        "id": "9c949798-c0c5-4a6c-917c-79e21fc16819",
        "meta": {
          "profile": [
            "http://hl7.eu/fhir/laboratory/StructureDefinition/Observation-resultslab-eu-lab"
          ]
        },
        "performer": [
          {
            "display": "The Central European Lab"
          }
        ],
        "category": [
          {
            "coding": [
              {
                "system": "http://terminology.hl7.org/CodeSystem/observation-category",
                "code": "laboratory"
              }
            ]
          }
        ],
        "code": {
          "coding": [
            {
              "code": "2160-0",
              "system": "http://loinc.org",
              "display": "Creatinine [Mass/volume] in Serum or Plasma"
            }
          ],
          "text": "Creatinine [Mass/volume] in Serum or Plasma"
        },
        "valueQuantity": {
          "system": "http://unitsofmeasure.org",
          "value": 2.1,
          "unit": "mg/dL",
          "code": "mg/dL"
        },
        "referenceRange": [
          {
            "low": {
              "value": 0.6,
              "code": "mg/dL",
              "system": "http://unitsofmeasure.org"
            }
          },
          {
            "high": {
              "value": 1.1,
              "code": "mg/dL",
              "system": "http://unitsofmeasure.org"
            }
          }
        ],
        "interpretation": [
          {
            "coding": [
              {
                "code": "H",
                "system": "http://terminology.hl7.org/CodeSystem/v3-ObservationInterpretation",
                "display": "High"
              }
            ]
          }
        ],
        "text": {
          "status": "generated",
          "div": "<div xmlns=\"http://www.w3.org/1999/xhtml\"><table class=\"hl7__eu__lab__report\"><tr><th>Test</th><th>10-Jul-2025</th><th>Reference&#xA0;Range</th><th>Unit</th></tr><tr><td>Creatinine [Mass/volume] in Serum or Plasma</td><td>2.1</td><td>0.6 - 1.1</td><td>H</td><td>mg/dL</td></tr></table></div>"
        },
        "status": "final",
        "subject": {
          "reference": "urn:uuid:7b7f01f7-be68-4417-831d-aa53d674b363",
          "display": "Marthe Gallet"
        },
        "effectiveDateTime": "2025-07-10T19:05:43Z"
      }
    },
    {
      "fullUrl": "urn:uuid:ee91dc4b-04da-4d0a-a804-e78279df820e",
      "resource": {
        "resourceType": "Observation",
        "id": "ee91dc4b-04da-4d0a-a804-e78279df820e",
        "meta": {
          "profile": [
            "http://hl7.eu/fhir/laboratory/StructureDefinition/Observation-resultslab-eu-lab"
          ]
        },
        "performer": [
          {
            "display": "The Central European Lab"
          }
        ],
        "category": [
          {
            "coding": [
              {
                "system": "http://terminology.hl7.org/CodeSystem/observation-category",
                "code": "laboratory"
              }
            ]
          }
        ],
        "code": {
          "coding": [
            {
              "code": "17861-6",
              "system": "http://loinc.org",
              "display": "Calcium [Mass/volume] in Serum or Plasma"
            }
          ],
          "text": "Calcium [Mass/volume] in Serum or Plasma"
        },
        "valueQuantity": {
          "system": "http://unitsofmeasure.org",
          "value": 9.5,
          "unit": "mg/dL",
          "code": "mg/dL"
        },
        "referenceRange": [
          {
            "low": {
              "value": 8.5,
              "code": "mg/dL",
              "system": "http://unitsofmeasure.org"
            }
          },
          {
            "high": {
              "value": 10.5,
              "code": "mg/dL",
              "system": "http://unitsofmeasure.org"
            }
          }
        ],
        "text": {
          "status": "generated",
          "div": "<div xmlns=\"http://www.w3.org/1999/xhtml\"><table class=\"hl7__eu__lab__report\"><tr><th>Test</th><th>10-Jul-2025</th><th>Reference&#xA0;Range</th><th>Unit</th></tr><tr><td>Calcium [Mass/volume] in Serum or Plasma</td><td>9.5</td><td>8.5 - 10.5</td><td></td><td>mg/dL</td></tr></table></div>"
        },
        "status": "final",
        "subject": {
          "reference": "urn:uuid:7b7f01f7-be68-4417-831d-aa53d674b363",
          "display": "Marthe Gallet"
        },
        "effectiveDateTime": "2025-07-10T19:05:43Z"
      }
    },
    {
      "fullUrl": "urn:uuid:6abadebe-8eb7-432d-9a7b-22bd0aecfc6a",
      "resource": {
        "resourceType": "Observation",
        "id": "6abadebe-8eb7-432d-9a7b-22bd0aecfc6a",
        "meta": {
          "profile": [
            "http://hl7.eu/fhir/laboratory/StructureDefinition/Observation-resultslab-eu-lab"
          ]
        },
        "performer": [
          {
            "display": "The Central European Lab"
          }
        ],
        "category": [
          {
            "coding": [
              {
                "system": "http://terminology.hl7.org/CodeSystem/observation-category",
                "code": "laboratory"
              }
            ]
          }
        ],
        "code": {
          "coding": [
            {
              "code": "2951-2",
              "system": "http://loinc.org",
              "display": "Sodium [Moles/volume] in Serum or Plasma"
            }
          ],
          "text": "Sodium [Moles/volume] in Serum or Plasma"
        },
        "valueQuantity": {
          "system": "http://unitsofmeasure.org",
          "value": 143.6,
          "unit": "mmol/L",
          "code": "mmol/L"
        },
        "referenceRange": [
          {
            "low": {
              "value": 135,
              "code": "mmol/L",
              "system": "http://unitsofmeasure.org"
            }
          },
          {
            "high": {
              "value": 145,
              "code": "mmol/L",
              "system": "http://unitsofmeasure.org"
            }
          }
        ],
        "text": {
          "status": "generated",
          "div": "<div xmlns=\"http://www.w3.org/1999/xhtml\"><table class=\"hl7__eu__lab__report\"><tr><th>Test</th><th>10-Jul-2025</th><th>Reference&#xA0;Range</th><th>Unit</th></tr><tr><td>Sodium [Moles/volume] in Serum or Plasma</td><td>143.6</td><td>135 - 145</td><td></td><td>mmol/L</td></tr></table></div>"
        },
        "status": "final",
        "subject": {
          "reference": "urn:uuid:7b7f01f7-be68-4417-831d-aa53d674b363",
          "display": "Marthe Gallet"
        },
        "effectiveDateTime": "2025-07-10T19:05:43Z"
      }
    },
    {
      "fullUrl": "urn:uuid:4a0da1b5-1496-4213-8006-ee0152df4207",
      "resource": {
        "resourceType": "Observation",
        "id": "4a0da1b5-1496-4213-8006-ee0152df4207",
        "meta": {
          "profile": [
            "http://hl7.eu/fhir/laboratory/StructureDefinition/Observation-resultslab-eu-lab"
          ]
        },
        "performer": [
          {
            "display": "The Central European Lab"
          }
        ],
        "category": [
          {
            "coding": [
              {
                "system": "http://terminology.hl7.org/CodeSystem/observation-category",
                "code": "laboratory"
              }
            ]
          }
        ],
        "code": {
          "coding": [
            {
              "code": "2823-3",
              "system": "http://loinc.org",
              "display": "Potassium [Moles/volume] in Serum or Plasma"
            }
          ],
          "text": "Potassium [Moles/volume] in Serum or Plasma"
        },
        "valueQuantity": {
          "system": "http://unitsofmeasure.org",
          "value": 4.1,
          "unit": "mmol/L",
          "code": "mmol/L"
        },
        "referenceRange": [
          {
            "low": {
              "value": 3.5,
              "code": "mmol/L",
              "system": "http://unitsofmeasure.org"
            }
          },
          {
            "high": {
              "value": 5.1,
              "code": "mmol/L",
              "system": "http://unitsofmeasure.org"
            }
          }
        ],
        "text": {
          "status": "generated",
          "div": "<div xmlns=\"http://www.w3.org/1999/xhtml\"><table class=\"hl7__eu__lab__report\"><tr><th>Test</th><th>10-Jul-2025</th><th>Reference&#xA0;Range</th><th>Unit</th></tr><tr><td>Potassium [Moles/volume] in Serum or Plasma</td><td>4.1</td><td>3.5 - 5.1</td><td></td><td>mmol/L</td></tr></table></div>"
        },
        "status": "final",
        "subject": {
          "reference": "urn:uuid:7b7f01f7-be68-4417-831d-aa53d674b363",
          "display": "Marthe Gallet"
        },
        "effectiveDateTime": "2025-07-10T19:05:43Z"
      }
    },
    {
      "fullUrl": "urn:uuid:d04cece5-a81c-4d89-b643-b6cea92e2fb8",
      "resource": {
        "resourceType": "Observation",
        "id": "d04cece5-a81c-4d89-b643-b6cea92e2fb8",
        "meta": {
          "profile": [
            "http://hl7.eu/fhir/laboratory/StructureDefinition/Observation-resultslab-eu-lab"
          ]
        },
        "performer": [
          {
            "display": "The Central European Lab"
          }
        ],
        "category": [
          {
            "coding": [
              {
                "system": "http://terminology.hl7.org/CodeSystem/observation-category",
                "code": "laboratory"
              }
            ]
          }
        ],
        "code": {
          "coding": [
            {
              "code": "2075-0",
              "system": "http://loinc.org",
              "display": "Chloride [Moles/volume] in Serum or Plasma"
            }
          ],
          "text": "Chloride [Moles/volume] in Serum or Plasma"
        },
        "valueQuantity": {
          "system": "http://unitsofmeasure.org",
          "value": 102.5,
          "unit": "mmol/L",
          "code": "mmol/L"
        },
        "referenceRange": [
          {
            "low": {
              "value": 98,
              "code": "mmol/L",
              "system": "http://unitsofmeasure.org"
            }
          },
          {
            "high": {
              "value": 108,
              "code": "mmol/L",
              "system": "http://unitsofmeasure.org"
            }
          }
        ],
        "text": {
          "status": "generated",
          "div": "<div xmlns=\"http://www.w3.org/1999/xhtml\"><table class=\"hl7__eu__lab__report\"><tr><th>Test</th><th>10-Jul-2025</th><th>Reference&#xA0;Range</th><th>Unit</th></tr><tr><td>Chloride [Moles/volume] in Serum or Plasma</td><td>102.5</td><td>98 - 108</td><td></td><td>mmol/L</td></tr></table></div>"
        },
        "status": "final",
        "subject": {
          "reference": "urn:uuid:7b7f01f7-be68-4417-831d-aa53d674b363",
          "display": "Marthe Gallet"
        },
        "effectiveDateTime": "2025-07-10T19:05:43Z"
      }
    },
    {
      "fullUrl": "urn:uuid:6902e8fd-650b-4cc0-96f5-23077e4cdc97",
      "resource": {
        "resourceType": "Observation",
        "id": "6902e8fd-650b-4cc0-96f5-23077e4cdc97",
        "meta": {
          "profile": [
            "http://hl7.eu/fhir/laboratory/StructureDefinition/Observation-resultslab-eu-lab"
          ]
        },
        "performer": [
          {
            "display": "The Central European Lab"
          }
        ],
        "category": [
          {
            "coding": [
              {
                "system": "http://terminology.hl7.org/CodeSystem/observation-category",
                "code": "laboratory"
              }
            ]
          }
        ],
        "code": {
          "coding": [
            {
              "code": "2028-9",
              "system": "http://loinc.org",
              "display": "Carbon dioxide, total [Moles/volume] in Serum or Plasma"
            }
          ],
          "text": "Carbon dioxide, total [Moles/volume] in Serum or Plasma"
        },
        "valueQuantity": {
          "system": "http://unitsofmeasure.org",
          "value": 21,
          "unit": "mmol/L",
          "code": "mmol/L"
        },
        "referenceRange": [
          {
            "low": {
              "value": 22,
              "code": "mmol/L",
              "system": "http://unitsofmeasure.org"
            }
          },
          {
            "high": {
              "value": 32,
              "code": "mmol/L",
              "system": "http://unitsofmeasure.org"
            }
          }
        ],
        "interpretation": [
          {
            "coding": [
              {
                "code": "L",
                "system": "http://terminology.hl7.org/CodeSystem/v3-ObservationInterpretation",
                "display": "Low"
              }
            ]
          }
        ],
        "text": {
          "status": "generated",
          "div": "<div xmlns=\"http://www.w3.org/1999/xhtml\"><table class=\"hl7__eu__lab__report\"><tr><th>Test</th><th>10-Jul-2025</th><th>Reference&#xA0;Range</th><th>Unit</th></tr><tr><td>Carbon dioxide, total [Moles/volume] in Serum or Plasma</td><td>21.0</td><td>22 - 32</td><td>L</td><td>mmol/L</td></tr></table></div>"
        },
        "status": "final",
        "subject": {
          "reference": "urn:uuid:7b7f01f7-be68-4417-831d-aa53d674b363",
          "display": "Marthe Gallet"
        },
        "effectiveDateTime": "2025-07-10T19:05:43Z"
      }
    },
    {
      "fullUrl": "urn:uuid:945a601e-2491-4524-be3b-d48b713fab1a",
      "resource": {
        "resourceType": "Observation",
        "id": "945a601e-2491-4524-be3b-d48b713fab1a",
        "meta": {
          "profile": [
            "http://hl7.eu/fhir/laboratory/StructureDefinition/Observation-resultslab-eu-lab"
          ]
        },
        "performer": [
          {
            "display": "The Central European Lab"
          }
        ],
        "category": [
          {
            "coding": [
              {
                "system": "http://terminology.hl7.org/CodeSystem/observation-category",
                "code": "laboratory"
              }
            ]
          }
        ],
        "code": {
          "coding": [
            {
              "code": "5767-9",
              "system": "http://loinc.org",
              "display": "Appearance of Urine"
            }
          ],
          "text": "Appearance of Urine"
        },
        "text": {
          "status": "generated",
          "div": "<div xmlns=\"http://www.w3.org/1999/xhtml\"><table class=\"hl7__eu__lab__report\"><tr><th>Test</th><th>10-Jul-2025</th><th>Reference&#xA0;Range</th><th>Unit</th></tr><tr><td>Appearance of Urine</td></tr></table></div>"
        },
        "status": "final",
        "subject": {
          "reference": "urn:uuid:7b7f01f7-be68-4417-831d-aa53d674b363",
          "display": "Marthe Gallet"
        },
        "effectiveDateTime": "2025-07-10T19:05:43Z"
      }
    },
    {
      "fullUrl": "urn:uuid:b09165f8-0d29-4ac5-8217-7f585a969de3",
      "resource": {
        "resourceType": "Observation",
        "id": "b09165f8-0d29-4ac5-8217-7f585a969de3",
        "meta": {
          "profile": [
            "http://hl7.eu/fhir/laboratory/StructureDefinition/Observation-resultslab-eu-lab"
          ]
        },
        "performer": [
          {
            "display": "The Central European Lab"
          }
        ],
        "category": [
          {
            "coding": [
              {
                "system": "http://terminology.hl7.org/CodeSystem/observation-category",
                "code": "laboratory"
              }
            ]
          }
        ],
        "code": {
          "coding": [
            {
              "code": "34533-0",
              "system": "http://loinc.org",
              "display": "Odor of Urine"
            }
          ],
          "text": "Odor of Urine"
        },
        "text": {
          "status": "generated",
          "div": "<div xmlns=\"http://www.w3.org/1999/xhtml\"><table class=\"hl7__eu__lab__report\"><tr><th>Test</th><th>10-Jul-2025</th><th>Reference&#xA0;Range</th><th>Unit</th></tr><tr><td>Odor of Urine</td></tr></table></div>"
        },
        "status": "final",
        "subject": {
          "reference": "urn:uuid:7b7f01f7-be68-4417-831d-aa53d674b363",
          "display": "Marthe Gallet"
        },
        "effectiveDateTime": "2025-07-10T19:05:43Z"
      }
    },
    {
      "fullUrl": "urn:uuid:80e89271-576f-4c8c-98df-725ccd226403",
      "resource": {
        "resourceType": "Observation",
        "id": "80e89271-576f-4c8c-98df-725ccd226403",
        "meta": {
          "profile": [
            "http://hl7.eu/fhir/laboratory/StructureDefinition/Observation-resultslab-eu-lab"
          ]
        },
        "performer": [
          {
            "display": "The Central European Lab"
          }
        ],
        "category": [
          {
            "coding": [
              {
                "system": "http://terminology.hl7.org/CodeSystem/observation-category",
                "code": "laboratory"
              }
            ]
          }
        ],
        "code": {
          "coding": [
            {
              "code": "32167-9",
              "system": "http://loinc.org",
              "display": "Clarity of Urine"
            }
          ],
          "text": "Clarity of Urine"
        },
        "text": {
          "status": "generated",
          "div": "<div xmlns=\"http://www.w3.org/1999/xhtml\"><table class=\"hl7__eu__lab__report\"><tr><th>Test</th><th>10-Jul-2025</th><th>Reference&#xA0;Range</th><th>Unit</th></tr><tr><td>Clarity of Urine</td></tr></table></div>"
        },
        "status": "final",
        "subject": {
          "reference": "urn:uuid:7b7f01f7-be68-4417-831d-aa53d674b363",
          "display": "Marthe Gallet"
        },
        "effectiveDateTime": "2025-07-10T19:05:43Z"
      }
    },
    {
      "fullUrl": "urn:uuid:43dba35c-bf11-42ef-b6a3-8ef2712c0704",
      "resource": {
        "resourceType": "Observation",
        "id": "43dba35c-bf11-42ef-b6a3-8ef2712c0704",
        "meta": {
          "profile": [
            "http://hl7.eu/fhir/laboratory/StructureDefinition/Observation-resultslab-eu-lab"
          ]
        },
        "performer": [
          {
            "display": "The Central European Lab"
          }
        ],
        "category": [
          {
            "coding": [
              {
                "system": "http://terminology.hl7.org/CodeSystem/observation-category",
                "code": "laboratory"
              }
            ]
          }
        ],
        "code": {
          "coding": [
            {
              "code": "5778-6",
              "system": "http://loinc.org",
              "display": "Color of Urine"
            }
          ],
          "text": "Color of Urine"
        },
        "text": {
          "status": "generated",
          "div": "<div xmlns=\"http://www.w3.org/1999/xhtml\"><table class=\"hl7__eu__lab__report\"><tr><th>Test</th><th>10-Jul-2025</th><th>Reference&#xA0;Range</th><th>Unit</th></tr><tr><td>Color of Urine</td></tr></table></div>"
        },
        "status": "final",
        "subject": {
          "reference": "urn:uuid:7b7f01f7-be68-4417-831d-aa53d674b363",
          "display": "Marthe Gallet"
        },
        "effectiveDateTime": "2025-07-10T19:05:43Z"
      }
    },
    {
      "fullUrl": "urn:uuid:91d53a3a-5b5d-482b-9a2f-b95f292dba7b",
      "resource": {
        "resourceType": "Observation",
        "id": "91d53a3a-5b5d-482b-9a2f-b95f292dba7b",
        "meta": {
          "profile": [
            "http://hl7.eu/fhir/laboratory/StructureDefinition/Observation-resultslab-eu-lab"
          ]
        },
        "performer": [
          {
            "display": "The Central European Lab"
          }
        ],
        "category": [
          {
            "coding": [
              {
                "system": "http://terminology.hl7.org/CodeSystem/observation-category",
                "code": "laboratory"
              }
            ]
          }
        ],
        "code": {
          "coding": [
            {
              "code": "5792-7",
              "system": "http://loinc.org",
              "display": "Glucose [Mass/volume] in Urine by Test strip"
            }
          ],
          "text": "Glucose [Mass/volume] in Urine by Test strip"
        },
        "valueQuantity": {
          "system": "http://unitsofmeasure.org",
          "value": 1.8,
          "unit": "mg/dL",
          "code": "mg/dL"
        },
        "referenceRange": [
          {
            "low": {
              "value": 0.8,
              "code": "mg/dL",
              "system": "http://unitsofmeasure.org"
            }
          },
          {
            "high": {
              "value": 0,
              "code": "mg/dL",
              "system": "http://unitsofmeasure.org"
            }
          }
        ],
        "interpretation": [
          {
            "coding": [
              {
                "code": "H",
                "system": "http://terminology.hl7.org/CodeSystem/v3-ObservationInterpretation",
                "display": "High"
              }
            ]
          }
        ],
        "text": {
          "status": "generated",
          "div": "<div xmlns=\"http://www.w3.org/1999/xhtml\"><table class=\"hl7__eu__lab__report\"><tr><th>Test</th><th>10-Jul-2025</th><th>Reference&#xA0;Range</th><th>Unit</th></tr><tr><td>Glucose [Mass/volume] in Urine by Test strip</td><td>1.8</td><td>0.8 - 0</td><td>H</td><td>mg/dL</td></tr></table></div>"
        },
        "status": "final",
        "subject": {
          "reference": "urn:uuid:7b7f01f7-be68-4417-831d-aa53d674b363",
          "display": "Marthe Gallet"
        },
        "effectiveDateTime": "2025-07-10T19:05:43Z"
      }
    },
    {
      "fullUrl": "urn:uuid:a9c9e1ed-384a-4e64-ad48-d828f4b526c8",
      "resource": {
        "resourceType": "Observation",
        "id": "a9c9e1ed-384a-4e64-ad48-d828f4b526c8",
        "meta": {
          "profile": [
            "http://hl7.eu/fhir/laboratory/StructureDefinition/Observation-resultslab-eu-lab"
          ]
        },
        "performer": [
          {
            "display": "The Central European Lab"
          }
        ],
        "category": [
          {
            "coding": [
              {
                "system": "http://terminology.hl7.org/CodeSystem/observation-category",
                "code": "laboratory"
              }
            ]
          }
        ],
        "code": {
          "coding": [
            {
              "code": "25428-4",
              "system": "http://loinc.org",
              "display": "Glucose [Presence] in Urine by Test strip"
            }
          ],
          "text": "Glucose [Presence] in Urine by Test strip"
        },
        "text": {
          "status": "generated",
          "div": "<div xmlns=\"http://www.w3.org/1999/xhtml\"><table class=\"hl7__eu__lab__report\"><tr><th>Test</th><th>10-Jul-2025</th><th>Reference&#xA0;Range</th><th>Unit</th></tr><tr><td>Glucose [Presence] in Urine by Test strip</td></tr></table></div>"
        },
        "status": "final",
        "subject": {
          "reference": "urn:uuid:7b7f01f7-be68-4417-831d-aa53d674b363",
          "display": "Marthe Gallet"
        },
        "effectiveDateTime": "2025-07-10T19:05:43Z"
      }
    },
    {
      "fullUrl": "urn:uuid:e0cc712c-39a7-41f2-a978-14342ceaad2a",
      "resource": {
        "resourceType": "Observation",
        "id": "e0cc712c-39a7-41f2-a978-14342ceaad2a",
        "meta": {
          "profile": [
            "http://hl7.eu/fhir/laboratory/StructureDefinition/Observation-resultslab-eu-lab"
          ]
        },
        "performer": [
          {
            "display": "The Central European Lab"
          }
        ],
        "category": [
          {
            "coding": [
              {
                "system": "http://terminology.hl7.org/CodeSystem/observation-category",
                "code": "laboratory"
              }
            ]
          }
        ],
        "code": {
          "coding": [
            {
              "code": "20505-4",
              "system": "http://loinc.org",
              "display": "Bilirubin.total [Mass/volume] in Urine by Test strip"
            }
          ],
          "text": "Bilirubin.total [Mass/volume] in Urine by Test strip"
        },
        "valueQuantity": {
          "system": "http://unitsofmeasure.org",
          "value": 0.8,
          "unit": "mg/dL",
          "code": "mg/dL"
        },
        "referenceRange": [
          {
            "low": {
              "value": 0,
              "code": "mg/dL",
              "system": "http://unitsofmeasure.org"
            }
          },
          {
            "high": {
              "value": 1,
              "code": "mg/dL",
              "system": "http://unitsofmeasure.org"
            }
          }
        ],
        "text": {
          "status": "generated",
          "div": "<div xmlns=\"http://www.w3.org/1999/xhtml\"><table class=\"hl7__eu__lab__report\"><tr><th>Test</th><th>10-Jul-2025</th><th>Reference&#xA0;Range</th><th>Unit</th></tr><tr><td>Bilirubin.total [Mass/volume] in Urine by Test strip</td><td>0.8</td><td>0 - 1</td><td></td><td>mg/dL</td></tr></table></div>"
        },
        "status": "final",
        "subject": {
          "reference": "urn:uuid:7b7f01f7-be68-4417-831d-aa53d674b363",
          "display": "Marthe Gallet"
        },
        "effectiveDateTime": "2025-07-10T19:05:43Z"
      }
    },
    {
      "fullUrl": "urn:uuid:8e7f43a5-6243-4053-b986-a37121c552e0",
      "resource": {
        "resourceType": "Observation",
        "id": "8e7f43a5-6243-4053-b986-a37121c552e0",
        "meta": {
          "profile": [
            "http://hl7.eu/fhir/laboratory/StructureDefinition/Observation-resultslab-eu-lab"
          ]
        },
        "performer": [
          {
            "display": "The Central European Lab"
          }
        ],
        "category": [
          {
            "coding": [
              {
                "system": "http://terminology.hl7.org/CodeSystem/observation-category",
                "code": "laboratory"
              }
            ]
          }
        ],
        "code": {
          "coding": [
            {
              "code": "5770-3",
              "system": "http://loinc.org",
              "display": "Bilirubin.total [Presence] in Urine by Test strip"
            }
          ],
          "text": "Bilirubin.total [Presence] in Urine by Test strip"
        },
        "text": {
          "status": "generated",
          "div": "<div xmlns=\"http://www.w3.org/1999/xhtml\"><table class=\"hl7__eu__lab__report\"><tr><th>Test</th><th>10-Jul-2025</th><th>Reference&#xA0;Range</th><th>Unit</th></tr><tr><td>Bilirubin.total [Presence] in Urine by Test strip</td></tr></table></div>"
        },
        "status": "final",
        "subject": {
          "reference": "urn:uuid:7b7f01f7-be68-4417-831d-aa53d674b363",
          "display": "Marthe Gallet"
        },
        "effectiveDateTime": "2025-07-10T19:05:43Z"
      }
    },
    {
      "fullUrl": "urn:uuid:91c92c0f-3f4a-4115-a385-d2dbc9006212",
      "resource": {
        "resourceType": "Observation",
        "id": "91c92c0f-3f4a-4115-a385-d2dbc9006212",
        "meta": {
          "profile": [
            "http://hl7.eu/fhir/laboratory/StructureDefinition/Observation-resultslab-eu-lab"
          ]
        },
        "performer": [
          {
            "display": "The Central European Lab"
          }
        ],
        "category": [
          {
            "coding": [
              {
                "system": "http://terminology.hl7.org/CodeSystem/observation-category",
                "code": "laboratory"
              }
            ]
          }
        ],
        "code": {
          "coding": [
            {
              "code": "5797-6",
              "system": "http://loinc.org",
              "display": "Ketones [Mass/volume] in Urine by Test strip"
            }
          ],
          "text": "Ketones [Mass/volume] in Urine by Test strip"
        },
        "valueQuantity": {
          "system": "http://unitsofmeasure.org",
          "value": 12,
          "unit": "mg/dL",
          "code": "mg/dL"
        },
        "referenceRange": [
          {
            "low": {
              "value": 0,
              "code": "mg/dL",
              "system": "http://unitsofmeasure.org"
            }
          },
          {
            "high": {
              "value": 20,
              "code": "mg/dL",
              "system": "http://unitsofmeasure.org"
            }
          }
        ],
        "text": {
          "status": "generated",
          "div": "<div xmlns=\"http://www.w3.org/1999/xhtml\"><table class=\"hl7__eu__lab__report\"><tr><th>Test</th><th>10-Jul-2025</th><th>Reference&#xA0;Range</th><th>Unit</th></tr><tr><td>Ketones [Mass/volume] in Urine by Test strip</td><td>12.0</td><td>0 - 20</td><td></td><td>mg/dL</td></tr></table></div>"
        },
        "status": "final",
        "subject": {
          "reference": "urn:uuid:7b7f01f7-be68-4417-831d-aa53d674b363",
          "display": "Marthe Gallet"
        },
        "effectiveDateTime": "2025-07-10T19:05:43Z"
      }
    },
    {
      "fullUrl": "urn:uuid:db219039-890b-41d8-883b-2851e6f25c30",
      "resource": {
        "resourceType": "Observation",
        "id": "db219039-890b-41d8-883b-2851e6f25c30",
        "meta": {
          "profile": [
            "http://hl7.eu/fhir/laboratory/StructureDefinition/Observation-resultslab-eu-lab"
          ]
        },
        "performer": [
          {
            "display": "The Central European Lab"
          }
        ],
        "category": [
          {
            "coding": [
              {
                "system": "http://terminology.hl7.org/CodeSystem/observation-category",
                "code": "laboratory"
              }
            ]
          }
        ],
        "code": {
          "coding": [
            {
              "code": "2514-8",
              "system": "http://loinc.org",
              "display": "Ketones [Presence] in Urine by Test strip"
            }
          ],
          "text": "Ketones [Presence] in Urine by Test strip"
        },
        "text": {
          "status": "generated",
          "div": "<div xmlns=\"http://www.w3.org/1999/xhtml\"><table class=\"hl7__eu__lab__report\"><tr><th>Test</th><th>10-Jul-2025</th><th>Reference&#xA0;Range</th><th>Unit</th></tr><tr><td>Ketones [Presence] in Urine by Test strip</td></tr></table></div>"
        },
        "status": "final",
        "subject": {
          "reference": "urn:uuid:7b7f01f7-be68-4417-831d-aa53d674b363",
          "display": "Marthe Gallet"
        },
        "effectiveDateTime": "2025-07-10T19:05:43Z"
      }
    },
    {
      "fullUrl": "urn:uuid:27a264f9-b421-40fa-8544-8debbf9e841d",
      "resource": {
        "resourceType": "Observation",
        "id": "27a264f9-b421-40fa-8544-8debbf9e841d",
        "meta": {
          "profile": [
            "http://hl7.eu/fhir/laboratory/StructureDefinition/Observation-resultslab-eu-lab"
          ]
        },
        "performer": [
          {
            "display": "The Central European Lab"
          }
        ],
        "category": [
          {
            "coding": [
              {
                "system": "http://terminology.hl7.org/CodeSystem/observation-category",
                "code": "laboratory"
              }
            ]
          }
        ],
        "code": {
          "coding": [
            {
              "code": "5811-5",
              "system": "http://loinc.org",
              "display": "Specific gravity of Urine by Test strip"
            }
          ],
          "text": "Specific gravity of Urine by Test strip"
        },
        "valueQuantity": {
          "system": "http://unitsofmeasure.org",
          "value": 1,
          "unit": "{nominal}",
          "code": "{nominal}"
        },
        "referenceRange": [
          {
            "low": {
              "value": 1.01,
              "code": "g/mL",
              "system": "http://unitsofmeasure.org"
            }
          },
          {
            "high": {
              "value": 1.03,
              "code": "g/mL",
              "system": "http://unitsofmeasure.org"
            }
          }
        ],
        "interpretation": [
          {
            "coding": [
              {
                "code": "L",
                "system": "http://terminology.hl7.org/CodeSystem/v3-ObservationInterpretation",
                "display": "Low"
              }
            ]
          }
        ],
        "text": {
          "status": "generated",
          "div": "<div xmlns=\"http://www.w3.org/1999/xhtml\"><table class=\"hl7__eu__lab__report\"><tr><th>Test</th><th>10-Jul-2025</th><th>Reference&#xA0;Range</th><th>Unit</th></tr><tr><td>Specific gravity of Urine by Test strip</td><td>1.0</td><td>1.01 - 1.03</td><td>L</td><td>{nominal}</td></tr></table></div>"
        },
        "status": "final",
        "subject": {
          "reference": "urn:uuid:7b7f01f7-be68-4417-831d-aa53d674b363",
          "display": "Marthe Gallet"
        },
        "effectiveDateTime": "2025-07-10T19:05:43Z"
      }
    },
    {
      "fullUrl": "urn:uuid:53b51cde-cc3f-4862-806a-1248cc86072c",
      "resource": {
        "resourceType": "Observation",
        "id": "53b51cde-cc3f-4862-806a-1248cc86072c",
        "meta": {
          "profile": [
            "http://hl7.eu/fhir/laboratory/StructureDefinition/Observation-resultslab-eu-lab"
          ]
        },
        "performer": [
          {
            "display": "The Central European Lab"
          }
        ],
        "category": [
          {
            "coding": [
              {
                "system": "http://terminology.hl7.org/CodeSystem/observation-category",
                "code": "laboratory"
              }
            ]
          }
        ],
        "code": {
          "coding": [
            {
              "code": "5803-2",
              "system": "http://loinc.org",
              "display": "pH of Urine by Test strip"
            }
          ],
          "text": "pH of Urine by Test strip"
        },
        "valueQuantity": {
          "system": "http://unitsofmeasure.org",
          "value": 6,
          "unit": "pH",
          "code": "pH"
        },
        "referenceRange": [
          {
            "low": {
              "value": 4.6,
              "code": "pH",
              "system": "http://unitsofmeasure.org"
            }
          },
          {
            "high": {
              "value": 7,
              "code": "pH",
              "system": "http://unitsofmeasure.org"
            }
          }
        ],
        "text": {
          "status": "generated",
          "div": "<div xmlns=\"http://www.w3.org/1999/xhtml\"><table class=\"hl7__eu__lab__report\"><tr><th>Test</th><th>10-Jul-2025</th><th>Reference&#xA0;Range</th><th>Unit</th></tr><tr><td>pH of Urine by Test strip</td><td>6.0</td><td>4.6 - 7</td><td></td><td>pH</td></tr></table></div>"
        },
        "status": "final",
        "subject": {
          "reference": "urn:uuid:7b7f01f7-be68-4417-831d-aa53d674b363",
          "display": "Marthe Gallet"
        },
        "effectiveDateTime": "2025-07-10T19:05:43Z"
      }
    },
    {
      "fullUrl": "urn:uuid:f7340d3a-5646-4135-b195-d3c8efce421d",
      "resource": {
        "resourceType": "Observation",
        "id": "f7340d3a-5646-4135-b195-d3c8efce421d",
        "meta": {
          "profile": [
            "http://hl7.eu/fhir/laboratory/StructureDefinition/Observation-resultslab-eu-lab"
          ]
        },
        "performer": [
          {
            "display": "The Central European Lab"
          }
        ],
        "category": [
          {
            "coding": [
              {
                "system": "http://terminology.hl7.org/CodeSystem/observation-category",
                "code": "laboratory"
              }
            ]
          }
        ],
        "code": {
          "coding": [
            {
              "code": "5804-0",
              "system": "http://loinc.org",
              "display": "Protein [Mass/volume] in Urine by Test strip"
            }
          ],
          "text": "Protein [Mass/volume] in Urine by Test strip"
        },
        "valueQuantity": {
          "system": "http://unitsofmeasure.org",
          "value": 223.4,
          "unit": "mg/dL",
          "code": "mg/dL"
        },
        "referenceRange": [
          {
            "low": {
              "value": 0,
              "code": "mg/dL",
              "system": "http://unitsofmeasure.org"
            }
          },
          {
            "high": {
              "value": 15,
              "code": "mg/dL",
              "system": "http://unitsofmeasure.org"
            }
          }
        ],
        "interpretation": [
          {
            "coding": [
              {
                "code": "H",
                "system": "http://terminology.hl7.org/CodeSystem/v3-ObservationInterpretation",
                "display": "High"
              }
            ]
          }
        ],
        "text": {
          "status": "generated",
          "div": "<div xmlns=\"http://www.w3.org/1999/xhtml\"><table class=\"hl7__eu__lab__report\"><tr><th>Test</th><th>10-Jul-2025</th><th>Reference&#xA0;Range</th><th>Unit</th></tr><tr><td>Protein [Mass/volume] in Urine by Test strip</td><td>223.4</td><td>0 - 15</td><td>H</td><td>mg/dL</td></tr></table></div>"
        },
        "status": "final",
        "subject": {
          "reference": "urn:uuid:7b7f01f7-be68-4417-831d-aa53d674b363",
          "display": "Marthe Gallet"
        },
        "effectiveDateTime": "2025-07-10T19:05:43Z"
      }
    },
    {
      "fullUrl": "urn:uuid:1c82083f-26ab-4927-9b58-847bd0a2fb72",
      "resource": {
        "resourceType": "Observation",
        "id": "1c82083f-26ab-4927-9b58-847bd0a2fb72",
        "meta": {
          "profile": [
            "http://hl7.eu/fhir/laboratory/StructureDefinition/Observation-resultslab-eu-lab"
          ]
        },
        "performer": [
          {
            "display": "The Central European Lab"
          }
        ],
        "category": [
          {
            "coding": [
              {
                "system": "http://terminology.hl7.org/CodeSystem/observation-category",
                "code": "laboratory"
              }
            ]
          }
        ],
        "code": {
          "coding": [
            {
              "code": "20454-5",
              "system": "http://loinc.org",
              "display": "Protein [Presence] in Urine by Test strip"
            }
          ],
          "text": "Protein [Presence] in Urine by Test strip"
        },
        "text": {
          "status": "generated",
          "div": "<div xmlns=\"http://www.w3.org/1999/xhtml\"><table class=\"hl7__eu__lab__report\"><tr><th>Test</th><th>10-Jul-2025</th><th>Reference&#xA0;Range</th><th>Unit</th></tr><tr><td>Protein [Presence] in Urine by Test strip</td></tr></table></div>"
        },
        "status": "final",
        "subject": {
          "reference": "urn:uuid:7b7f01f7-be68-4417-831d-aa53d674b363",
          "display": "Marthe Gallet"
        },
        "effectiveDateTime": "2025-07-10T19:05:43Z"
      }
    },
    {
      "fullUrl": "urn:uuid:e8d27cb7-6468-4042-bdc8-f1afdd6e5b71",
      "resource": {
        "resourceType": "Observation",
        "id": "e8d27cb7-6468-4042-bdc8-f1afdd6e5b71",
        "meta": {
          "profile": [
            "http://hl7.eu/fhir/laboratory/StructureDefinition/Observation-resultslab-eu-lab"
          ]
        },
        "performer": [
          {
            "display": "The Central European Lab"
          }
        ],
        "category": [
          {
            "coding": [
              {
                "system": "http://terminology.hl7.org/CodeSystem/observation-category",
                "code": "laboratory"
              }
            ]
          }
        ],
        "code": {
          "coding": [
            {
              "code": "5802-4",
              "system": "http://loinc.org",
              "display": "Nitrite [Presence] in Urine by Test strip"
            }
          ],
          "text": "Nitrite [Presence] in Urine by Test strip"
        },
        "text": {
          "status": "generated",
          "div": "<div xmlns=\"http://www.w3.org/1999/xhtml\"><table class=\"hl7__eu__lab__report\"><tr><th>Test</th><th>10-Jul-2025</th><th>Reference&#xA0;Range</th><th>Unit</th></tr><tr><td>Nitrite [Presence] in Urine by Test strip</td></tr></table></div>"
        },
        "status": "final",
        "subject": {
          "reference": "urn:uuid:7b7f01f7-be68-4417-831d-aa53d674b363",
          "display": "Marthe Gallet"
        },
        "effectiveDateTime": "2025-07-10T19:05:43Z"
      }
    },
    {
      "fullUrl": "urn:uuid:67a6fbf5-b96e-49e6-aa19-02c67425f5c0",
      "resource": {
        "resourceType": "Observation",
        "id": "67a6fbf5-b96e-49e6-aa19-02c67425f5c0",
        "meta": {
          "profile": [
            "http://hl7.eu/fhir/laboratory/StructureDefinition/Observation-resultslab-eu-lab"
          ]
        },
        "performer": [
          {
            "display": "The Central European Lab"
          }
        ],
        "category": [
          {
            "coding": [
              {
                "system": "http://terminology.hl7.org/CodeSystem/observation-category",
                "code": "laboratory"
              }
            ]
          }
        ],
        "code": {
          "coding": [
            {
              "code": "5794-3",
              "system": "http://loinc.org",
              "display": "Hemoglobin [Presence] in Urine by Test strip"
            }
          ],
          "text": "Hemoglobin [Presence] in Urine by Test strip"
        },
        "text": {
          "status": "generated",
          "div": "<div xmlns=\"http://www.w3.org/1999/xhtml\"><table class=\"hl7__eu__lab__report\"><tr><th>Test</th><th>10-Jul-2025</th><th>Reference&#xA0;Range</th><th>Unit</th></tr><tr><td>Hemoglobin [Presence] in Urine by Test strip</td></tr></table></div>"
        },
        "status": "final",
        "subject": {
          "reference": "urn:uuid:7b7f01f7-be68-4417-831d-aa53d674b363",
          "display": "Marthe Gallet"
        },
        "effectiveDateTime": "2025-07-10T19:05:43Z"
      }
    },
    {
      "fullUrl": "urn:uuid:a2a9d01e-5170-4c15-b72c-7af3c2626402",
      "resource": {
        "resourceType": "Observation",
        "id": "a2a9d01e-5170-4c15-b72c-7af3c2626402",
        "meta": {
          "profile": [
            "http://hl7.eu/fhir/laboratory/StructureDefinition/Observation-resultslab-eu-lab"
          ]
        },
        "performer": [
          {
            "display": "The Central European Lab"
          }
        ],
        "category": [
          {
            "coding": [
              {
                "system": "http://terminology.hl7.org/CodeSystem/observation-category",
                "code": "laboratory"
              }
            ]
          }
        ],
        "code": {
          "coding": [
            {
              "code": "5799-2",
              "system": "http://loinc.org",
              "display": "Leukocyte esterase [Presence] in Urine by Test strip"
            }
          ],
          "text": "Leukocyte esterase [Presence] in Urine by Test strip"
        },
        "text": {
          "status": "generated",
          "div": "<div xmlns=\"http://www.w3.org/1999/xhtml\"><table class=\"hl7__eu__lab__report\"><tr><th>Test</th><th>10-Jul-2025</th><th>Reference&#xA0;Range</th><th>Unit</th></tr><tr><td>Leukocyte esterase [Presence] in Urine by Test strip</td></tr></table></div>"
        },
        "status": "final",
        "subject": {
          "reference": "urn:uuid:7b7f01f7-be68-4417-831d-aa53d674b363",
          "display": "Marthe Gallet"
        },
        "effectiveDateTime": "2025-07-10T19:05:43Z"
      }
    },
    {
      "fullUrl": "urn:uuid:bcb57d77-46fa-4362-86e5-3ee6e6765b14",
      "resource": {
        "resourceType": "Device",
        "id": "bcb57d77-46fa-4362-86e5-3ee6e6765b14",
        "deviceName": [
          {
            "name": "SYNDERAI Synthetic Generator",
            "type": "manufacturer-name"
          }
        ],
        "version": [
          {
            "value": "5.0"
          }
        ],
        "text": {
          "status": "generated",
          "div": "<div xmlns=\"http://www.w3.org/1999/xhtml\">SYNDERAI Synthetic Generator v5.0</div>"
        },
        "status": "active\"",
        "distinctIdentifier": "synderai-generator-50",
        "manufacturer": "SYNDERAI Project"
      }
    },
    {
      "fullUrl": "urn:uuid:69db545d-13af-4c68-ba53-b644c6f11ec2",
      "resource": {
        "resourceType": "Provenance",
        "id": "69db545d-13af-4c68-ba53-b644c6f11ec2",
        "target": [
          {
            "reference": "Patient/7b7f01f7-be68-4417-831d-aa53d674b363"
          },
          {
            "reference": "Bundle/dc8bfe6f-17cc-4c34-be30-53117485b700"
          },
          {
            "reference": "Composition/5a4ad858-135f-4dbc-9e8e-05e187fa79db"
          },
          {
            "reference": "PractitionerRole/71ab422e-7d4d-4abc-9ad8-3af43210ffc4"
          },
          {
            "reference": "Organization/93f52fbf-e555-4b8d-a7f8-88245b46211b"
          },
          {
            "reference": "Practitioner/f79aeddd-18b9-46fb-b721-e49c9342b392"
          }
        ],
        "activity": {
          "text": "Synthetic Example Data Generation"
        },
        "policy": [
          "https://synderai.net/synderai-synthetic-data-policy"
        ],
        "agent": [
          {
            "type": {
              "text": "author"
            },
            "who": {
              "reference": "Device/bcb57d77-46fa-4362-86e5-3ee6e6765b14"
            }
          }
        ],
        "reason": [
          {
            "text": "Interoperability Testing and Training (non-clinical use)"
          }
        ],
        "text": {
          "status": "generated",
          "div": "<div xmlns=\"http://www.w3.org/1999/xhtml\">Provenance for SYNDERAI Synthetic Example Data Resource</div>"
        },
        "recorded": "2025-07-10T19:05:43Z"
      }
    }
  ],
  "type": "document",
  "timestamp": "2025-07-10T19:05:43Z"
}
