<Bundle xmlns="http://hl7.org/fhir">
   <id value="a604aa72-838e-486f-9e29-cbfd43c5ad47"/>
   <meta>
      <profile value="http://hl7.eu/fhir/eps/StructureDefinition/bundle-eu-eps"/>
   </meta>
   <identifier>
      <system value="urn:oid:2.16.840.1.113883.2.51.999"/>
      <value value="6cd1bde7-8e72-4848-9465-516a6278a537"/>
      <assigner>
         <display value="HL7 Europe"/>
      </assigner>
   </identifier>
   <type value="document"/>
   <timestamp value="2025-06-03T04:55:51Z"/>
   <entry>
      <fullUrl value="urn:uuid:2856e61c-d863-4b7b-b9cc-d912c0787130"/>
      <resource>
         <Composition>
            <id value="2856e61c-d863-4b7b-b9cc-d912c0787130"/>
            <meta>
               <profile value="http://hl7.eu/fhir/eps/StructureDefinition/composition-eu-eps"/>
               <security>
                  <system value="http://terminology.hl7.org/CodeSystem/v3-ActReason"/>
                  <code value="HTEST"/>
               </security>
               <security>
                  <system value="http://terminology.hl7.org/CodeSystem/v3-ActReason"/>
                  <code value="TRAIN"/>
               </security>
               <tag>
                  <system value="https://synderai.net/fhir/CodeSystem/tags"/>
                  <code value="synthetic"/>
                  <display value="SYNDERAI Synthetic data"/>
               </tag>
            </meta>
            <identifier>
               <system value="urn:oid:2.16.840.1.113883.2.51.999"/>
               <value value="a1b8eee2-7d52-4ce0-aa71-3d6220421d60"/>
               <assigner>
                  <display value="HL7 Europe"/>
               </assigner>
            </identifier>
            <status value="final"/>
            <type>
               <coding>
                  <system value="http://loinc.org"/>
                  <code value="60591-5"/>
                  <display value="Patient summary Document"/>
               </coding>
               <text value="Patient summary Document"/>
            </type>
            <subject>
               <reference value="urn:uuid:b1fce6b3-5ac6-4c03-9852-a2b82e81ec77"/>
               <display value="Carole Cooke"/>
            </subject>
            <date value="2025-06-03"/>
            <author>
               <reference value="urn:uuid:f1fcb8dd-2afc-4abb-9b17-ccf1d72ca81b"/>
            </author>
            <title value="European Patient Summary"/>
            <confidentiality value="N"/>
            <custodian>
               <reference value="urn:uuid:0e2e212d-67fc-465a-aa1c-926bc1858c53"/>
            </custodian>
            <section>
               <title value="Problem list"/>
               <code>
                  <coding>
                     <system value="http://loinc.org"/>
                     <code value="11450-4"/>
                     <display value="Problem list - Reported"/>
                  </coding>
               </code>
               <text>
                  <status value="generated"/>
                  <div xmlns="http://www.w3.org/1999/xhtml">
                     <table class="hl7__ips">
                        <tr>
                           <th>Condition</th>
                           <th>Onset Date</th>
                           <th>Status</th>
                        </tr>
                        <tr>
                           <td>Chronic sinusitis</td>
                           <td>
                              <span class="nb">06-Nov-2006</span>
                           </td>
                           <td>active</td>
                        </tr>
                     </table>
                  </div>
               </text>
               <entry>
                  <reference value="urn:uuid:5461a3db-0f2e-412a-9178-f7ee6a37e152"/>
               </entry>
            </section>
            <section>
               <title value="Medication list"/>
               <code>
                  <coding>
                     <system value="http://loinc.org"/>
                     <code value="10160-0"/>
                     <display value="History of Medication use Narrative"/>
                  </coding>
               </code>
               <text>
                  <status value="generated"/>
                  <div xmlns="http://www.w3.org/1999/xhtml">
                     <table class="hl7__ips">
                        <tr>
                           <th>Medication</th>
                           <th>Since</th>
                           <th>Form</th>
                           <th>Dosage</th>
                           <th>Reason</th>
                        </tr>
                        <tr>
                           <td>Camila 28 Day Pack</td>
                           <td>
                              <span class="nb">2025-02-20</span>
                           </td>
                           <td>-</td>
                           <td>1 tablet (0.35 mg) by mouth once daily</td>
                           <td>-</td>
                        </tr>
                     </table>
                  </div>
               </text>
               <entry>
                  <reference value="urn:uuid:677ec5ea-f206-4ed0-9b90-1458edeb5a51"/>
               </entry>
            </section>
            <section>
               <title value="Immunizations list"/>
               <code>
                  <coding>
                     <system value="http://loinc.org"/>
                     <code value="11369-6"/>
                     <display value="History of Immunization note"/>
                  </coding>
               </code>
               <text>
                  <status value="generated"/>
                  <div xmlns="http://www.w3.org/1999/xhtml">
                     <table class="hl7__ips">
                        <tr>
                           <th>Vaccine</th>
                           <th>Date</th>
                        </tr>
                        <tr>
                           <td>Hepatitis B virus antigen only vaccine product</td>
                           <td>
                              <span class="nb">03-Jun-2025</span>
                           </td>
                        </tr>
                        <tr>
                           <td>Clostridium tetani toxoid antigen adsorbed only vaccine product</td>
                           <td>
                              <span class="nb">03-Jun-2025</span>
                           </td>
                        </tr>
                        <tr>
                           <td>Neisseria meningitidis antigen-containing vaccine product</td>
                           <td>
                              <span class="nb">03-Jun-2025</span>
                           </td>
                        </tr>
                        <tr>
                           <td>Influenza virus antigen only vaccine product</td>
                           <td>
                              <span class="nb">03-Jun-2025</span>
                           </td>
                        </tr>
                        <tr>
                           <td>Human papillomavirus 6</td>
                           <td>
                              <span class="nb">26-Apr-2016</span>
                           </td>
                        </tr>
                     </table>
                  </div>
               </text>
               <entry>
                  <reference value="urn:uuid:1dcbd8f2-391b-496a-8bfb-6acfe060a3d6"/>
               </entry>
               <entry>
                  <reference value="urn:uuid:082b1fc0-6295-4176-aa6a-d2c122ffc8dc"/>
               </entry>
               <entry>
                  <reference value="urn:uuid:01be211b-8b17-498c-942d-6e62736f87e0"/>
               </entry>
               <entry>
                  <reference value="urn:uuid:150bae6b-0c83-49e0-8e87-32724ee6d5e4"/>
               </entry>
               <entry>
                  <reference value="urn:uuid:2cb7dae4-fc8e-46f6-9972-36e5d42941e8"/>
               </entry>
            </section>
            <section>
               <title value="Allergies and Intolerances"/>
               <code>
                  <coding>
                     <system value="http://loinc.org"/>
                     <code value="48765-2"/>
                     <display value="Allergies and adverse reactions Document"/>
                  </coding>
               </code>
               <text>
                  <status value="generated"/>
                  <div xmlns="http://www.w3.org/1999/xhtml">
                     <table class="hl7__ips">
                        <tr>
                           <th>Allergy/Intolerance</th>
                           <th>Onset Date</th>
                           <th>Status</th>
                           <th>Type</th>
                           <th>Reaction</th>
                        </tr>
                        <tr>
                           <td>Vaccine product containing HPV 6, 11, 16, and 18 antigens</td>
                           <td>?</td>
                           <td>active</td>
                           <td>?</td>
                           <td/>
                        </tr>
                     </table>
                  </div>
               </text>
               <entry>
                  <reference value="urn:uuid:2757e2f0-44b3-4ec5-9d87-053b4b208b52"/>
               </entry>
            </section>
            <section>
               <title value="Vital Signs"/>
               <code>
                  <coding>
                     <system value="http://loinc.org"/>
                     <code value="8716-3"/>
                     <display value="Vital signs note"/>
                  </coding>
               </code>
               <text>
                  <status value="generated"/>
                  <div xmlns="http://www.w3.org/1999/xhtml">
                     <table class="hl7__ips">
                        <tr>
                           <th>Vital Signs</th>
                           <th>2025-06-03</th>
                           <th>2022-05-31</th>
                        </tr>
                        <tr>
                           <td>Body Height</td>
                           <td>159.9 cm</td>
                           <td>159.9 cm</td>
                        </tr>
                        <tr>
                           <td>Pain severity - 0-10 verbal numeric rating [Score] - Reported</td>
                           <td>3 {score}</td>
                           <td>0 {score}</td>
                        </tr>
                        <tr>
                           <td>Body Weight</td>
                           <td>83.1 kg</td>
                           <td>89.3 kg</td>
                        </tr>
                        <tr>
                           <td>Body mass index (BMI) [Ratio]</td>
                           <td>32.5 kg/m2</td>
                           <td>34.9 kg/m2</td>
                        </tr>
                        <tr>
                           <td>Diastolic Blood Pressure</td>
                           <td>71 mm[Hg]</td>
                           <td>76 mm[Hg]</td>
                        </tr>
                        <tr>
                           <td>Systolic Blood Pressure</td>
                           <td>135 mm[Hg]</td>
                           <td>135 mm[Hg]</td>
                        </tr>
                        <tr>
                           <td>Heart rate</td>
                           <td>69 /min</td>
                           <td>94 /min</td>
                        </tr>
                        <tr>
                           <td>Respiratory rate</td>
                           <td>14 /min</td>
                           <td>16 /min</td>
                        </tr>
                        <tr>
                           <td>Body mass index (BMI) [Percentile] Per age and sex</td>
                           <td>-</td>
                           <td>97.3 %</td>
                        </tr>
                     </table>
                  </div>
               </text>
               <entry>
                  <reference value="urn:uuid:936a9a3b-91c1-4898-9d88-0543861eafed"/>
               </entry>
               <entry>
                  <reference value="urn:uuid:f8af573e-0e31-4bfc-bf9f-5d277b588310"/>
               </entry>
               <entry>
                  <reference value="urn:uuid:77d209d3-880c-4060-b0f9-04e51c40e6d2"/>
               </entry>
               <entry>
                  <reference value="urn:uuid:6e8d9125-3a58-4aee-a41f-70033cdc398c"/>
               </entry>
               <entry>
                  <reference value="urn:uuid:3a154ec6-2281-44fa-8e8a-57efb4d8de67"/>
               </entry>
               <entry>
                  <reference value="urn:uuid:bb24ca72-f38a-4fc3-b8d2-c3dd36176ade"/>
               </entry>
               <entry>
                  <reference value="urn:uuid:e185c046-2dfa-4a5c-ad6e-4baf5007a97c"/>
               </entry>
               <entry>
                  <reference value="urn:uuid:2102dd86-d740-41c0-b2d8-bb67a28999f7"/>
               </entry>
               <entry>
                  <reference value="urn:uuid:f93a520a-5c2a-4815-9788-7b63296de7fd"/>
               </entry>
               <entry>
                  <reference value="urn:uuid:48a4e08f-42b3-4c8f-b895-edc94049b939"/>
               </entry>
               <entry>
                  <reference value="urn:uuid:5ac5b5cf-e655-4ff2-9855-2a57a889a7f7"/>
               </entry>
               <entry>
                  <reference value="urn:uuid:f142e3a2-7a92-4356-be6b-5bbf0dbb69a8"/>
               </entry>
               <entry>
                  <reference value="urn:uuid:4eea0c64-8bc1-4134-91a7-5573abe16fc5"/>
               </entry>
               <entry>
                  <reference value="urn:uuid:3f62238e-b118-4300-925b-f810f683a9a3"/>
               </entry>
               <entry>
                  <reference value="urn:uuid:e1a268fa-7ab7-48e7-ad42-bc9a9bdff76d"/>
               </entry>
               <entry>
                  <reference value="urn:uuid:0b8fc952-b8b6-4c30-bc08-9a6cc6748276"/>
               </entry>
               <entry>
                  <reference value="urn:uuid:5b4afcd2-be66-4add-aa87-1544b18ef52e"/>
               </entry>
            </section>
            <section>
               <title value="Relevant diagnostic tests/laboratory data"/>
               <code>
                  <coding>
                     <system value="http://loinc.org"/>
                     <code value="30954-2"/>
                     <display value="Relevant diagnostic tests/laboratory data note"/>
                  </coding>
               </code>
               <text>
                  <status value="generated"/>
                  <div xmlns="http://www.w3.org/1999/xhtml">
                     <table class="hl7__ips">
                        <table class="hl7__ips">
                           <thead>
                              <tr>
                                 <th>Recent Lab Observations</th>
                                 <th>03-JUN-2025</th>
                                 <th>Reference Range</th>
                                 <th>Unit</th>
                              </tr>
                           </thead>
                           <tbody>
                              <tr>
                                 <td>Leukocytes [#/volume] in Blood by Automated count</td>
                                 <td>3.7</td>
                                 <td>3.6 - 10.5</td>
                                 <td>10*3/uL</td>
                              </tr>
                              <tr>
                                 <td>Erythrocytes [#/volume] in Blood by Automated count</td>
                                 <td>5.1</td>
                                 <td>4.5 - 5.5</td>
                                 <td>10*6/uL</td>
                              </tr>
                              <tr>
                                 <td>Hemoglobin [Mass/volume] in Blood</td>
                                 <td>
                                    <strong>16.1 H</strong>
                                 </td>
                                 <td>12 - 16</td>
                                 <td>g/dL</td>
                              </tr>
                              <tr>
                                 <td>Hematocrit [Volume Fraction] of Blood by Automated count</td>
                                 <td>39.3</td>
                                 <td>36 - 48</td>
                                 <td>%</td>
                              </tr>
                              <tr>
                                 <td>MCV [Entitic volume] by Automated count</td>
                                 <td>89.0</td>
                                 <td>78 - 98</td>
                                 <td>fL</td>
                              </tr>
                              <tr>
                                 <td>MCH [Entitic mass] by Automated count</td>
                                 <td>28.0</td>
                                 <td>27 - 33</td>
                                 <td>pg</td>
                              </tr>
                              <tr>
                                 <td>MCHC [Mass/volume] by Automated count</td>
                                 <td>33.0</td>
                                 <td>31.5 - 35</td>
                                 <td>g/dL</td>
                              </tr>
                              <tr>
                                 <td>Erythrocyte distribution width [Entitic volume] by Automated count</td>
                                 <td>40.8</td>
                                 <td>36 - 55</td>
                                 <td>fL</td>
                              </tr>
                              <tr>
                                 <td>Platelets [#/volume] in Blood by Automated count</td>
                                 <td>380.5</td>
                                 <td>150 - 450</td>
                                 <td>10*3/uL</td>
                              </tr>
                              <tr>
                                 <td>Platelet distribution width [Entitic volume] in Blood by Automated count</td>
                                 <td>
                                    <strong>475.4 H</strong>
                                 </td>
                                 <td>13.4 - 17.4</td>
                                 <td>fL</td>
                              </tr>
                              <tr>
                                 <td>Platelet mean volume [Entitic volume] in Blood by Automated count</td>
                                 <td>10.8</td>
                                 <td>9.7 - 12</td>
                                 <td>fL</td>
                              </tr>
                           </tbody>
                        </table>
                     </table>
                  </div>
               </text>
               <entry>
                  <reference value="urn:uuid:1512685b-89f1-4504-82b5-f8b17713e242"/>
               </entry>
               <entry>
                  <reference value="urn:uuid:885012e2-3999-4a7f-8e95-3fbce1eae767"/>
               </entry>
               <entry>
                  <reference value="urn:uuid:6b4a3ba4-f29a-4bd0-836c-f2008ab64e34"/>
               </entry>
               <entry>
                  <reference value="urn:uuid:d4ab0012-139e-44c2-90f5-c348dfe7ffb2"/>
               </entry>
               <entry>
                  <reference value="urn:uuid:f9237016-1220-4b6d-a9c3-0d002bd4a8f0"/>
               </entry>
               <entry>
                  <reference value="urn:uuid:8881ca8c-3c56-45c7-9647-c37c7021433f"/>
               </entry>
               <entry>
                  <reference value="urn:uuid:8fbef317-722a-40ca-9cdd-c1e8a6cd261e"/>
               </entry>
               <entry>
                  <reference value="urn:uuid:4dd2791e-5729-4257-9fb8-9d9fa069eab7"/>
               </entry>
               <entry>
                  <reference value="urn:uuid:7d7ba922-6e1f-4a30-876a-8e13fd999380"/>
               </entry>
               <entry>
                  <reference value="urn:uuid:c3eaba39-ed6b-4319-bcff-67e5ffb1a0ad"/>
               </entry>
               <entry>
                  <reference value="urn:uuid:812393ba-4249-4c94-9e72-6572e6962cde"/>
               </entry>
            </section>
            <section>
               <title value="Device Use"/>
               <code>
                  <coding>
                     <system value="http://loinc.org"/>
                     <code value="46264-8"/>
                     <display value="History of medical device use"/>
                  </coding>
               </code>
               <text>
                  <status value="generated"/>
                  <div xmlns="http://www.w3.org/1999/xhtml">
                     <table class="hl7__ips">
                        <tr>
                           <th>Device</th>
                           <th>Date (since)</th>
                        </tr>
                        <tr>
                           <td>Home nebulizer (physical object)</td>
                           <td>
                              <span class="nb">06-Nov-2006</span>
                           </td>
                        </tr>
                     </table>
                  </div>
               </text>
               <entry>
                  <reference value="urn:uuid:6fe4add0-34e9-4433-a03b-707e47859e08"/>
               </entry>
            </section>
         </Composition>
      </resource>
   </entry>
   <entry>
      <fullUrl value="urn:uuid:b1fce6b3-5ac6-4c03-9852-a2b82e81ec77"/>
      <resource>
         <Patient>
            <id value="b1fce6b3-5ac6-4c03-9852-a2b82e81ec77"/>
            <meta>
               <profile value="http://hl7.eu/fhir/eps/StructureDefinition/patient-eu-eps"/>
               <security>
                  <system value="http://terminology.hl7.org/CodeSystem/v3-ActReason"/>
                  <code value="HTEST"/>
               </security>
               <security>
                  <system value="http://terminology.hl7.org/CodeSystem/v3-ActReason"/>
                  <code value="TRAIN"/>
               </security>
               <tag>
                  <system value="https://synderai.net/fhir/CodeSystem/tags"/>
                  <code value="synthetic"/>
                  <display value="SYNDERAI Synthetic data"/>
               </tag>
            </meta>
            <text>
               <status value="generated"/>
               <div xmlns="http://www.w3.org/1999/xhtml">
                  <table class="hl7__ips">
                     <tr>
                        <td>Carole Cooke</td>
                        <td>female</td>
                        <td>07-Dec-2005</td>
                     </tr>
                  </table>
               </div>
            </text>
            <extension url="http://hl7.org/fhir/StructureDefinition/patient-nationality">
               <valueCodeableConcept>
                  <coding>
                     <system value="http://hl7.org/fhir/ValueSet/country"/>
                     <code value="GB"/>
                  </coding>
               </valueCodeableConcept>
            </extension>
            <identifier>
               <type>
                  <coding>
                     <system value="http://terminology.hl7.org/CodeSystem/v2-0203"/>
                     <code value="PT"/>
                  </coding>
               </type>
               <system value="http://ec.europa.eu/identifier/eci"/>
               <value value="1102-358220-5"/>
            </identifier>
            <identifier>
               <type>
                  <coding>
                     <system value="http://terminology.hl7.org/CodeSystem/v2-0203"/>
                     <code value="MR"/>
                  </coding>
               </type>
               <system value="http://local.setting.eu/identifier"/>
               <value value="f525f046-df37-01f8-5d2a-6533e179ee9d"/>
            </identifier>
            <name>
               <family value="Cooke"/>
            </name>
            <name>
               <given value="Carole"/>
            </name>
            <name>
               <text value="Carole Cooke"/>
            </name>
            <telecom>
               <system value="phone"/>
               <value value="+441514960086"/>
            </telecom>
            <gender value="female"/>
            <birthDate value="2005-12-07"/>
            <address>
               <use value="home"/>
               <type value="physical"/>
               <line value="739 Pamela summit"/>
               <city value="London"/>
               <postalCode value="SW1A"/>
               <country value="United Kingdom"/>
            </address>
         </Patient>
      </resource>
   </entry>
   <entry>
      <fullUrl value="urn:uuid:f1fcb8dd-2afc-4abb-9b17-ccf1d72ca81b"/>
      <resource>
         <PractitionerRole>
            <id value="f1fcb8dd-2afc-4abb-9b17-ccf1d72ca81b"/>
            <meta>
               <profile value="http://hl7.eu/fhir/base/StructureDefinition/practitionerRole-eu"/>
            </meta>
            <text>
               <status value="generated"/>
               <div xmlns="http://www.w3.org/1999/xhtml">
                  <table class="hl7__ips">Provider Role Id f1fcb8dd-2afc-4abb-9b17-ccf1d72ca81b</table>
               </div>
            </text>
            <practitioner>
               <reference value="urn:uuid:a3fcdc1f-f0d1-4ad4-85c5-45b32a424f9f"/>
            </practitioner>
            <organization>
               <reference value="urn:uuid:0e2e212d-67fc-465a-aa1c-926bc1858c53"/>
            </organization>
         </PractitionerRole>
      </resource>
   </entry>
   <entry>
      <fullUrl value="urn:uuid:a3fcdc1f-f0d1-4ad4-85c5-45b32a424f9f"/>
      <resource>
         <Practitioner>
            <id value="a3fcdc1f-f0d1-4ad4-85c5-45b32a424f9f"/>
            <meta>
               <profile value="http://hl7.eu/fhir/base/StructureDefinition/practitioner-eu"/>
            </meta>
            <text>
               <status value="generated"/>
               <div xmlns="http://www.w3.org/1999/xhtml">
                  <table class="hl7__ips">Dr. Hel Ping</table>
               </div>
            </text>
            <name>
               <family value="Ping"/>
               <given value="Hel"/>
               <prefix value="Dr."/>
            </name>
         </Practitioner>
      </resource>
   </entry>
   <entry>
      <fullUrl value="urn:uuid:0e2e212d-67fc-465a-aa1c-926bc1858c53"/>
      <resource>
         <Organization>
            <id value="0e2e212d-67fc-465a-aa1c-926bc1858c53"/>
            <meta>
               <profile value="http://hl7.eu/fhir/base/StructureDefinition/organization-eu"/>
            </meta>
            <text>
               <status value="generated"/>
               <div xmlns="http://www.w3.org/1999/xhtml">
                  <table class="hl7__ips">Evelina Children's Hospital</table>
               </div>
            </text>
            <identifier>
               <system value="urn:oid:2.16.840.1.113883.2.51.999"/>
               <value value="17932e98-e1ff-4155-8167-d7bef24736aa"/>
               <assigner>
                  <display value="HL7 Europe"/>
               </assigner>
            </identifier>
            <name value="Evelina Children&amp;#039;s Hospital"/>
            <address>
               <city value="London"/>
               <postalCode value="SE1 7"/>
               <country value="United Kingdom"/>
            </address>
         </Organization>
      </resource>
   </entry>
   <entry>
      <fullUrl value="urn:uuid:5461a3db-0f2e-412a-9178-f7ee6a37e152"/>
      <resource>
         <Condition>
            <id value="5461a3db-0f2e-412a-9178-f7ee6a37e152"/>
            <meta>
               <profile value="http://hl7.org/fhir/uv/ips/StructureDefinition/Condition-uv-ips"/>
            </meta>
            <text>
               <status value="generated"/>
               <div xmlns="http://www.w3.org/1999/xhtml">
                  <table class="hl7__ips">
                     <tr>
                        <td>Chronic sinusitis</td>
                        <td>
                           <span class="nb">06-Nov-2006</span>
                        </td>
                        <td>active</td>
                     </tr>
                  </table>
               </div>
            </text>
            <category>
               <coding>
                  <system value="http://terminology.hl7.org/CodeSystem/condition-category"/>
                  <code value="problem-list-item"/>
                  <display value="Problem List Item"/>
               </coding>
            </category>
            <code>
               <coding>
                  <system value="http://snomed.info/sct"/>
                  <code value="40055000"/>
                  <display value="Chronic sinusitis (disorder)"/>
               </coding>
               <text value="Chronic sinusitis"/>
            </code>
            <subject>
               <reference value="urn:uuid:"/>
               <display value="Carole Cooke"/>
            </subject>
            <onsetDateTime value="2006-11-06"/>
            <asserter>
               <reference value="urn:uuid:"/>
               <display value="Evelina Children&amp;#039;s Hospital"/>
            </asserter>
         </Condition>
      </resource>
   </entry>
   <entry>
      <fullUrl value="urn:uuid:b92a3f54-f9c1-45dd-9dde-d2bdbc5876da"/>
      <resource>
         <Condition>
            <id value="b92a3f54-f9c1-45dd-9dde-d2bdbc5876da"/>
            <meta>
               <profile value="http://hl7.org/fhir/uv/ips/StructureDefinition/Condition-uv-ips"/>
            </meta>
            <text>
               <status value="generated"/>
               <div xmlns="http://www.w3.org/1999/xhtml">
                  <table class="hl7__ips">
                     <tr>
                        <td>
                           <span class="grayedout">Viral sinusitis</span>
                        </td>
                        <td>
                           <span class="nb">28-Mar-2024 - 11-Apr-2024</span>
                        </td>
                        <td>
                           <span class="grayedout">inactive</span>
                        </td>
                     </tr>
                  </table>
               </div>
            </text>
            <category>
               <coding>
                  <system value="http://terminology.hl7.org/CodeSystem/condition-category"/>
                  <code value="problem-list-item"/>
                  <display value="Problem List Item"/>
               </coding>
            </category>
            <code>
               <coding>
                  <system value="http://snomed.info/sct"/>
                  <code value="444814009"/>
                  <display value="Viral sinusitis (disorder)"/>
               </coding>
               <text value="Viral sinusitis"/>
            </code>
            <subject>
               <reference value="urn:uuid:"/>
               <display value="Carole Cooke"/>
            </subject>
            <onsetDateTime value="2024-03-28"/>
            <abatementDateTime value="2024-04-11"/>
            <asserter>
               <reference value="urn:uuid:"/>
               <display value="Evelina Children&amp;#039;s Hospital"/>
            </asserter>
         </Condition>
      </resource>
   </entry>
   <entry>
      <fullUrl value="urn:uuid:42d07076-8c45-4340-bfa9-68fb3769123c"/>
      <resource>
         <Condition>
            <id value="42d07076-8c45-4340-bfa9-68fb3769123c"/>
            <meta>
               <profile value="http://hl7.org/fhir/uv/ips/StructureDefinition/Condition-uv-ips"/>
            </meta>
            <text>
               <status value="generated"/>
               <div xmlns="http://www.w3.org/1999/xhtml">
                  <table class="hl7__ips">
                     <tr>
                        <td>
                           <span class="grayedout">Concussion with no loss of consciousness</span>
                        </td>
                        <td>
                           <span class="nb">17-Oct-2018 - 28-Dec-2018</span>
                        </td>
                        <td>
                           <span class="grayedout">inactive</span>
                        </td>
                     </tr>
                  </table>
               </div>
            </text>
            <category>
               <coding>
                  <system value="http://terminology.hl7.org/CodeSystem/condition-category"/>
                  <code value="problem-list-item"/>
                  <display value="Problem List Item"/>
               </coding>
            </category>
            <code>
               <coding>
                  <system value="http://snomed.info/sct"/>
                  <code value="62106007"/>
                  <display value="Concussion with no loss of consciousness (disorder)"/>
               </coding>
               <text value="Concussion with no loss of consciousness"/>
            </code>
            <subject>
               <reference value="urn:uuid:"/>
               <display value="Carole Cooke"/>
            </subject>
            <onsetDateTime value="2018-10-17"/>
            <abatementDateTime value="2018-12-28"/>
            <asserter>
               <reference value="urn:uuid:"/>
               <display value="Evelina Children&amp;#039;s Hospital"/>
            </asserter>
         </Condition>
      </resource>
   </entry>
   <entry>
      <fullUrl value="urn:uuid:93960d3d-5643-4805-9268-e32dc225045f"/>
      <resource>
         <Condition>
            <id value="93960d3d-5643-4805-9268-e32dc225045f"/>
            <meta>
               <profile value="http://hl7.org/fhir/uv/ips/StructureDefinition/Condition-uv-ips"/>
            </meta>
            <text>
               <status value="generated"/>
               <div xmlns="http://www.w3.org/1999/xhtml">
                  <table class="hl7__ips">
                     <tr>
                        <td>
                           <span class="grayedout">Concussion injury of brain</span>
                        </td>
                        <td>
                           <span class="nb">17-Oct-2018 - 28-Dec-2018</span>
                        </td>
                        <td>
                           <span class="grayedout">inactive</span>
                        </td>
                     </tr>
                  </table>
               </div>
            </text>
            <category>
               <coding>
                  <system value="http://terminology.hl7.org/CodeSystem/condition-category"/>
                  <code value="problem-list-item"/>
                  <display value="Problem List Item"/>
               </coding>
            </category>
            <code>
               <coding>
                  <system value="http://snomed.info/sct"/>
                  <code value="110030002"/>
                  <display value="Concussion injury of brain (disorder)"/>
               </coding>
               <text value="Concussion injury of brain"/>
            </code>
            <subject>
               <reference value="urn:uuid:"/>
               <display value="Carole Cooke"/>
            </subject>
            <onsetDateTime value="2018-10-17"/>
            <abatementDateTime value="2018-12-28"/>
            <asserter>
               <reference value="urn:uuid:"/>
               <display value="Evelina Children&amp;#039;s Hospital"/>
            </asserter>
         </Condition>
      </resource>
   </entry>
   <entry>
      <fullUrl value="urn:uuid:1ae47aaa-845a-45df-bc12-efdb179ac083"/>
      <resource>
         <Condition>
            <id value="1ae47aaa-845a-45df-bc12-efdb179ac083"/>
            <meta>
               <profile value="http://hl7.org/fhir/uv/ips/StructureDefinition/Condition-uv-ips"/>
            </meta>
            <text>
               <status value="generated"/>
               <div xmlns="http://www.w3.org/1999/xhtml">
                  <table class="hl7__ips">
                     <tr>
                        <td>
                           <span class="grayedout">Viral sinusitis</span>
                        </td>
                        <td>
                           <span class="nb">28-Sep-2017 - 24-Oct-2017</span>
                        </td>
                        <td>
                           <span class="grayedout">inactive</span>
                        </td>
                     </tr>
                  </table>
               </div>
            </text>
            <category>
               <coding>
                  <system value="http://terminology.hl7.org/CodeSystem/condition-category"/>
                  <code value="problem-list-item"/>
                  <display value="Problem List Item"/>
               </coding>
            </category>
            <code>
               <coding>
                  <system value="http://snomed.info/sct"/>
                  <code value="444814009"/>
                  <display value="Viral sinusitis (disorder)"/>
               </coding>
               <text value="Viral sinusitis"/>
            </code>
            <subject>
               <reference value="urn:uuid:"/>
               <display value="Carole Cooke"/>
            </subject>
            <onsetDateTime value="2017-09-28"/>
            <abatementDateTime value="2017-10-24"/>
            <asserter>
               <reference value="urn:uuid:"/>
               <display value="Evelina Children&amp;#039;s Hospital"/>
            </asserter>
         </Condition>
      </resource>
   </entry>
   <entry>
      <fullUrl value="urn:uuid:40042aad-3cdf-44ad-8474-be932e93903e"/>
      <resource>
         <Medication>
            <id value="40042aad-3cdf-44ad-8474-be932e93903e"/>
            <meta>
               <profile value="http://hl7.eu/fhir/eps/StructureDefinition/Medication-eu-eps"/>
            </meta>
            <text>
               <status value="generated"/>
               <div xmlns="http://www.w3.org/1999/xhtml">Camila 28 Day Pack</div>
            </text>
            <code>
               <coding>
                  <system value="http://www.nlm.nih.gov/research/umls/rxnorm"/>
                  <code value="748962"/>
                  <display value="Camila 28 Day Pack"/>
               </coding>
               <text value="Camila 28 Day Pack"/>
            </code>
         </Medication>
      </resource>
   </entry>
   <entry>
      <fullUrl value="urn:uuid:677ec5ea-f206-4ed0-9b90-1458edeb5a51"/>
      <resource>
         <MedicationStatement>
            <id value="677ec5ea-f206-4ed0-9b90-1458edeb5a51"/>
            <meta>
               <profile value="http://hl7.eu/fhir/eps/StructureDefinition/MedicationStatement-eu-eps"/>
            </meta>
            <text>
               <status value="generated"/>
               <div xmlns="http://www.w3.org/1999/xhtml">
                  <table class="hl7__ips first25">
                     <tr>
                        <th>Medication</th>
                        <th>Since</th>
                        <th>Form</th>
                        <th>Dosage</th>
                        <th>Reason</th>
                     </tr>
                     <tr>
                        <td>Camila 28 Day Pack</td>
                        <td>
                           <span class="nb">2025-02-20</span>
                        </td>
                        <td>-</td>
                        <td>1 tablet (0.35 mg) by mouth once daily</td>
                        <td>-</td>
                     </tr>
                  </table>
               </div>
            </text>
            <status value="active"/>
            <medicationReference>
               <reference value="urn:uuid:40042aad-3cdf-44ad-8474-be932e93903e"/>
               <display value="Camila 28 Day Pack"/>
            </medicationReference>
            <subject>
               <reference value="urn:uuid:b1fce6b3-5ac6-4c03-9852-a2b82e81ec77"/>
               <display value="Carole Cooke"/>
            </subject>
            <effectivePeriod>
               <start value="2025-02-20"/>
            </effectivePeriod>
            <dosage>
               <text value="1 tablet (0.35 mg) by mouth once daily"/>
               <timing>
                  <repeat>
                     <frequency value="1"/>
                     <period value="1"/>
                     <periodUnit value="d"/>
                  </repeat>
               </timing>
               <asNeededBoolean value="false"/>
               <doseAndRate>
                  <doseQuantity>
                     <value value="1"/>
                     <unit value="{tbl}"/>
                     <system value="$ucum"/>
                     <code value="{tbl}"/>
                  </doseQuantity>
               </doseAndRate>
            </dosage>
         </MedicationStatement>
      </resource>
   </entry>
   <entry>
      <fullUrl value="urn:uuid:1dcbd8f2-391b-496a-8bfb-6acfe060a3d6"/>
      <resource>
         <Immunization>
            <id value="1dcbd8f2-391b-496a-8bfb-6acfe060a3d6"/>
            <meta>
               <profile value="http://hl7.org/fhir/uv/ips/StructureDefinition/Immunization-uv-ips"/>
            </meta>
            <text>
               <status value="generated"/>
               <div xmlns="http://www.w3.org/1999/xhtml">
                  <table class="hl7__ips">
                     <tr>
                        <td>Hepatitis B virus antigen only vaccine product</td>
                        <td>
                           <span class="nb">03-Jun-2025</span>
                        </td>
                     </tr>
                  </table>
               </div>
            </text>
            <status value="completed"/>
            <vaccineCode>
               <coding>
                  <system value="http://snomed.info/sct"/>
                  <code value="871822003"/>
                  <display value="Vaccine product containing Hepatitis B virus antigen"/>
               </coding>
               <coding>
                  <system value="http://www.whocc.no/atc"/>
                  <code value="J07BC01"/>
                  <display value="Hepatitis B vaccines"/>
               </coding>
               <text value="Hepatitis B virus antigen only vaccine product"/>
            </vaccineCode>
            <patient>
               <reference value="urn:uuid:b1fce6b3-5ac6-4c03-9852-a2b82e81ec77"/>
               <display value="Carole Cooke"/>
            </patient>
            <occurrenceDateTime value="2025-06-03"/>
            <lotNumber value="UC-ebvVhf"/>
            <expirationDate value="2026-05-20"/>
            <site>
               <coding>
                  <system value="http://snomed.info/sct"/>
                  <code value="244979005"/>
                  <display value="Entire muscle of upper arm"/>
               </coding>
               <text value="Entire muscle of upper arm"/>
            </site>
            <route>
               <coding>
                  <system value="http://snomed.info/sct"/>
                  <code value="78421000"/>
                  <display value="Intramuscular route"/>
               </coding>
               <text value="Intramuscular route"/>
            </route>
         </Immunization>
      </resource>
   </entry>
   <entry>
      <fullUrl value="urn:uuid:082b1fc0-6295-4176-aa6a-d2c122ffc8dc"/>
      <resource>
         <Immunization>
            <id value="082b1fc0-6295-4176-aa6a-d2c122ffc8dc"/>
            <meta>
               <profile value="http://hl7.org/fhir/uv/ips/StructureDefinition/Immunization-uv-ips"/>
            </meta>
            <text>
               <status value="generated"/>
               <div xmlns="http://www.w3.org/1999/xhtml">
                  <table class="hl7__ips">
                     <tr>
                        <td>Clostridium tetani toxoid antigen adsorbed only vaccine product</td>
                        <td>
                           <span class="nb">03-Jun-2025</span>
                        </td>
                     </tr>
                  </table>
               </div>
            </text>
            <status value="completed"/>
            <vaccineCode>
               <coding>
                  <system value="http://snomed.info/sct"/>
                  <code value="777725002"/>
                  <display value="Vaccine product containing only Clostridium tetani toxoid antigen adsorbed"/>
               </coding>
               <coding>
                  <system value="http://www.whocc.no/atc"/>
                  <code value="J07AM51"/>
                  <display value="Diphtheria-tetanus vaccines, adult type"/>
               </coding>
               <text value="Clostridium tetani toxoid antigen adsorbed only vaccine product"/>
            </vaccineCode>
            <patient>
               <reference value="urn:uuid:b1fce6b3-5ac6-4c03-9852-a2b82e81ec77"/>
               <display value="Carole Cooke"/>
            </patient>
            <occurrenceDateTime value="2025-06-03"/>
            <lotNumber value="SB-JShN"/>
            <expirationDate value="2026-03-12"/>
            <site>
               <coding>
                  <system value="http://snomed.info/sct"/>
                  <code value="244979005"/>
                  <display value="Entire muscle of upper arm"/>
               </coding>
               <text value="Entire muscle of upper arm"/>
            </site>
            <route>
               <coding>
                  <system value="http://snomed.info/sct"/>
                  <code value="78421000"/>
                  <display value="Intramuscular route"/>
               </coding>
               <text value="Intramuscular route"/>
            </route>
         </Immunization>
      </resource>
   </entry>
   <entry>
      <fullUrl value="urn:uuid:01be211b-8b17-498c-942d-6e62736f87e0"/>
      <resource>
         <Immunization>
            <id value="01be211b-8b17-498c-942d-6e62736f87e0"/>
            <meta>
               <profile value="http://hl7.org/fhir/uv/ips/StructureDefinition/Immunization-uv-ips"/>
            </meta>
            <text>
               <status value="generated"/>
               <div xmlns="http://www.w3.org/1999/xhtml">
                  <table class="hl7__ips">
                     <tr>
                        <td>Neisseria meningitidis antigen-containing vaccine product</td>
                        <td>
                           <span class="nb">03-Jun-2025</span>
                        </td>
                     </tr>
                  </table>
               </div>
            </text>
            <status value="completed"/>
            <vaccineCode>
               <coding>
                  <system value="http://snomed.info/sct"/>
                  <code value="836401009"/>
                  <display value="Vaccine product containing Neisseria meningitidis antigen"/>
               </coding>
               <coding>
                  <system value="http://www.whocc.no/atc"/>
                  <code value="J07AH08"/>
                  <display value="Meningococcal vaccines, conjugated"/>
               </coding>
               <text value="Neisseria meningitidis antigen-containing vaccine product"/>
            </vaccineCode>
            <patient>
               <reference value="urn:uuid:b1fce6b3-5ac6-4c03-9852-a2b82e81ec77"/>
               <display value="Carole Cooke"/>
            </patient>
            <occurrenceDateTime value="2025-06-03"/>
            <lotNumber value="IB-s4cJYIE"/>
            <expirationDate value="2025-09-20"/>
            <site>
               <coding>
                  <system value="http://snomed.info/sct"/>
                  <code value="244979005"/>
                  <display value="Entire muscle of upper arm"/>
               </coding>
               <text value="Entire muscle of upper arm"/>
            </site>
            <route>
               <coding>
                  <system value="http://snomed.info/sct"/>
                  <code value="78421000"/>
                  <display value="Intramuscular route"/>
               </coding>
               <text value="Intramuscular route"/>
            </route>
         </Immunization>
      </resource>
   </entry>
   <entry>
      <fullUrl value="urn:uuid:150bae6b-0c83-49e0-8e87-32724ee6d5e4"/>
      <resource>
         <Immunization>
            <id value="150bae6b-0c83-49e0-8e87-32724ee6d5e4"/>
            <meta>
               <profile value="http://hl7.org/fhir/uv/ips/StructureDefinition/Immunization-uv-ips"/>
            </meta>
            <text>
               <status value="generated"/>
               <div xmlns="http://www.w3.org/1999/xhtml">
                  <table class="hl7__ips">
                     <tr>
                        <td>Influenza virus antigen only vaccine product</td>
                        <td>
                           <span class="nb">03-Jun-2025</span>
                        </td>
                     </tr>
                  </table>
               </div>
            </text>
            <status value="completed"/>
            <vaccineCode>
               <coding>
                  <system value="http://snomed.info/sct"/>
                  <code value="1181000221105"/>
                  <display value="Vaccine product containing Influenza virus antigen"/>
               </coding>
               <coding>
                  <system value="http://www.whocc.no/atc"/>
                  <code value="J07BB02"/>
                  <display value="Influenza, inactivated, split virus"/>
               </coding>
               <text value="Influenza virus antigen only vaccine product"/>
            </vaccineCode>
            <patient>
               <reference value="urn:uuid:b1fce6b3-5ac6-4c03-9852-a2b82e81ec77"/>
               <display value="Carole Cooke"/>
            </patient>
            <occurrenceDateTime value="2025-06-03"/>
            <lotNumber value="GA-vUERKz"/>
            <expirationDate value="2025-08-12"/>
            <site>
               <coding>
                  <system value="http://snomed.info/sct"/>
                  <code value="244979005"/>
                  <display value="Entire muscle of upper arm"/>
               </coding>
               <text value="Entire muscle of upper arm"/>
            </site>
            <route>
               <coding>
                  <system value="http://snomed.info/sct"/>
                  <code value="78421000"/>
                  <display value="Intramuscular route"/>
               </coding>
               <text value="Intramuscular route"/>
            </route>
         </Immunization>
      </resource>
   </entry>
   <entry>
      <fullUrl value="urn:uuid:2cb7dae4-fc8e-46f6-9972-36e5d42941e8"/>
      <resource>
         <Immunization>
            <id value="2cb7dae4-fc8e-46f6-9972-36e5d42941e8"/>
            <meta>
               <profile value="http://hl7.org/fhir/uv/ips/StructureDefinition/Immunization-uv-ips"/>
            </meta>
            <text>
               <status value="generated"/>
               <div xmlns="http://www.w3.org/1999/xhtml">
                  <table class="hl7__ips">
                     <tr>
                        <td>Human papillomavirus 6</td>
                        <td>
                           <span class="nb">26-Apr-2016</span>
                        </td>
                     </tr>
                  </table>
               </div>
            </text>
            <status value="completed"/>
            <vaccineCode>
               <coding>
                  <system value="http://snomed.info/sct"/>
                  <code value="2001000221108"/>
                  <display value="Vaccine product containing HPV 6, 11, 16, and 18 antigens"/>
               </coding>
               <coding>
                  <system value="http://www.whocc.no/atc"/>
                  <code value="J07BM02"/>
                  <display value="Human papillomavirus vaccines"/>
               </coding>
               <text value="Human papillomavirus 6"/>
            </vaccineCode>
            <patient>
               <reference value="urn:uuid:b1fce6b3-5ac6-4c03-9852-a2b82e81ec77"/>
               <display value="Carole Cooke"/>
            </patient>
            <occurrenceDateTime value="2016-04-26"/>
            <lotNumber value="RC-mSTWGL"/>
            <expirationDate value="2016-06-19"/>
            <site>
               <coding>
                  <system value="http://snomed.info/sct"/>
                  <code value="244979005"/>
                  <display value="Entire muscle of upper arm"/>
               </coding>
               <text value="Entire muscle of upper arm"/>
            </site>
            <route>
               <coding>
                  <system value="http://snomed.info/sct"/>
                  <code value="78421000"/>
                  <display value="Intramuscular route"/>
               </coding>
               <text value="Intramuscular route"/>
            </route>
         </Immunization>
      </resource>
   </entry>
   <entry>
      <fullUrl value="urn:uuid:2757e2f0-44b3-4ec5-9d87-053b4b208b52"/>
      <resource>
         <AllergyIntolerance>
            <id value="2757e2f0-44b3-4ec5-9d87-053b4b208b52"/>
            <meta>
               <profile value="http://hl7.eu/fhir/eps/StructureDefinition/allergyIntolerance-eu-eps"/>
            </meta>
            <text>
               <status value="generated"/>
               <div xmlns="http://www.w3.org/1999/xhtml">
                  <table class="hl7__ips">
                     <tr>
                        <th>Allergy/Intolerance</th>
                        <th>Onset Date</th>
                        <th>Status</th>
                        <th>Type</th>
                        <th>Reaction</th>
                     </tr>
                     <tr>
                        <td>Vaccine product containing HPV 6, 11, 16, and 18 antigens</td>
                        <td>?</td>
                        <td>active</td>
                        <td>?</td>
                        <td/>
                     </tr>
                  </table>
               </div>
            </text>
            <clinicalStatus>
               <coding>
                  <system value="http://terminology.hl7.org/CodeSystem/allergyintolerance-clinical"/>
                  <code value="active"/>
               </coding>
            </clinicalStatus>
            <verificationStatus>
               <coding>
                  <system value="http://terminology.hl7.org/CodeSystem/allergyintolerance-verification"/>
                  <code value="confirmed"/>
               </coding>
            </verificationStatus>
            <code>
               <coding>
                  <system value="http://snomed.info/sct"/>
                  <code value="2001000221108"/>
                  <display value="Vaccine product containing HPV 6, 11, 16, and 18 antigens"/>
               </coding>
               <text value="Vaccine product containing HPV 6, 11, 16, and 18 antigens"/>
            </code>
            <patient>
               <reference value="urn:uuid:b1fce6b3-5ac6-4c03-9852-a2b82e81ec77"/>
               <display value="Carole Cooke"/>
            </patient>
            <onsetDateTime>
               <extension url="http://hl7.org/fhir/StructureDefinition/data-absent-reason">
                  <valueCode value="unknown"/>
               </extension>
            </onsetDateTime>
         </AllergyIntolerance>
      </resource>
   </entry>
   <entry>
      <fullUrl value="urn:uuid:936a9a3b-91c1-4898-9d88-0543861eafed"/>
      <resource>
         <Observation>
            <id value="936a9a3b-91c1-4898-9d88-0543861eafed"/>
            <meta>
               <profile value="http://hl7.org/fhir/StructureDefinition/vitalsigns"/>
            </meta>
            <text>
               <status value="generated"/>
               <div xmlns="http://www.w3.org/1999/xhtml">
                  <table class="hl7__ips">
                     <tr>
                        <th>Vital Sign</th>
                        <th>Date</th>
                        <th>Measurement</th>
                     </tr>
                     <tr>
                        <td>Body Height</td>
                        <td>03-Jun-2025</td>
                        <td>159.9 cm</td>
                     </tr>
                  </table>
               </div>
            </text>
            <status value="final"/>
            <category>
               <coding>
                  <system value="http://terminology.hl7.org/CodeSystem/observation-category"/>
                  <code value="vital-signs"/>
                  <display value="Vital Signs"/>
               </coding>
            </category>
            <code>
               <coding>
                  <system value="http://loinc.org"/>
                  <code value="$8302-2"/>
                  <display value="Body Height"/>
               </coding>
            </code>
            <subject>
               <reference value="urn:uuid:b1fce6b3-5ac6-4c03-9852-a2b82e81ec77"/>
               <display value="Carole Cooke"/>
            </subject>
            <effectiveDateTime value="2025-06-03"/>
            <valueQuantity>
               <value value="159.9"/>
               <unit value="cm"/>
               <code value="cm"/>
            </valueQuantity>
         </Observation>
      </resource>
   </entry>
   <entry>
      <fullUrl value="urn:uuid:f8af573e-0e31-4bfc-bf9f-5d277b588310"/>
      <resource>
         <Observation>
            <id value="f8af573e-0e31-4bfc-bf9f-5d277b588310"/>
            <meta>
               <profile value="http://hl7.org/fhir/StructureDefinition/vitalsigns"/>
            </meta>
            <text>
               <status value="generated"/>
               <div xmlns="http://www.w3.org/1999/xhtml">
                  <table class="hl7__ips">
                     <tr>
                        <th>Vital Sign</th>
                        <th>Date</th>
                        <th>Measurement</th>
                     </tr>
                     <tr>
                        <td>Pain severity - 0-10 verbal numeric rating [Score] - Reported</td>
                        <td>03-Jun-2025</td>
                        <td>3 {score}</td>
                     </tr>
                  </table>
               </div>
            </text>
            <status value="final"/>
            <category>
               <coding>
                  <system value="http://terminology.hl7.org/CodeSystem/observation-category"/>
                  <code value="vital-signs"/>
                  <display value="Vital Signs"/>
               </coding>
            </category>
            <code>
               <coding>
                  <system value="http://loinc.org"/>
                  <code value="$72514-3"/>
                  <display value="Pain severity - 0-10 verbal numeric rating [Score] - Reported"/>
               </coding>
            </code>
            <subject>
               <reference value="urn:uuid:b1fce6b3-5ac6-4c03-9852-a2b82e81ec77"/>
               <display value="Carole Cooke"/>
            </subject>
            <effectiveDateTime value="2025-06-03"/>
            <valueQuantity>
               <value value="3"/>
               <unit value="{score}"/>
               <code value="{score}"/>
            </valueQuantity>
         </Observation>
      </resource>
   </entry>
   <entry>
      <fullUrl value="urn:uuid:77d209d3-880c-4060-b0f9-04e51c40e6d2"/>
      <resource>
         <Observation>
            <id value="77d209d3-880c-4060-b0f9-04e51c40e6d2"/>
            <meta>
               <profile value="http://hl7.org/fhir/StructureDefinition/vitalsigns"/>
            </meta>
            <text>
               <status value="generated"/>
               <div xmlns="http://www.w3.org/1999/xhtml">
                  <table class="hl7__ips">
                     <tr>
                        <th>Vital Sign</th>
                        <th>Date</th>
                        <th>Measurement</th>
                     </tr>
                     <tr>
                        <td>Body Weight</td>
                        <td>03-Jun-2025</td>
                        <td>83.1 kg</td>
                     </tr>
                  </table>
               </div>
            </text>
            <status value="final"/>
            <category>
               <coding>
                  <system value="http://terminology.hl7.org/CodeSystem/observation-category"/>
                  <code value="vital-signs"/>
                  <display value="Vital Signs"/>
               </coding>
            </category>
            <code>
               <coding>
                  <system value="http://loinc.org"/>
                  <code value="$29463-7"/>
                  <display value="Body Weight"/>
               </coding>
            </code>
            <subject>
               <reference value="urn:uuid:b1fce6b3-5ac6-4c03-9852-a2b82e81ec77"/>
               <display value="Carole Cooke"/>
            </subject>
            <effectiveDateTime value="2025-06-03"/>
            <valueQuantity>
               <value value="83.1"/>
               <unit value="kg"/>
               <code value="kg"/>
            </valueQuantity>
         </Observation>
      </resource>
   </entry>
   <entry>
      <fullUrl value="urn:uuid:6e8d9125-3a58-4aee-a41f-70033cdc398c"/>
      <resource>
         <Observation>
            <id value="6e8d9125-3a58-4aee-a41f-70033cdc398c"/>
            <meta>
               <profile value="http://hl7.org/fhir/StructureDefinition/vitalsigns"/>
            </meta>
            <text>
               <status value="generated"/>
               <div xmlns="http://www.w3.org/1999/xhtml">
                  <table class="hl7__ips">
                     <tr>
                        <th>Vital Sign</th>
                        <th>Date</th>
                        <th>Measurement</th>
                     </tr>
                     <tr>
                        <td>Body mass index (BMI) [Ratio]</td>
                        <td>03-Jun-2025</td>
                        <td>32.5 kg/m2</td>
                     </tr>
                  </table>
               </div>
            </text>
            <status value="final"/>
            <category>
               <coding>
                  <system value="http://terminology.hl7.org/CodeSystem/observation-category"/>
                  <code value="vital-signs"/>
                  <display value="Vital Signs"/>
               </coding>
            </category>
            <code>
               <coding>
                  <system value="http://loinc.org"/>
                  <code value="$39156-5"/>
                  <display value="Body mass index (BMI) [Ratio]"/>
               </coding>
            </code>
            <subject>
               <reference value="urn:uuid:b1fce6b3-5ac6-4c03-9852-a2b82e81ec77"/>
               <display value="Carole Cooke"/>
            </subject>
            <effectiveDateTime value="2025-06-03"/>
            <valueQuantity>
               <value value="32.5"/>
               <unit value="kg/m2"/>
               <code value="kg/m2"/>
            </valueQuantity>
         </Observation>
      </resource>
   </entry>
   <entry>
      <fullUrl value="urn:uuid:3a154ec6-2281-44fa-8e8a-57efb4d8de67"/>
      <resource>
         <Observation>
            <id value="3a154ec6-2281-44fa-8e8a-57efb4d8de67"/>
            <meta>
               <profile value="http://hl7.org/fhir/StructureDefinition/vitalsigns"/>
            </meta>
            <text>
               <status value="generated"/>
               <div xmlns="http://www.w3.org/1999/xhtml">
                  <table class="hl7__ips">
                     <tr>
                        <th>Vital Sign</th>
                        <th>Date</th>
                        <th>Measurement</th>
                     </tr>
                     <tr>
                        <td>Diastolic Blood Pressure</td>
                        <td>03-Jun-2025</td>
                        <td>71 mm[Hg]</td>
                     </tr>
                  </table>
               </div>
            </text>
            <status value="final"/>
            <category>
               <coding>
                  <system value="http://terminology.hl7.org/CodeSystem/observation-category"/>
                  <code value="vital-signs"/>
                  <display value="Vital Signs"/>
               </coding>
            </category>
            <code>
               <coding>
                  <system value="http://loinc.org"/>
                  <code value="$8462-4"/>
                  <display value="Diastolic Blood Pressure"/>
               </coding>
            </code>
            <subject>
               <reference value="urn:uuid:b1fce6b3-5ac6-4c03-9852-a2b82e81ec77"/>
               <display value="Carole Cooke"/>
            </subject>
            <effectiveDateTime value="2025-06-03"/>
            <valueQuantity>
               <value value="71"/>
               <unit value="mm[Hg]"/>
               <code value="mm[Hg]"/>
            </valueQuantity>
         </Observation>
      </resource>
   </entry>
   <entry>
      <fullUrl value="urn:uuid:bb24ca72-f38a-4fc3-b8d2-c3dd36176ade"/>
      <resource>
         <Observation>
            <id value="bb24ca72-f38a-4fc3-b8d2-c3dd36176ade"/>
            <meta>
               <profile value="http://hl7.org/fhir/StructureDefinition/vitalsigns"/>
            </meta>
            <text>
               <status value="generated"/>
               <div xmlns="http://www.w3.org/1999/xhtml">
                  <table class="hl7__ips">
                     <tr>
                        <th>Vital Sign</th>
                        <th>Date</th>
                        <th>Measurement</th>
                     </tr>
                     <tr>
                        <td>Systolic Blood Pressure</td>
                        <td>03-Jun-2025</td>
                        <td>135 mm[Hg]</td>
                     </tr>
                  </table>
               </div>
            </text>
            <status value="final"/>
            <category>
               <coding>
                  <system value="http://terminology.hl7.org/CodeSystem/observation-category"/>
                  <code value="vital-signs"/>
                  <display value="Vital Signs"/>
               </coding>
            </category>
            <code>
               <coding>
                  <system value="http://loinc.org"/>
                  <code value="$8480-6"/>
                  <display value="Systolic Blood Pressure"/>
               </coding>
            </code>
            <subject>
               <reference value="urn:uuid:b1fce6b3-5ac6-4c03-9852-a2b82e81ec77"/>
               <display value="Carole Cooke"/>
            </subject>
            <effectiveDateTime value="2025-06-03"/>
            <valueQuantity>
               <value value="135"/>
               <unit value="mm[Hg]"/>
               <code value="mm[Hg]"/>
            </valueQuantity>
         </Observation>
      </resource>
   </entry>
   <entry>
      <fullUrl value="urn:uuid:e185c046-2dfa-4a5c-ad6e-4baf5007a97c"/>
      <resource>
         <Observation>
            <id value="e185c046-2dfa-4a5c-ad6e-4baf5007a97c"/>
            <meta>
               <profile value="http://hl7.org/fhir/StructureDefinition/vitalsigns"/>
            </meta>
            <text>
               <status value="generated"/>
               <div xmlns="http://www.w3.org/1999/xhtml">
                  <table class="hl7__ips">
                     <tr>
                        <th>Vital Sign</th>
                        <th>Date</th>
                        <th>Measurement</th>
                     </tr>
                     <tr>
                        <td>Heart rate</td>
                        <td>03-Jun-2025</td>
                        <td>69 /min</td>
                     </tr>
                  </table>
               </div>
            </text>
            <status value="final"/>
            <category>
               <coding>
                  <system value="http://terminology.hl7.org/CodeSystem/observation-category"/>
                  <code value="vital-signs"/>
                  <display value="Vital Signs"/>
               </coding>
            </category>
            <code>
               <coding>
                  <system value="http://loinc.org"/>
                  <code value="$8867-4"/>
                  <display value="Heart rate"/>
               </coding>
            </code>
            <subject>
               <reference value="urn:uuid:b1fce6b3-5ac6-4c03-9852-a2b82e81ec77"/>
               <display value="Carole Cooke"/>
            </subject>
            <effectiveDateTime value="2025-06-03"/>
            <valueQuantity>
               <value value="69"/>
               <unit value="/min"/>
               <code value="/min"/>
            </valueQuantity>
         </Observation>
      </resource>
   </entry>
   <entry>
      <fullUrl value="urn:uuid:2102dd86-d740-41c0-b2d8-bb67a28999f7"/>
      <resource>
         <Observation>
            <id value="2102dd86-d740-41c0-b2d8-bb67a28999f7"/>
            <meta>
               <profile value="http://hl7.org/fhir/StructureDefinition/vitalsigns"/>
            </meta>
            <text>
               <status value="generated"/>
               <div xmlns="http://www.w3.org/1999/xhtml">
                  <table class="hl7__ips">
                     <tr>
                        <th>Vital Sign</th>
                        <th>Date</th>
                        <th>Measurement</th>
                     </tr>
                     <tr>
                        <td>Respiratory rate</td>
                        <td>03-Jun-2025</td>
                        <td>14 /min</td>
                     </tr>
                  </table>
               </div>
            </text>
            <status value="final"/>
            <category>
               <coding>
                  <system value="http://terminology.hl7.org/CodeSystem/observation-category"/>
                  <code value="vital-signs"/>
                  <display value="Vital Signs"/>
               </coding>
            </category>
            <code>
               <coding>
                  <system value="http://loinc.org"/>
                  <code value="$9279-1"/>
                  <display value="Respiratory rate"/>
               </coding>
            </code>
            <subject>
               <reference value="urn:uuid:b1fce6b3-5ac6-4c03-9852-a2b82e81ec77"/>
               <display value="Carole Cooke"/>
            </subject>
            <effectiveDateTime value="2025-06-03"/>
            <valueQuantity>
               <value value="14"/>
               <unit value="/min"/>
               <code value="/min"/>
            </valueQuantity>
         </Observation>
      </resource>
   </entry>
   <entry>
      <fullUrl value="urn:uuid:f93a520a-5c2a-4815-9788-7b63296de7fd"/>
      <resource>
         <Observation>
            <id value="f93a520a-5c2a-4815-9788-7b63296de7fd"/>
            <meta>
               <profile value="http://hl7.org/fhir/StructureDefinition/vitalsigns"/>
            </meta>
            <text>
               <status value="generated"/>
               <div xmlns="http://www.w3.org/1999/xhtml">
                  <table class="hl7__ips">
                     <tr>
                        <th>Vital Sign</th>
                        <th>Date</th>
                        <th>Measurement</th>
                     </tr>
                     <tr>
                        <td>Body Height</td>
                        <td>31-May-2022</td>
                        <td>159.9 cm</td>
                     </tr>
                  </table>
               </div>
            </text>
            <status value="final"/>
            <category>
               <coding>
                  <system value="http://terminology.hl7.org/CodeSystem/observation-category"/>
                  <code value="vital-signs"/>
                  <display value="Vital Signs"/>
               </coding>
            </category>
            <code>
               <coding>
                  <system value="http://loinc.org"/>
                  <code value="$8302-2"/>
                  <display value="Body Height"/>
               </coding>
            </code>
            <subject>
               <reference value="urn:uuid:b1fce6b3-5ac6-4c03-9852-a2b82e81ec77"/>
               <display value="Carole Cooke"/>
            </subject>
            <effectiveDateTime value="2022-05-31"/>
            <valueQuantity>
               <value value="159.9"/>
               <unit value="cm"/>
               <code value="cm"/>
            </valueQuantity>
         </Observation>
      </resource>
   </entry>
   <entry>
      <fullUrl value="urn:uuid:48a4e08f-42b3-4c8f-b895-edc94049b939"/>
      <resource>
         <Observation>
            <id value="48a4e08f-42b3-4c8f-b895-edc94049b939"/>
            <meta>
               <profile value="http://hl7.org/fhir/StructureDefinition/vitalsigns"/>
            </meta>
            <text>
               <status value="generated"/>
               <div xmlns="http://www.w3.org/1999/xhtml">
                  <table class="hl7__ips">
                     <tr>
                        <th>Vital Sign</th>
                        <th>Date</th>
                        <th>Measurement</th>
                     </tr>
                     <tr>
                        <td>Pain severity - 0-10 verbal numeric rating [Score] - Reported</td>
                        <td>31-May-2022</td>
                        <td>0 {score}</td>
                     </tr>
                  </table>
               </div>
            </text>
            <status value="final"/>
            <category>
               <coding>
                  <system value="http://terminology.hl7.org/CodeSystem/observation-category"/>
                  <code value="vital-signs"/>
                  <display value="Vital Signs"/>
               </coding>
            </category>
            <code>
               <coding>
                  <system value="http://loinc.org"/>
                  <code value="$72514-3"/>
                  <display value="Pain severity - 0-10 verbal numeric rating [Score] - Reported"/>
               </coding>
            </code>
            <subject>
               <reference value="urn:uuid:b1fce6b3-5ac6-4c03-9852-a2b82e81ec77"/>
               <display value="Carole Cooke"/>
            </subject>
            <effectiveDateTime value="2022-05-31"/>
            <valueQuantity>
               <value value="0"/>
               <unit value="{score}"/>
               <code value="{score}"/>
            </valueQuantity>
         </Observation>
      </resource>
   </entry>
   <entry>
      <fullUrl value="urn:uuid:5ac5b5cf-e655-4ff2-9855-2a57a889a7f7"/>
      <resource>
         <Observation>
            <id value="5ac5b5cf-e655-4ff2-9855-2a57a889a7f7"/>
            <meta>
               <profile value="http://hl7.org/fhir/StructureDefinition/vitalsigns"/>
            </meta>
            <text>
               <status value="generated"/>
               <div xmlns="http://www.w3.org/1999/xhtml">
                  <table class="hl7__ips">
                     <tr>
                        <th>Vital Sign</th>
                        <th>Date</th>
                        <th>Measurement</th>
                     </tr>
                     <tr>
                        <td>Body Weight</td>
                        <td>31-May-2022</td>
                        <td>89.3 kg</td>
                     </tr>
                  </table>
               </div>
            </text>
            <status value="final"/>
            <category>
               <coding>
                  <system value="http://terminology.hl7.org/CodeSystem/observation-category"/>
                  <code value="vital-signs"/>
                  <display value="Vital Signs"/>
               </coding>
            </category>
            <code>
               <coding>
                  <system value="http://loinc.org"/>
                  <code value="$29463-7"/>
                  <display value="Body Weight"/>
               </coding>
            </code>
            <subject>
               <reference value="urn:uuid:b1fce6b3-5ac6-4c03-9852-a2b82e81ec77"/>
               <display value="Carole Cooke"/>
            </subject>
            <effectiveDateTime value="2022-05-31"/>
            <valueQuantity>
               <value value="89.3"/>
               <unit value="kg"/>
               <code value="kg"/>
            </valueQuantity>
         </Observation>
      </resource>
   </entry>
   <entry>
      <fullUrl value="urn:uuid:f142e3a2-7a92-4356-be6b-5bbf0dbb69a8"/>
      <resource>
         <Observation>
            <id value="f142e3a2-7a92-4356-be6b-5bbf0dbb69a8"/>
            <meta>
               <profile value="http://hl7.org/fhir/StructureDefinition/vitalsigns"/>
            </meta>
            <text>
               <status value="generated"/>
               <div xmlns="http://www.w3.org/1999/xhtml">
                  <table class="hl7__ips">
                     <tr>
                        <th>Vital Sign</th>
                        <th>Date</th>
                        <th>Measurement</th>
                     </tr>
                     <tr>
                        <td>Body mass index (BMI) [Ratio]</td>
                        <td>31-May-2022</td>
                        <td>34.9 kg/m2</td>
                     </tr>
                  </table>
               </div>
            </text>
            <status value="final"/>
            <category>
               <coding>
                  <system value="http://terminology.hl7.org/CodeSystem/observation-category"/>
                  <code value="vital-signs"/>
                  <display value="Vital Signs"/>
               </coding>
            </category>
            <code>
               <coding>
                  <system value="http://loinc.org"/>
                  <code value="$39156-5"/>
                  <display value="Body mass index (BMI) [Ratio]"/>
               </coding>
            </code>
            <subject>
               <reference value="urn:uuid:b1fce6b3-5ac6-4c03-9852-a2b82e81ec77"/>
               <display value="Carole Cooke"/>
            </subject>
            <effectiveDateTime value="2022-05-31"/>
            <valueQuantity>
               <value value="34.9"/>
               <unit value="kg/m2"/>
               <code value="kg/m2"/>
            </valueQuantity>
         </Observation>
      </resource>
   </entry>
   <entry>
      <fullUrl value="urn:uuid:4eea0c64-8bc1-4134-91a7-5573abe16fc5"/>
      <resource>
         <Observation>
            <id value="4eea0c64-8bc1-4134-91a7-5573abe16fc5"/>
            <meta>
               <profile value="http://hl7.org/fhir/StructureDefinition/vitalsigns"/>
            </meta>
            <text>
               <status value="generated"/>
               <div xmlns="http://www.w3.org/1999/xhtml">
                  <table class="hl7__ips">
                     <tr>
                        <th>Vital Sign</th>
                        <th>Date</th>
                        <th>Measurement</th>
                     </tr>
                     <tr>
                        <td>Body mass index (BMI) [Percentile] Per age and sex</td>
                        <td>31-May-2022</td>
                        <td>97.3 %</td>
                     </tr>
                  </table>
               </div>
            </text>
            <status value="final"/>
            <category>
               <coding>
                  <system value="http://terminology.hl7.org/CodeSystem/observation-category"/>
                  <code value="vital-signs"/>
                  <display value="Vital Signs"/>
               </coding>
            </category>
            <code>
               <coding>
                  <system value="http://loinc.org"/>
                  <code value="$59576-9"/>
                  <display value="Body mass index (BMI) [Percentile] Per age and sex"/>
               </coding>
            </code>
            <subject>
               <reference value="urn:uuid:b1fce6b3-5ac6-4c03-9852-a2b82e81ec77"/>
               <display value="Carole Cooke"/>
            </subject>
            <effectiveDateTime value="2022-05-31"/>
            <valueQuantity>
               <value value="97.3"/>
               <unit value="%"/>
               <code value="%"/>
            </valueQuantity>
         </Observation>
      </resource>
   </entry>
   <entry>
      <fullUrl value="urn:uuid:3f62238e-b118-4300-925b-f810f683a9a3"/>
      <resource>
         <Observation>
            <id value="3f62238e-b118-4300-925b-f810f683a9a3"/>
            <meta>
               <profile value="http://hl7.org/fhir/StructureDefinition/vitalsigns"/>
            </meta>
            <text>
               <status value="generated"/>
               <div xmlns="http://www.w3.org/1999/xhtml">
                  <table class="hl7__ips">
                     <tr>
                        <th>Vital Sign</th>
                        <th>Date</th>
                        <th>Measurement</th>
                     </tr>
                     <tr>
                        <td>Diastolic Blood Pressure</td>
                        <td>31-May-2022</td>
                        <td>76 mm[Hg]</td>
                     </tr>
                  </table>
               </div>
            </text>
            <status value="final"/>
            <category>
               <coding>
                  <system value="http://terminology.hl7.org/CodeSystem/observation-category"/>
                  <code value="vital-signs"/>
                  <display value="Vital Signs"/>
               </coding>
            </category>
            <code>
               <coding>
                  <system value="http://loinc.org"/>
                  <code value="$8462-4"/>
                  <display value="Diastolic Blood Pressure"/>
               </coding>
            </code>
            <subject>
               <reference value="urn:uuid:b1fce6b3-5ac6-4c03-9852-a2b82e81ec77"/>
               <display value="Carole Cooke"/>
            </subject>
            <effectiveDateTime value="2022-05-31"/>
            <valueQuantity>
               <value value="76"/>
               <unit value="mm[Hg]"/>
               <code value="mm[Hg]"/>
            </valueQuantity>
         </Observation>
      </resource>
   </entry>
   <entry>
      <fullUrl value="urn:uuid:e1a268fa-7ab7-48e7-ad42-bc9a9bdff76d"/>
      <resource>
         <Observation>
            <id value="e1a268fa-7ab7-48e7-ad42-bc9a9bdff76d"/>
            <meta>
               <profile value="http://hl7.org/fhir/StructureDefinition/vitalsigns"/>
            </meta>
            <text>
               <status value="generated"/>
               <div xmlns="http://www.w3.org/1999/xhtml">
                  <table class="hl7__ips">
                     <tr>
                        <th>Vital Sign</th>
                        <th>Date</th>
                        <th>Measurement</th>
                     </tr>
                     <tr>
                        <td>Systolic Blood Pressure</td>
                        <td>31-May-2022</td>
                        <td>135 mm[Hg]</td>
                     </tr>
                  </table>
               </div>
            </text>
            <status value="final"/>
            <category>
               <coding>
                  <system value="http://terminology.hl7.org/CodeSystem/observation-category"/>
                  <code value="vital-signs"/>
                  <display value="Vital Signs"/>
               </coding>
            </category>
            <code>
               <coding>
                  <system value="http://loinc.org"/>
                  <code value="$8480-6"/>
                  <display value="Systolic Blood Pressure"/>
               </coding>
            </code>
            <subject>
               <reference value="urn:uuid:b1fce6b3-5ac6-4c03-9852-a2b82e81ec77"/>
               <display value="Carole Cooke"/>
            </subject>
            <effectiveDateTime value="2022-05-31"/>
            <valueQuantity>
               <value value="135"/>
               <unit value="mm[Hg]"/>
               <code value="mm[Hg]"/>
            </valueQuantity>
         </Observation>
      </resource>
   </entry>
   <entry>
      <fullUrl value="urn:uuid:0b8fc952-b8b6-4c30-bc08-9a6cc6748276"/>
      <resource>
         <Observation>
            <id value="0b8fc952-b8b6-4c30-bc08-9a6cc6748276"/>
            <meta>
               <profile value="http://hl7.org/fhir/StructureDefinition/vitalsigns"/>
            </meta>
            <text>
               <status value="generated"/>
               <div xmlns="http://www.w3.org/1999/xhtml">
                  <table class="hl7__ips">
                     <tr>
                        <th>Vital Sign</th>
                        <th>Date</th>
                        <th>Measurement</th>
                     </tr>
                     <tr>
                        <td>Heart rate</td>
                        <td>31-May-2022</td>
                        <td>94 /min</td>
                     </tr>
                  </table>
               </div>
            </text>
            <status value="final"/>
            <category>
               <coding>
                  <system value="http://terminology.hl7.org/CodeSystem/observation-category"/>
                  <code value="vital-signs"/>
                  <display value="Vital Signs"/>
               </coding>
            </category>
            <code>
               <coding>
                  <system value="http://loinc.org"/>
                  <code value="$8867-4"/>
                  <display value="Heart rate"/>
               </coding>
            </code>
            <subject>
               <reference value="urn:uuid:b1fce6b3-5ac6-4c03-9852-a2b82e81ec77"/>
               <display value="Carole Cooke"/>
            </subject>
            <effectiveDateTime value="2022-05-31"/>
            <valueQuantity>
               <value value="94"/>
               <unit value="/min"/>
               <code value="/min"/>
            </valueQuantity>
         </Observation>
      </resource>
   </entry>
   <entry>
      <fullUrl value="urn:uuid:5b4afcd2-be66-4add-aa87-1544b18ef52e"/>
      <resource>
         <Observation>
            <id value="5b4afcd2-be66-4add-aa87-1544b18ef52e"/>
            <meta>
               <profile value="http://hl7.org/fhir/StructureDefinition/vitalsigns"/>
            </meta>
            <text>
               <status value="generated"/>
               <div xmlns="http://www.w3.org/1999/xhtml">
                  <table class="hl7__ips">
                     <tr>
                        <th>Vital Sign</th>
                        <th>Date</th>
                        <th>Measurement</th>
                     </tr>
                     <tr>
                        <td>Respiratory rate</td>
                        <td>31-May-2022</td>
                        <td>16 /min</td>
                     </tr>
                  </table>
               </div>
            </text>
            <status value="final"/>
            <category>
               <coding>
                  <system value="http://terminology.hl7.org/CodeSystem/observation-category"/>
                  <code value="vital-signs"/>
                  <display value="Vital Signs"/>
               </coding>
            </category>
            <code>
               <coding>
                  <system value="http://loinc.org"/>
                  <code value="$9279-1"/>
                  <display value="Respiratory rate"/>
               </coding>
            </code>
            <subject>
               <reference value="urn:uuid:b1fce6b3-5ac6-4c03-9852-a2b82e81ec77"/>
               <display value="Carole Cooke"/>
            </subject>
            <effectiveDateTime value="2022-05-31"/>
            <valueQuantity>
               <value value="16"/>
               <unit value="/min"/>
               <code value="/min"/>
            </valueQuantity>
         </Observation>
      </resource>
   </entry>
   <entry>
      <fullUrl value="urn:uuid:1512685b-89f1-4504-82b5-f8b17713e242"/>
      <resource>
         <Observation>
            <id value="1512685b-89f1-4504-82b5-f8b17713e242"/>
            <meta>
               <profile value="http://hl7.eu/fhir/laboratory/StructureDefinition/Observation-resultslab-eu-lab"/>
            </meta>
            <text>
               <status value="generated"/>
               <div xmlns="http://www.w3.org/1999/xhtml">
                  <table class="hl7__eu__lab__report">
                     <tr>
                        <th>Test</th>
                        <th>03-Jun-2025</th>
                        <th>Reference Range</th>
                        <th>Unit</th>
                     </tr>
                     <tr>
                        <td>Leukocytes [#/volume] in Blood by Automated count</td>
                        <td>3.7</td>
                        <td>3.6 - 10.5</td>
                        <td/>
                        <td>10*3/uL</td>
                     </tr>
                  </table>
               </div>
            </text>
            <status value="final"/>
            <category>
               <coding>
                  <system value="http://terminology.hl7.org/CodeSystem/observation-category"/>
                  <code value="laboratory"/>
               </coding>
            </category>
            <code>
               <coding>
                  <system value="http://loinc.org"/>
                  <code value="6690-2"/>
                  <display value="Leukocytes [#/volume] in Blood by Automated count"/>
               </coding>
               <text value="Leukocytes [#/volume] in Blood by Automated count"/>
            </code>
            <subject>
               <reference value="urn:uuid:b1fce6b3-5ac6-4c03-9852-a2b82e81ec77"/>
               <display value="Carole Cooke"/>
            </subject>
            <effectiveDateTime value="2025-06-03T04:55:51Z"/>
            <performer>
               <display value="The Central European Lab"/>
            </performer>
            <valueQuantity>
               <value value="3.7"/>
               <unit value="10*3/uL"/>
               <system value="http://unitsofmeasure.org"/>
               <code value="10*3/uL"/>
            </valueQuantity>
            <referenceRange>
               <low>
                  <value value="3.6"/>
                  <system value="http://unitsofmeasure.org"/>
                  <code value="10*3/uL"/>
               </low>
            </referenceRange>
            <referenceRange>
               <high>
                  <value value="10.5"/>
                  <system value="http://unitsofmeasure.org"/>
                  <code value="10*3/uL"/>
               </high>
            </referenceRange>
         </Observation>
      </resource>
   </entry>
   <entry>
      <fullUrl value="urn:uuid:885012e2-3999-4a7f-8e95-3fbce1eae767"/>
      <resource>
         <Observation>
            <id value="885012e2-3999-4a7f-8e95-3fbce1eae767"/>
            <meta>
               <profile value="http://hl7.eu/fhir/laboratory/StructureDefinition/Observation-resultslab-eu-lab"/>
            </meta>
            <text>
               <status value="generated"/>
               <div xmlns="http://www.w3.org/1999/xhtml">
                  <table class="hl7__eu__lab__report">
                     <tr>
                        <th>Test</th>
                        <th>03-Jun-2025</th>
                        <th>Reference Range</th>
                        <th>Unit</th>
                     </tr>
                     <tr>
                        <td>Erythrocytes [#/volume] in Blood by Automated count</td>
                        <td>5.1</td>
                        <td>4.5 - 5.5</td>
                        <td/>
                        <td>10*6/uL</td>
                     </tr>
                  </table>
               </div>
            </text>
            <status value="final"/>
            <category>
               <coding>
                  <system value="http://terminology.hl7.org/CodeSystem/observation-category"/>
                  <code value="laboratory"/>
               </coding>
            </category>
            <code>
               <coding>
                  <system value="http://loinc.org"/>
                  <code value="789-8"/>
                  <display value="Erythrocytes [#/volume] in Blood by Automated count"/>
               </coding>
               <text value="Erythrocytes [#/volume] in Blood by Automated count"/>
            </code>
            <subject>
               <reference value="urn:uuid:b1fce6b3-5ac6-4c03-9852-a2b82e81ec77"/>
               <display value="Carole Cooke"/>
            </subject>
            <effectiveDateTime value="2025-06-03T04:55:51Z"/>
            <performer>
               <display value="The Central European Lab"/>
            </performer>
            <valueQuantity>
               <value value="5.1"/>
               <unit value="10*6/uL"/>
               <system value="http://unitsofmeasure.org"/>
               <code value="10*6/uL"/>
            </valueQuantity>
            <referenceRange>
               <low>
                  <value value="4.5"/>
                  <system value="http://unitsofmeasure.org"/>
                  <code value="10*6/uL"/>
               </low>
            </referenceRange>
            <referenceRange>
               <high>
                  <value value="5.5"/>
                  <system value="http://unitsofmeasure.org"/>
                  <code value="10*6/uL"/>
               </high>
            </referenceRange>
         </Observation>
      </resource>
   </entry>
   <entry>
      <fullUrl value="urn:uuid:6b4a3ba4-f29a-4bd0-836c-f2008ab64e34"/>
      <resource>
         <Observation>
            <id value="6b4a3ba4-f29a-4bd0-836c-f2008ab64e34"/>
            <meta>
               <profile value="http://hl7.eu/fhir/laboratory/StructureDefinition/Observation-resultslab-eu-lab"/>
            </meta>
            <text>
               <status value="generated"/>
               <div xmlns="http://www.w3.org/1999/xhtml">
                  <table class="hl7__eu__lab__report">
                     <tr>
                        <th>Test</th>
                        <th>03-Jun-2025</th>
                        <th>Reference Range</th>
                        <th>Unit</th>
                     </tr>
                     <tr>
                        <td>Hemoglobin [Mass/volume] in Blood</td>
                        <td>16.1</td>
                        <td>12 - 16</td>
                        <td>H</td>
                        <td>g/dL</td>
                     </tr>
                  </table>
               </div>
            </text>
            <status value="final"/>
            <category>
               <coding>
                  <system value="http://terminology.hl7.org/CodeSystem/observation-category"/>
                  <code value="laboratory"/>
               </coding>
            </category>
            <code>
               <coding>
                  <system value="http://loinc.org"/>
                  <code value="718-7"/>
                  <display value="Hemoglobin [Mass/volume] in Blood"/>
               </coding>
               <text value="Hemoglobin [Mass/volume] in Blood"/>
            </code>
            <subject>
               <reference value="urn:uuid:b1fce6b3-5ac6-4c03-9852-a2b82e81ec77"/>
               <display value="Carole Cooke"/>
            </subject>
            <effectiveDateTime value="2025-06-03T04:55:51Z"/>
            <performer>
               <display value="The Central European Lab"/>
            </performer>
            <valueQuantity>
               <value value="16.1"/>
               <unit value="g/dL"/>
               <system value="http://unitsofmeasure.org"/>
               <code value="g/dL"/>
            </valueQuantity>
            <interpretation>
               <coding>
                  <system value="http://terminology.hl7.org/CodeSystem/v3-ObservationInterpretation"/>
                  <code value="H"/>
                  <display value="High"/>
               </coding>
            </interpretation>
            <referenceRange>
               <low>
                  <value value="12"/>
                  <system value="http://unitsofmeasure.org"/>
                  <code value="g/dL"/>
               </low>
            </referenceRange>
            <referenceRange>
               <high>
                  <value value="16"/>
                  <system value="http://unitsofmeasure.org"/>
                  <code value="g/dL"/>
               </high>
            </referenceRange>
         </Observation>
      </resource>
   </entry>
   <entry>
      <fullUrl value="urn:uuid:d4ab0012-139e-44c2-90f5-c348dfe7ffb2"/>
      <resource>
         <Observation>
            <id value="d4ab0012-139e-44c2-90f5-c348dfe7ffb2"/>
            <meta>
               <profile value="http://hl7.eu/fhir/laboratory/StructureDefinition/Observation-resultslab-eu-lab"/>
            </meta>
            <text>
               <status value="generated"/>
               <div xmlns="http://www.w3.org/1999/xhtml">
                  <table class="hl7__eu__lab__report">
                     <tr>
                        <th>Test</th>
                        <th>03-Jun-2025</th>
                        <th>Reference Range</th>
                        <th>Unit</th>
                     </tr>
                     <tr>
                        <td>Hematocrit [Volume Fraction] of Blood by Automated count</td>
                        <td>39.3</td>
                        <td>36 - 48</td>
                        <td/>
                        <td>%</td>
                     </tr>
                  </table>
               </div>
            </text>
            <status value="final"/>
            <category>
               <coding>
                  <system value="http://terminology.hl7.org/CodeSystem/observation-category"/>
                  <code value="laboratory"/>
               </coding>
            </category>
            <code>
               <coding>
                  <system value="http://loinc.org"/>
                  <code value="4544-3"/>
                  <display value="Hematocrit [Volume Fraction] of Blood by Automated count"/>
               </coding>
               <text value="Hematocrit [Volume Fraction] of Blood by Automated count"/>
            </code>
            <subject>
               <reference value="urn:uuid:b1fce6b3-5ac6-4c03-9852-a2b82e81ec77"/>
               <display value="Carole Cooke"/>
            </subject>
            <effectiveDateTime value="2025-06-03T04:55:51Z"/>
            <performer>
               <display value="The Central European Lab"/>
            </performer>
            <valueQuantity>
               <value value="39.3"/>
               <unit value="%"/>
               <system value="http://unitsofmeasure.org"/>
               <code value="%"/>
            </valueQuantity>
            <referenceRange>
               <low>
                  <value value="36"/>
                  <system value="http://unitsofmeasure.org"/>
                  <code value="%"/>
               </low>
            </referenceRange>
            <referenceRange>
               <high>
                  <value value="48"/>
                  <system value="http://unitsofmeasure.org"/>
                  <code value="%"/>
               </high>
            </referenceRange>
         </Observation>
      </resource>
   </entry>
   <entry>
      <fullUrl value="urn:uuid:f9237016-1220-4b6d-a9c3-0d002bd4a8f0"/>
      <resource>
         <Observation>
            <id value="f9237016-1220-4b6d-a9c3-0d002bd4a8f0"/>
            <meta>
               <profile value="http://hl7.eu/fhir/laboratory/StructureDefinition/Observation-resultslab-eu-lab"/>
            </meta>
            <text>
               <status value="generated"/>
               <div xmlns="http://www.w3.org/1999/xhtml">
                  <table class="hl7__eu__lab__report">
                     <tr>
                        <th>Test</th>
                        <th>03-Jun-2025</th>
                        <th>Reference Range</th>
                        <th>Unit</th>
                     </tr>
                     <tr>
                        <td>MCV [Entitic volume] by Automated count</td>
                        <td>89.0</td>
                        <td>78 - 98</td>
                        <td/>
                        <td>fL</td>
                     </tr>
                  </table>
               </div>
            </text>
            <status value="final"/>
            <category>
               <coding>
                  <system value="http://terminology.hl7.org/CodeSystem/observation-category"/>
                  <code value="laboratory"/>
               </coding>
            </category>
            <code>
               <coding>
                  <system value="http://loinc.org"/>
                  <code value="787-2"/>
                  <display value="MCV [Entitic volume] by Automated count"/>
               </coding>
               <text value="MCV [Entitic volume] by Automated count"/>
            </code>
            <subject>
               <reference value="urn:uuid:b1fce6b3-5ac6-4c03-9852-a2b82e81ec77"/>
               <display value="Carole Cooke"/>
            </subject>
            <effectiveDateTime value="2025-06-03T04:55:51Z"/>
            <performer>
               <display value="The Central European Lab"/>
            </performer>
            <valueQuantity>
               <value value="89"/>
               <unit value="fL"/>
               <system value="http://unitsofmeasure.org"/>
               <code value="fL"/>
            </valueQuantity>
            <referenceRange>
               <low>
                  <value value="78"/>
                  <system value="http://unitsofmeasure.org"/>
                  <code value="fL"/>
               </low>
            </referenceRange>
            <referenceRange>
               <high>
                  <value value="98"/>
                  <system value="http://unitsofmeasure.org"/>
                  <code value="fL"/>
               </high>
            </referenceRange>
         </Observation>
      </resource>
   </entry>
   <entry>
      <fullUrl value="urn:uuid:8881ca8c-3c56-45c7-9647-c37c7021433f"/>
      <resource>
         <Observation>
            <id value="8881ca8c-3c56-45c7-9647-c37c7021433f"/>
            <meta>
               <profile value="http://hl7.eu/fhir/laboratory/StructureDefinition/Observation-resultslab-eu-lab"/>
            </meta>
            <text>
               <status value="generated"/>
               <div xmlns="http://www.w3.org/1999/xhtml">
                  <table class="hl7__eu__lab__report">
                     <tr>
                        <th>Test</th>
                        <th>03-Jun-2025</th>
                        <th>Reference Range</th>
                        <th>Unit</th>
                     </tr>
                     <tr>
                        <td>MCH [Entitic mass] by Automated count</td>
                        <td>28.0</td>
                        <td>27 - 33</td>
                        <td/>
                        <td>pg</td>
                     </tr>
                  </table>
               </div>
            </text>
            <status value="final"/>
            <category>
               <coding>
                  <system value="http://terminology.hl7.org/CodeSystem/observation-category"/>
                  <code value="laboratory"/>
               </coding>
            </category>
            <code>
               <coding>
                  <system value="http://loinc.org"/>
                  <code value="785-6"/>
                  <display value="MCH [Entitic mass] by Automated count"/>
               </coding>
               <text value="MCH [Entitic mass] by Automated count"/>
            </code>
            <subject>
               <reference value="urn:uuid:b1fce6b3-5ac6-4c03-9852-a2b82e81ec77"/>
               <display value="Carole Cooke"/>
            </subject>
            <effectiveDateTime value="2025-06-03T04:55:51Z"/>
            <performer>
               <display value="The Central European Lab"/>
            </performer>
            <valueQuantity>
               <value value="28"/>
               <unit value="pg"/>
               <system value="http://unitsofmeasure.org"/>
               <code value="pg"/>
            </valueQuantity>
            <referenceRange>
               <low>
                  <value value="27"/>
                  <system value="http://unitsofmeasure.org"/>
                  <code value="pg"/>
               </low>
            </referenceRange>
            <referenceRange>
               <high>
                  <value value="33"/>
                  <system value="http://unitsofmeasure.org"/>
                  <code value="pg"/>
               </high>
            </referenceRange>
         </Observation>
      </resource>
   </entry>
   <entry>
      <fullUrl value="urn:uuid:8fbef317-722a-40ca-9cdd-c1e8a6cd261e"/>
      <resource>
         <Observation>
            <id value="8fbef317-722a-40ca-9cdd-c1e8a6cd261e"/>
            <meta>
               <profile value="http://hl7.eu/fhir/laboratory/StructureDefinition/Observation-resultslab-eu-lab"/>
            </meta>
            <text>
               <status value="generated"/>
               <div xmlns="http://www.w3.org/1999/xhtml">
                  <table class="hl7__eu__lab__report">
                     <tr>
                        <th>Test</th>
                        <th>03-Jun-2025</th>
                        <th>Reference Range</th>
                        <th>Unit</th>
                     </tr>
                     <tr>
                        <td>MCHC [Mass/volume] by Automated count</td>
                        <td>33.0</td>
                        <td>31.5 - 35</td>
                        <td/>
                        <td>g/dL</td>
                     </tr>
                  </table>
               </div>
            </text>
            <status value="final"/>
            <category>
               <coding>
                  <system value="http://terminology.hl7.org/CodeSystem/observation-category"/>
                  <code value="laboratory"/>
               </coding>
            </category>
            <code>
               <coding>
                  <system value="http://loinc.org"/>
                  <code value="786-4"/>
                  <display value="MCHC [Mass/volume] by Automated count"/>
               </coding>
               <text value="MCHC [Mass/volume] by Automated count"/>
            </code>
            <subject>
               <reference value="urn:uuid:b1fce6b3-5ac6-4c03-9852-a2b82e81ec77"/>
               <display value="Carole Cooke"/>
            </subject>
            <effectiveDateTime value="2025-06-03T04:55:51Z"/>
            <performer>
               <display value="The Central European Lab"/>
            </performer>
            <valueQuantity>
               <value value="33"/>
               <unit value="g/dL"/>
               <system value="http://unitsofmeasure.org"/>
               <code value="g/dL"/>
            </valueQuantity>
            <referenceRange>
               <low>
                  <value value="31.5"/>
                  <system value="http://unitsofmeasure.org"/>
                  <code value="g/dL"/>
               </low>
            </referenceRange>
            <referenceRange>
               <high>
                  <value value="35"/>
                  <system value="http://unitsofmeasure.org"/>
                  <code value="g/dL"/>
               </high>
            </referenceRange>
         </Observation>
      </resource>
   </entry>
   <entry>
      <fullUrl value="urn:uuid:4dd2791e-5729-4257-9fb8-9d9fa069eab7"/>
      <resource>
         <Observation>
            <id value="4dd2791e-5729-4257-9fb8-9d9fa069eab7"/>
            <meta>
               <profile value="http://hl7.eu/fhir/laboratory/StructureDefinition/Observation-resultslab-eu-lab"/>
            </meta>
            <text>
               <status value="generated"/>
               <div xmlns="http://www.w3.org/1999/xhtml">
                  <table class="hl7__eu__lab__report">
                     <tr>
                        <th>Test</th>
                        <th>03-Jun-2025</th>
                        <th>Reference Range</th>
                        <th>Unit</th>
                     </tr>
                     <tr>
                        <td>Erythrocyte distribution width [Entitic volume] by Automated count</td>
                        <td>40.8</td>
                        <td>36 - 55</td>
                        <td/>
                        <td>fL</td>
                     </tr>
                  </table>
               </div>
            </text>
            <status value="final"/>
            <category>
               <coding>
                  <system value="http://terminology.hl7.org/CodeSystem/observation-category"/>
                  <code value="laboratory"/>
               </coding>
            </category>
            <code>
               <coding>
                  <system value="http://loinc.org"/>
                  <code value="21000-5"/>
                  <display value="Erythrocyte distribution width [Entitic volume] by Automated count"/>
               </coding>
               <text value="Erythrocyte distribution width [Entitic volume] by Automated count"/>
            </code>
            <subject>
               <reference value="urn:uuid:b1fce6b3-5ac6-4c03-9852-a2b82e81ec77"/>
               <display value="Carole Cooke"/>
            </subject>
            <effectiveDateTime value="2025-06-03T04:55:51Z"/>
            <performer>
               <display value="The Central European Lab"/>
            </performer>
            <valueQuantity>
               <value value="40.8"/>
               <unit value="fL"/>
               <system value="http://unitsofmeasure.org"/>
               <code value="fL"/>
            </valueQuantity>
            <referenceRange>
               <low>
                  <value value="36"/>
                  <system value="http://unitsofmeasure.org"/>
                  <code value="fL"/>
               </low>
            </referenceRange>
            <referenceRange>
               <high>
                  <value value="55"/>
                  <system value="http://unitsofmeasure.org"/>
                  <code value="fL"/>
               </high>
            </referenceRange>
         </Observation>
      </resource>
   </entry>
   <entry>
      <fullUrl value="urn:uuid:7d7ba922-6e1f-4a30-876a-8e13fd999380"/>
      <resource>
         <Observation>
            <id value="7d7ba922-6e1f-4a30-876a-8e13fd999380"/>
            <meta>
               <profile value="http://hl7.eu/fhir/laboratory/StructureDefinition/Observation-resultslab-eu-lab"/>
            </meta>
            <text>
               <status value="generated"/>
               <div xmlns="http://www.w3.org/1999/xhtml">
                  <table class="hl7__eu__lab__report">
                     <tr>
                        <th>Test</th>
                        <th>03-Jun-2025</th>
                        <th>Reference Range</th>
                        <th>Unit</th>
                     </tr>
                     <tr>
                        <td>Platelets [#/volume] in Blood by Automated count</td>
                        <td>380.5</td>
                        <td>150 - 450</td>
                        <td/>
                        <td>10*3/uL</td>
                     </tr>
                  </table>
               </div>
            </text>
            <status value="final"/>
            <category>
               <coding>
                  <system value="http://terminology.hl7.org/CodeSystem/observation-category"/>
                  <code value="laboratory"/>
               </coding>
            </category>
            <code>
               <coding>
                  <system value="http://loinc.org"/>
                  <code value="777-3"/>
                  <display value="Platelets [#/volume] in Blood by Automated count"/>
               </coding>
               <text value="Platelets [#/volume] in Blood by Automated count"/>
            </code>
            <subject>
               <reference value="urn:uuid:b1fce6b3-5ac6-4c03-9852-a2b82e81ec77"/>
               <display value="Carole Cooke"/>
            </subject>
            <effectiveDateTime value="2025-06-03T04:55:51Z"/>
            <performer>
               <display value="The Central European Lab"/>
            </performer>
            <valueQuantity>
               <value value="380.5"/>
               <unit value="10*3/uL"/>
               <system value="http://unitsofmeasure.org"/>
               <code value="10*3/uL"/>
            </valueQuantity>
            <referenceRange>
               <low>
                  <value value="150"/>
                  <system value="http://unitsofmeasure.org"/>
                  <code value="10*3/uL"/>
               </low>
            </referenceRange>
            <referenceRange>
               <high>
                  <value value="450"/>
                  <system value="http://unitsofmeasure.org"/>
                  <code value="10*3/uL"/>
               </high>
            </referenceRange>
         </Observation>
      </resource>
   </entry>
   <entry>
      <fullUrl value="urn:uuid:c3eaba39-ed6b-4319-bcff-67e5ffb1a0ad"/>
      <resource>
         <Observation>
            <id value="c3eaba39-ed6b-4319-bcff-67e5ffb1a0ad"/>
            <meta>
               <profile value="http://hl7.eu/fhir/laboratory/StructureDefinition/Observation-resultslab-eu-lab"/>
            </meta>
            <text>
               <status value="generated"/>
               <div xmlns="http://www.w3.org/1999/xhtml">
                  <table class="hl7__eu__lab__report">
                     <tr>
                        <th>Test</th>
                        <th>03-Jun-2025</th>
                        <th>Reference Range</th>
                        <th>Unit</th>
                     </tr>
                     <tr>
                        <td>Platelet distribution width [Entitic volume] in Blood by Automated count</td>
                        <td>475.4</td>
                        <td>13.4 - 17.4</td>
                        <td>H</td>
                        <td>fL</td>
                     </tr>
                  </table>
               </div>
            </text>
            <status value="final"/>
            <category>
               <coding>
                  <system value="http://terminology.hl7.org/CodeSystem/observation-category"/>
                  <code value="laboratory"/>
               </coding>
            </category>
            <code>
               <coding>
                  <system value="http://loinc.org"/>
                  <code value="32207-3"/>
                  <display value="Platelet distribution width [Entitic volume] in Blood by Automated count"/>
               </coding>
               <text value="Platelet distribution width [Entitic volume] in Blood by Automated count"/>
            </code>
            <subject>
               <reference value="urn:uuid:b1fce6b3-5ac6-4c03-9852-a2b82e81ec77"/>
               <display value="Carole Cooke"/>
            </subject>
            <effectiveDateTime value="2025-06-03T04:55:51Z"/>
            <performer>
               <display value="The Central European Lab"/>
            </performer>
            <valueQuantity>
               <value value="475.4"/>
               <unit value="fL"/>
               <system value="http://unitsofmeasure.org"/>
               <code value="fL"/>
            </valueQuantity>
            <interpretation>
               <coding>
                  <system value="http://terminology.hl7.org/CodeSystem/v3-ObservationInterpretation"/>
                  <code value="H"/>
                  <display value="High"/>
               </coding>
            </interpretation>
            <referenceRange>
               <low>
                  <value value="13.4"/>
                  <system value="http://unitsofmeasure.org"/>
                  <code value="fL"/>
               </low>
            </referenceRange>
            <referenceRange>
               <high>
                  <value value="17.4"/>
                  <system value="http://unitsofmeasure.org"/>
                  <code value="fL"/>
               </high>
            </referenceRange>
         </Observation>
      </resource>
   </entry>
   <entry>
      <fullUrl value="urn:uuid:812393ba-4249-4c94-9e72-6572e6962cde"/>
      <resource>
         <Observation>
            <id value="812393ba-4249-4c94-9e72-6572e6962cde"/>
            <meta>
               <profile value="http://hl7.eu/fhir/laboratory/StructureDefinition/Observation-resultslab-eu-lab"/>
            </meta>
            <text>
               <status value="generated"/>
               <div xmlns="http://www.w3.org/1999/xhtml">
                  <table class="hl7__eu__lab__report">
                     <tr>
                        <th>Test</th>
                        <th>03-Jun-2025</th>
                        <th>Reference Range</th>
                        <th>Unit</th>
                     </tr>
                     <tr>
                        <td>Platelet mean volume [Entitic volume] in Blood by Automated count</td>
                        <td>10.8</td>
                        <td>9.7 - 12</td>
                        <td/>
                        <td>fL</td>
                     </tr>
                  </table>
               </div>
            </text>
            <status value="final"/>
            <category>
               <coding>
                  <system value="http://terminology.hl7.org/CodeSystem/observation-category"/>
                  <code value="laboratory"/>
               </coding>
            </category>
            <code>
               <coding>
                  <system value="http://loinc.org"/>
                  <code value="32623-1"/>
                  <display value="Platelet mean volume [Entitic volume] in Blood by Automated count"/>
               </coding>
               <text value="Platelet mean volume [Entitic volume] in Blood by Automated count"/>
            </code>
            <subject>
               <reference value="urn:uuid:b1fce6b3-5ac6-4c03-9852-a2b82e81ec77"/>
               <display value="Carole Cooke"/>
            </subject>
            <effectiveDateTime value="2025-06-03T04:55:51Z"/>
            <performer>
               <display value="The Central European Lab"/>
            </performer>
            <valueQuantity>
               <value value="10.8"/>
               <unit value="fL"/>
               <system value="http://unitsofmeasure.org"/>
               <code value="fL"/>
            </valueQuantity>
            <referenceRange>
               <low>
                  <value value="9.7"/>
                  <system value="http://unitsofmeasure.org"/>
                  <code value="fL"/>
               </low>
            </referenceRange>
            <referenceRange>
               <high>
                  <value value="12"/>
                  <system value="http://unitsofmeasure.org"/>
                  <code value="fL"/>
               </high>
            </referenceRange>
         </Observation>
      </resource>
   </entry>
   <entry>
      <fullUrl value="urn:uuid:6fe4add0-34e9-4433-a03b-707e47859e08"/>
      <resource>
         <DeviceUseStatement>
            <id value="6fe4add0-34e9-4433-a03b-707e47859e08"/>
            <meta>
               <profile value="http://hl7.eu/fhir/eps/StructureDefinition/deviceUseStatement-eu-eps"/>
            </meta>
            <text>
               <status value="generated"/>
               <div xmlns="http://www.w3.org/1999/xhtml">
                  <table class="hl7__ips">
                     <tr>
                        <td>Home nebulizer (physical object)</td>
                        <td>
                           <span class="nb">06-Nov-2006</span>
                        </td>
                     </tr>
                  </table>
               </div>
            </text>
            <status value="active"/>
            <subject>
               <reference value="urn:uuid:b1fce6b3-5ac6-4c03-9852-a2b82e81ec77"/>
               <display value="Carole Cooke"/>
            </subject>
            <timingPeriod>
               <start value="2006-11-06"/>
            </timingPeriod>
            <device>
               <reference value="urn:uuid:4cdbb9f2-f3d3-42e2-b2bb-0842c078a96a"/>
               <display value="Home nebulizer (physical object)"/>
            </device>
         </DeviceUseStatement>
      </resource>
   </entry>
   <entry>
      <fullUrl value="urn:uuid:4cdbb9f2-f3d3-42e2-b2bb-0842c078a96a"/>
      <resource>
         <Device>
            <id value="4cdbb9f2-f3d3-42e2-b2bb-0842c078a96a"/>
            <meta>
               <profile value="http://hl7.eu/fhir/eps/StructureDefinition/device-eu-eps"/>
            </meta>
            <udiCarrier id="(01)32652304154602(11)061016(17)311031(10)5526058365835606(21)782194646325613851"/>
            <status value="active"/>
            <type>
               <coding>
                  <system value="http://snomed.info/sct"/>
                  <code value="170615005"/>
                  <display value="Home nebulizer (physical object)"/>
               </coding>
            </type>
            <patient>
               <reference value="urn:uuid:b1fce6b3-5ac6-4c03-9852-a2b82e81ec77"/>
               <display value="Carole Cooke"/>
            </patient>
         </Device>
      </resource>
   </entry>
   <entry>
      <fullUrl value="urn:uuid:12b1049d-496d-47b5-9714-23f3beab0032"/>
      <resource>
         <Device>
            <id value="12b1049d-496d-47b5-9714-23f3beab0032"/>
            <text>
               <status value="generated"/>
               <div xmlns="http://www.w3.org/1999/xhtml">SYNDERAI Synthetic Generator v5.0</div>
            </text>
            <status value="active&#34;"/>
            <distinctIdentifier value="synderai-generator-50"/>
            <manufacturer value="SYNDERAI Project"/>
            <deviceName>
               <name value="SYNDERAI Synthetic Generator"/>
               <type value="manufacturer-name"/>
            </deviceName>
            <version>
               <value value="5.0"/>
            </version>
         </Device>
      </resource>
   </entry>
   <entry>
      <fullUrl value="urn:uuid:c4e6a7b4-954d-4978-84ea-cd307238898e"/>
      <resource>
         <Provenance>
            <id value="c4e6a7b4-954d-4978-84ea-cd307238898e"/>
            <text>
               <status value="generated"/>
               <div xmlns="http://www.w3.org/1999/xhtml">Provenance for SYNDERAI Synthetic Example Data Resource</div>
            </text>
            <target>
               <reference value="Patient/b1fce6b3-5ac6-4c03-9852-a2b82e81ec77"/>
            </target>
            <target>
               <reference value="Bundle/a604aa72-838e-486f-9e29-cbfd43c5ad47"/>
            </target>
            <target>
               <reference value="Composition/2856e61c-d863-4b7b-b9cc-d912c0787130"/>
            </target>
            <target>
               <reference value="PractitionerRole/f1fcb8dd-2afc-4abb-9b17-ccf1d72ca81b"/>
            </target>
            <target>
               <reference value="Organization/0e2e212d-67fc-465a-aa1c-926bc1858c53"/>
            </target>
            <target>
               <reference value="Practitioner/a3fcdc1f-f0d1-4ad4-85c5-45b32a424f9f"/>
            </target>
            <recorded value="2025-06-03T04:55:51Z"/>
            <policy value="https://synderai.net/synderai-synthetic-data-policy"/>
            <reason>
               <text value="Interoperability Testing and Training (non-clinical use)"/>
            </reason>
            <activity>
               <text value="Synthetic Example Data Generation"/>
            </activity>
            <agent>
               <type>
                  <text value="author"/>
               </type>
               <who>
                  <reference value="Device/12b1049d-496d-47b5-9714-23f3beab0032"/>
               </who>
            </agent>
         </Provenance>
      </resource>
   </entry>
</Bundle>