<Bundle xmlns="http://hl7.org/fhir">
   <id value="86f18b46-dd40-4c59-be65-259530efe35e"/>
   <meta>
      <profile value="http://hl7.eu/fhir/eps/StructureDefinition/bundle-eu-eps"/>
   </meta>
   <identifier>
      <system value="urn:oid:2.16.840.1.113883.2.51.999"/>
      <value value="ef7157c1-b74b-4519-bfef-f3e00dbdaa1e"/>
      <assigner>
         <display value="HL7 Europe"/>
      </assigner>
   </identifier>
   <type value="document"/>
   <timestamp value="2025-02-16T21:09:08Z"/>
   <entry>
      <fullUrl value="urn:uuid:7451de80-7bb1-4daf-af63-d09b6785717b"/>
      <resource>
         <Composition>
            <id value="7451de80-7bb1-4daf-af63-d09b6785717b"/>
            <meta>
               <profile value="http://hl7.eu/fhir/eps/StructureDefinition/composition-eu-eps"/>
               <security>
                  <system value="http://terminology.hl7.org/CodeSystem/v3-ActReason"/>
                  <code value="HTEST"/>
               </security>
               <security>
                  <system value="http://terminology.hl7.org/CodeSystem/v3-ActReason"/>
                  <code value="TRAIN"/>
               </security>
               <tag>
                  <system value="https://synderai.net/fhir/CodeSystem/tags"/>
                  <code value="synthetic"/>
                  <display value="SYNDERAI Synthetic data"/>
               </tag>
            </meta>
            <identifier>
               <system value="urn:oid:2.16.840.1.113883.2.51.999"/>
               <value value="6543a206-eb1b-49d4-8784-824c3e2c8b5a"/>
               <assigner>
                  <display value="HL7 Europe"/>
               </assigner>
            </identifier>
            <status value="final"/>
            <type>
               <coding>
                  <system value="http://loinc.org"/>
                  <code value="60591-5"/>
                  <display value="Patient summary Document"/>
               </coding>
               <text value="Patient summary Document"/>
            </type>
            <subject>
               <reference value="urn:uuid:54c9df02-a491-4bfb-9202-72b8af5fee75"/>
               <display value="Gülsen Dörschner"/>
            </subject>
            <date value="2025-02-16"/>
            <author>
               <reference value="urn:uuid:7126e37b-ba73-44c6-80a2-787baca63f05"/>
            </author>
            <title value="European Patient Summary"/>
            <confidentiality value="N"/>
            <custodian>
               <reference value="urn:uuid:ab269b06-1944-4161-b023-5e7a4c43afb6"/>
            </custodian>
            <section>
               <title value="Problem list"/>
               <code>
                  <coding>
                     <system value="http://loinc.org"/>
                     <code value="11450-4"/>
                     <display value="Problem list - Reported"/>
                  </coding>
               </code>
               <text>
                  <status value="generated"/>
                  <div xmlns="http://www.w3.org/1999/xhtml">
                     <table class="hl7__ips">
                        <tr>
                           <th>Condition</th>
                           <th>Onset Date</th>
                           <th>Status</th>
                        </tr>
                        <tr>
                           <td>Osteoarthritis of knee</td>
                           <td>
                              <span class="nb">21-Sep-2017</span>
                           </td>
                           <td>active</td>
                        </tr>
                        <tr>
                           <td>Pulmonary emphysema</td>
                           <td>
                              <span class="nb">03-May-1992</span>
                           </td>
                           <td>active</td>
                        </tr>
                        <tr>
                           <td>Anemia</td>
                           <td>
                              <span class="nb">03-May-1992</span>
                           </td>
                           <td>active</td>
                        </tr>
                        <tr>
                           <td>Essential hypertension</td>
                           <td>
                              <span class="nb">10-Jul-1988</span>
                           </td>
                           <td>active</td>
                        </tr>
                     </table>
                  </div>
               </text>
               <entry>
                  <reference value="urn:uuid:3946e813-b87d-4276-8ddb-d388e0f62ed0"/>
               </entry>
               <entry>
                  <reference value="urn:uuid:6fee8a76-2691-40fa-8427-8f3b4ef31036"/>
               </entry>
               <entry>
                  <reference value="urn:uuid:fd88cd97-cee1-4194-a275-70719794b5e2"/>
               </entry>
               <entry>
                  <reference value="urn:uuid:b9bd76ed-f795-4b74-8579-27bd0ce91b1a"/>
               </entry>
            </section>
            <section>
               <title value="Medication list"/>
               <code>
                  <coding>
                     <system value="http://loinc.org"/>
                     <code value="10160-0"/>
                     <display value="History of Medication use Narrative"/>
                  </coding>
               </code>
               <text>
                  <status value="generated"/>
                  <div xmlns="http://www.w3.org/1999/xhtml">
                     <table class="hl7__ips">
                        <tr>
                           <th>Medication</th>
                           <th>Since</th>
                           <th>Form</th>
                           <th>Dosage</th>
                           <th>Reason</th>
                        </tr>
                        <tr>
                           <td>Albuterol (as albuterol sulfate) 5 mg/mL solution for inhalation</td>
                           <td>
                              <span class="nb">2025-02-16</span>
                           </td>
                           <td>-</td>
                           <td>2.5 mg (0.5 mL of 5 mg/mL solution) via nebulizer every 4 to 6 hours as needed</td>
                           <td>Pulmonary emphysema (disorder)</td>
                        </tr>
                        <tr>
                           <td>Amlodipine (as amlodipine besylate) 2.5 mg oral tablet</td>
                           <td>
                              <span class="nb">2025-02-16</span>
                           </td>
                           <td>-</td>
                           <td>1 tablet (2.5 mg) by mouth once daily</td>
                           <td>Essential hypertension (disorder)</td>
                        </tr>
                        <tr>
                           <td>Lisinopril 10 mg oral tablet</td>
                           <td>
                              <span class="nb">2025-02-16</span>
                           </td>
                           <td>-</td>
                           <td>1 tablet (10 mg) by mouth once daily</td>
                           <td>Essential hypertension (disorder)</td>
                        </tr>
                        <tr>
                           <td>60 ACTUAT Fluticasone propionate 0.25 MG/ACTUAT / salmeterol 0.05 MG/ACTUAT Dry Powder Inhaler</td>
                           <td>
                              <span class="nb">2025-02-16</span>
                           </td>
                           <td>-</td>
                           <td>1 inhalation (0.25 mg/0.05 mg) twice daily</td>
                           <td>Pulmonary emphysema (disorder)</td>
                        </tr>
                        <tr>
                           <td>Acetaminophen 325 MG / Oxycodone Hydrochloride 10 MG Oral Tablet [Percocet]</td>
                           <td>
                              <span class="nb">2025-02-16</span>
                           </td>
                           <td>-</td>
                           <td>1 tablet (325 mg acetaminophen / 10 mg oxycodone) every 6 hours as needed for pain</td>
                           <td>-</td>
                        </tr>
                        <tr>
                           <td>Naproxen sodium 220 mg oral capsule</td>
                           <td>
                              <span class="nb">2017-09-21</span>
                           </td>
                           <td>-</td>
                           <td>1 tablet (220 mg) by mouth every 12 hours as needed</td>
                           <td>Osteoarthritis of knee</td>
                        </tr>
                        <tr>
                           <td>Vitamin B12 5 MG/ML Injectable Solution</td>
                           <td>
                              <span class="nb">1992-05-10</span>
                           </td>
                           <td>-</td>
                           <td>1 mg (1 mL) intramuscularly once weekly</td>
                           <td>-</td>
                        </tr>
                     </table>
                  </div>
               </text>
               <entry>
                  <reference value="urn:uuid:ecd066c4-a96d-4648-96fb-ce7d6a5fecdc"/>
               </entry>
               <entry>
                  <reference value="urn:uuid:9db75a0f-f631-46ae-92c2-c2189df324e4"/>
               </entry>
               <entry>
                  <reference value="urn:uuid:f173715c-05f5-4bb4-993d-d2354c8fe9f2"/>
               </entry>
               <entry>
                  <reference value="urn:uuid:b67b0c7a-21ed-4c67-a48d-5130b44020f4"/>
               </entry>
               <entry>
                  <reference value="urn:uuid:0394c7cd-654f-44b4-b1df-edec6ab8b266"/>
               </entry>
               <entry>
                  <reference value="urn:uuid:72260d7e-d260-4c4f-91db-830101089b2f"/>
               </entry>
               <entry>
                  <reference value="urn:uuid:2fb09854-38f4-4c31-ace8-bebdf782b883"/>
               </entry>
            </section>
            <section>
               <title value="Immunizations list"/>
               <code>
                  <coding>
                     <system value="http://loinc.org"/>
                     <code value="11369-6"/>
                     <display value="History of Immunization note"/>
                  </coding>
               </code>
               <text>
                  <status value="generated"/>
                  <div xmlns="http://www.w3.org/1999/xhtml">
                     <table class="hl7__ips">
                        <tr>
                           <th>Vaccine</th>
                           <th>Date</th>
                        </tr>
                        <tr>
                           <td>Influenza virus antigen only vaccine product</td>
                           <td>
                              <span class="nb">16-Feb-2025</span>
                           </td>
                        </tr>
                        <tr>
                           <td>SARS-CoV-2 mRNA vaccine</td>
                           <td>
                              <span class="nb">25-Apr-2021</span>
                           </td>
                        </tr>
                        <tr>
                           <td>Clostridium tetani toxoid antigen adsorbed only vaccine product</td>
                           <td>
                              <span class="nb">24-Jan-2021</span>
                           </td>
                        </tr>
                        <tr>
                           <td>Live attenuated Human alphaherpesvirus 3 only vaccine product</td>
                           <td>
                              <span class="nb">24-Jan-2021</span>
                           </td>
                        </tr>
                     </table>
                  </div>
               </text>
               <entry>
                  <reference value="urn:uuid:f520717d-7874-4384-8501-867c76bd0531"/>
               </entry>
               <entry>
                  <reference value="urn:uuid:c40c50b2-d69d-4aca-a814-fe763e75957d"/>
               </entry>
               <entry>
                  <reference value="urn:uuid:a6f725fb-43a3-456f-9515-0c4e80de7e90"/>
               </entry>
               <entry>
                  <reference value="urn:uuid:441f07e2-4021-4c03-81d3-ff777c7a239c"/>
               </entry>
            </section>
            <section>
               <title value="Procedure History list"/>
               <code>
                  <coding>
                     <system value="http://loinc.org"/>
                     <code value="47519-4"/>
                     <display value="History of Procedures Document"/>
                  </coding>
               </code>
               <text>
                  <status value="generated"/>
                  <div xmlns="http://www.w3.org/1999/xhtml">
                     <table class="hl7__ips">
                        <tr>
                           <th>Procedure</th>
                           <th>Date</th>
                           <th>Reason</th>
                        </tr>
                        <tr>
                           <td>Parturition</td>
                           <td>
                              <span class="nb">12-Jul-2020</span>
                           </td>
                           <td>Normal pregnancy</td>
                        </tr>
                     </table>
                  </div>
               </text>
               <entry>
                  <reference value="urn:uuid:662c0bbd-fe24-4f21-88ce-67684c869831"/>
               </entry>
            </section>
            <section>
               <title value="Allergies and Intolerances"/>
               <code>
                  <coding>
                     <system value="http://loinc.org"/>
                     <code value="48765-2"/>
                     <display value="Allergies and adverse reactions Document"/>
                  </coding>
               </code>
               <text>
                  <status value="generated"/>
                  <div xmlns="http://www.w3.org/1999/xhtml">
                     <table class="hl7__ips">
                        <tr>
                           <th>Allergy/Intolerance</th>
                           <th>Onset Date</th>
                           <th>Status</th>
                           <th>Type</th>
                           <th>Reaction</th>
                        </tr>
                        <tr>
                           <td/>
                           <td>?</td>
                           <td>active</td>
                           <td>?</td>
                           <td/>
                        </tr>
                     </table>
                  </div>
               </text>
               <entry>
                  <reference value="urn:uuid:108352a8-5ee1-408d-8280-a8603321fddc"/>
               </entry>
            </section>
            <section>
               <title value="Care Plan"/>
               <code>
                  <coding>
                     <system value="http://loinc.org"/>
                     <code value="18776-5"/>
                     <display value="Plan of care note"/>
                  </coding>
               </code>
               <text>
                  <status value="generated"/>
                  <div xmlns="http://www.w3.org/1999/xhtml">
                     <table class="hl7__ips">
                        <tr>
                           <th>Active Planned Care / Goals</th>
                           <th>Start Date</th>
                           <th>Reason</th>
                        </tr>
                        <tr>
                           <td>Musculoskeletal care</td>
                           <td>
                              <span class="nb">21-Sep-2017</span>
                           </td>
                           <td>Osteoarthritis of knee</td>
                        </tr>
                        <tr>
                           <td>
                              <ul>
                                 <li>Reduce knee pain severity to improve mobility and quality of life.</li>
                                 <li>Increase ability to perform activities of daily living without knee limitation.</li>
                                 <li>Achieve at least 150 minutes of moderate physical activity per week.</li>
                              </ul>
                           </td>
                           <td/>
                           <td/>
                        </tr>
                        <tr>
                           <td>Chronic obstructive pulmonary disease clinical management plan</td>
                           <td>
                              <span class="nb">03-May-1992</span>
                           </td>
                           <td>Pulmonary emphysema (disorder)</td>
                        </tr>
                        <tr>
                           <td>
                              <ul>
                                 <li>Minimize the number of acute COPD exacerbations requiring medical intervention over the next 12 months</li>
                                 <li>Increase forced expiratory volume in 1 second (FEV1) to at least 1.5 liters</li>
                                 <li>Maintain peripheral oxygen saturation (SpO2) at or above 92% at rest</li>
                                 <li>Patient will abstain from tobacco use continuously</li>
                                 <li>Patient will walk at least 300 meters in 6 minutes</li>
                              </ul>
                           </td>
                           <td/>
                           <td/>
                        </tr>
                        <tr>
                           <td>Lifestyle education regarding hypertension</td>
                           <td>
                              <span class="nb">10-Jul-1988</span>
                           </td>
                           <td>Essential hypertension (disorder)</td>
                        </tr>
                        <tr>
                           <td>
                              <ul>
                                 <li>Maintain blood pressure below 130/80 mmHg through lifestyle modifications</li>
                                 <li>Limit daily sodium intake to less than 2.3 grams</li>
                                 <li>Achieve at least 5% reduction in body weight</li>
                                 <li>Engage in at least 150 minutes of moderate-intensity aerobic activity per week</li>
                              </ul>
                           </td>
                           <td/>
                           <td/>
                        </tr>
                     </table>
                  </div>
               </text>
               <entry>
                  <reference value="urn:uuid:806013cd-48c1-43e1-9026-099695f7622d"/>
               </entry>
               <entry>
                  <reference value="urn:uuid:ee184653-856a-4fa2-9e21-e5ab0d611b7b"/>
               </entry>
               <entry>
                  <reference value="urn:uuid:8acbf4c3-2b59-4772-885a-f4b23579b576"/>
               </entry>
            </section>
            <section>
               <title value="Vital Signs"/>
               <code>
                  <coding>
                     <system value="http://loinc.org"/>
                     <code value="8716-3"/>
                     <display value="Vital signs note"/>
                  </coding>
               </code>
               <text>
                  <status value="generated"/>
                  <div xmlns="http://www.w3.org/1999/xhtml">
                     <table class="hl7__ips">
                        <tr>
                           <th>Vital Signs</th>
                           <th>2025-05-04</th>
                           <th>2025-02-16</th>
                        </tr>
                        <tr>
                           <td>Body temperature</td>
                           <td>37.4 Cel</td>
                           <td>-</td>
                        </tr>
                        <tr>
                           <td>Body Height</td>
                           <td>-</td>
                           <td>172 cm</td>
                        </tr>
                        <tr>
                           <td>Pain severity - 0-10 verbal numeric rating [Score] - Reported</td>
                           <td>-</td>
                           <td>4 {score}</td>
                        </tr>
                        <tr>
                           <td>Body Weight</td>
                           <td>-</td>
                           <td>83.6 kg</td>
                        </tr>
                        <tr>
                           <td>Body mass index (BMI) [Ratio]</td>
                           <td>-</td>
                           <td>28.3 kg/m2</td>
                        </tr>
                        <tr>
                           <td>Diastolic Blood Pressure</td>
                           <td>-</td>
                           <td>72 mm[Hg]</td>
                        </tr>
                        <tr>
                           <td>Systolic Blood Pressure</td>
                           <td>-</td>
                           <td>125 mm[Hg]</td>
                        </tr>
                        <tr>
                           <td>Heart rate</td>
                           <td>-</td>
                           <td>67 /min</td>
                        </tr>
                        <tr>
                           <td>Respiratory rate</td>
                           <td>-</td>
                           <td>13 /min</td>
                        </tr>
                     </table>
                  </div>
               </text>
               <entry>
                  <reference value="urn:uuid:d8d1074c-cc7e-46a4-b31c-26071f415640"/>
               </entry>
               <entry>
                  <reference value="urn:uuid:f3c83d7c-c445-44f3-8fc8-c79fe5cd9ae4"/>
               </entry>
               <entry>
                  <reference value="urn:uuid:4905737c-8a65-4fb0-9223-b15c4752db6d"/>
               </entry>
               <entry>
                  <reference value="urn:uuid:959407c3-de94-412b-9a06-729fc053b597"/>
               </entry>
               <entry>
                  <reference value="urn:uuid:2a3eb9bd-0d4d-44b8-89ff-eda85ec8b5e5"/>
               </entry>
               <entry>
                  <reference value="urn:uuid:3c65b03b-cd3e-423e-97a8-2dd66ddaa29f"/>
               </entry>
               <entry>
                  <reference value="urn:uuid:46288396-fb2a-462e-8a9b-056a00656366"/>
               </entry>
               <entry>
                  <reference value="urn:uuid:195becf4-37fd-4d8b-8d73-1debff032270"/>
               </entry>
               <entry>
                  <reference value="urn:uuid:6559d2cb-fb97-429c-b550-f0e6ed2071e4"/>
               </entry>
            </section>
            <section>
               <title value="Pregnancy History"/>
               <code>
                  <coding>
                     <system value="http://loinc.org"/>
                     <code value="10162-6"/>
                     <display value="History of pregnancies Narrative"/>
                  </coding>
               </code>
               <text>
                  <status value="generated"/>
                  <div xmlns="http://www.w3.org/1999/xhtml">
                     <table class="hl7__ips">$<tr>
                           <td>[#] Births total</td>
                           <td>1</td>
                        </tr>
                     </table>
                  </div>
               </text>
            </section>
            <section>
               <title value="Relevant diagnostic tests/laboratory data"/>
               <code>
                  <coding>
                     <system value="http://loinc.org"/>
                     <code value="30954-2"/>
                     <display value="Relevant diagnostic tests/laboratory data note"/>
                  </coding>
               </code>
               <text>
                  <status value="generated"/>
                  <div xmlns="http://www.w3.org/1999/xhtml">
                     <table class="hl7__ips">
                        <table class="hl7__ips">
                           <thead>
                              <tr>
                                 <th>Recent Lab Observations</th>
                                 <th>16-FEB-2025</th>
                                 <th>Reference Range</th>
                                 <th>Unit</th>
                              </tr>
                           </thead>
                           <tbody>
                              <tr>
                                 <td>Leukocytes [#/volume] in Blood by Automated count</td>
                                 <td>5.3</td>
                                 <td>3.4 - 10.5</td>
                                 <td>10*3/uL</td>
                              </tr>
                              <tr>
                                 <td>Erythrocytes [#/volume] in Blood by Automated count</td>
                                 <td>5.5</td>
                                 <td>4.2 - 5.8</td>
                                 <td>10*6/uL</td>
                              </tr>
                              <tr>
                                 <td>Hemoglobin [Mass/volume] in Blood</td>
                                 <td>15.9</td>
                                 <td>12 - 16</td>
                                 <td>g/dL</td>
                              </tr>
                              <tr>
                                 <td>Hematocrit [Volume Fraction] of Blood by Automated count</td>
                                 <td>
                                    <strong>35.8 L</strong>
                                 </td>
                                 <td>36 - 48</td>
                                 <td>%</td>
                              </tr>
                              <tr>
                                 <td>MCV [Entitic volume] by Automated count</td>
                                 <td>84.6</td>
                                 <td>82 - 98</td>
                                 <td>fL</td>
                              </tr>
                              <tr>
                                 <td>MCH [Entitic mass] by Automated count</td>
                                 <td>27.7</td>
                                 <td>27 - 33</td>
                                 <td>pg</td>
                              </tr>
                              <tr>
                                 <td>MCHC [Mass/volume] by Automated count</td>
                                 <td>33.7</td>
                                 <td>31.5 - 36</td>
                                 <td>g/dL</td>
                              </tr>
                              <tr>
                                 <td>Erythrocyte distribution width [Entitic volume] by Automated count</td>
                                 <td>39.0</td>
                                 <td>36 - 55</td>
                                 <td>fL</td>
                              </tr>
                              <tr>
                                 <td>Platelets [#/volume] in Blood by Automated count</td>
                                 <td>191.8</td>
                                 <td>150 - 400</td>
                                 <td>10*3/uL</td>
                              </tr>
                              <tr>
                                 <td>Platelet distribution width [Entitic volume] in Blood by Automated count</td>
                                 <td>
                                    <strong>162.7 H</strong>
                                 </td>
                                 <td>11.6 - 17.4</td>
                                 <td>fL</td>
                              </tr>
                              <tr>
                                 <td>Platelet mean volume [Entitic volume] in Blood by Automated count</td>
                                 <td>
                                    <strong>12.2 H</strong>
                                 </td>
                                 <td>7.4 - 12</td>
                                 <td>fL</td>
                              </tr>
                           </tbody>
                        </table>
                     </table>
                  </div>
               </text>
               <entry>
                  <reference value="urn:uuid:ed064246-ca5b-47df-911b-331775685585"/>
               </entry>
               <entry>
                  <reference value="urn:uuid:cad3ec1c-013e-47e9-bcdb-98813acb0b1e"/>
               </entry>
               <entry>
                  <reference value="urn:uuid:e0968486-02aa-4004-b33b-f4971b73cfcd"/>
               </entry>
               <entry>
                  <reference value="urn:uuid:da0f972d-bab5-4da4-be8b-bff465d74bb8"/>
               </entry>
               <entry>
                  <reference value="urn:uuid:c9ddafae-739c-4f71-846b-67b804dbf2e9"/>
               </entry>
               <entry>
                  <reference value="urn:uuid:ffa394c0-d3c7-4e77-ada2-4c4b5bca9b0e"/>
               </entry>
               <entry>
                  <reference value="urn:uuid:8205faaf-ef58-4093-a452-ff0e323903a9"/>
               </entry>
               <entry>
                  <reference value="urn:uuid:94ff57ab-f829-4488-815d-920f0be85a2d"/>
               </entry>
               <entry>
                  <reference value="urn:uuid:94922515-d26e-473a-9dfd-9838aaa0b713"/>
               </entry>
               <entry>
                  <reference value="urn:uuid:bd9e76a5-8440-4dc6-bffe-45e7b271bf95"/>
               </entry>
               <entry>
                  <reference value="urn:uuid:73c23aae-2b3e-445d-a673-743233e4f421"/>
               </entry>
            </section>
            <section>
               <title value="Device Use"/>
               <code>
                  <coding>
                     <system value="http://loinc.org"/>
                     <code value="46264-8"/>
                     <display value="History of medical device use"/>
                  </coding>
               </code>
               <text>
                  <status value="generated"/>
                  <div xmlns="http://www.w3.org/1999/xhtml">
                     <table class="hl7__ips">
                        <tr>
                           <th>Device</th>
                           <th>Date (since)</th>
                        </tr>
                        <tr>
                           <td>Manual wheelchair (physical object)</td>
                           <td>
                              <span class="nb">21-Sep-2017</span>
                           </td>
                        </tr>
                        <tr>
                           <td>Wheelchair accessory (physical object)</td>
                           <td>
                              <span class="nb">21-Sep-2017</span>
                           </td>
                        </tr>
                     </table>
                  </div>
               </text>
               <entry>
                  <reference value="urn:uuid:5a56873b-05d4-416b-b36c-1e70c87c9866"/>
               </entry>
               <entry>
                  <reference value="urn:uuid:a7db06bf-7545-4c6f-a3ab-6b4f3229b092"/>
               </entry>
            </section>
         </Composition>
      </resource>
   </entry>
   <entry>
      <fullUrl value="urn:uuid:54c9df02-a491-4bfb-9202-72b8af5fee75"/>
      <resource>
         <Patient>
            <id value="54c9df02-a491-4bfb-9202-72b8af5fee75"/>
            <meta>
               <profile value="http://hl7.eu/fhir/eps/StructureDefinition/patient-eu-eps"/>
               <security>
                  <system value="http://terminology.hl7.org/CodeSystem/v3-ActReason"/>
                  <code value="HTEST"/>
               </security>
               <security>
                  <system value="http://terminology.hl7.org/CodeSystem/v3-ActReason"/>
                  <code value="TRAIN"/>
               </security>
               <tag>
                  <system value="https://synderai.net/fhir/CodeSystem/tags"/>
                  <code value="synthetic"/>
                  <display value="SYNDERAI Synthetic data"/>
               </tag>
            </meta>
            <text>
               <status value="generated"/>
               <div xmlns="http://www.w3.org/1999/xhtml">
                  <table class="hl7__ips">
                     <tr>
                        <td>Gülsen Dörschner</td>
                        <td>female</td>
                        <td>30-Jul-1970</td>
                     </tr>
                  </table>
               </div>
            </text>
            <extension url="http://hl7.org/fhir/StructureDefinition/patient-nationality">
               <valueCodeableConcept>
                  <coding>
                     <system value="http://hl7.org/fhir/ValueSet/country"/>
                     <code value="DE"/>
                  </coding>
               </valueCodeableConcept>
            </extension>
            <identifier>
               <type>
                  <coding>
                     <system value="http://terminology.hl7.org/CodeSystem/v2-0203"/>
                     <code value="PT"/>
                  </coding>
               </type>
               <system value="http://ec.europa.eu/identifier/eci"/>
               <value value="3549-346619-3"/>
            </identifier>
            <identifier>
               <type>
                  <coding>
                     <system value="http://terminology.hl7.org/CodeSystem/v2-0203"/>
                     <code value="MR"/>
                  </coding>
               </type>
               <system value="http://local.setting.eu/identifier"/>
               <value value="bcd9933a-4b4f-f81c-ee50-85330dd204e6"/>
            </identifier>
            <name>
               <family value="Dörschner"/>
            </name>
            <name>
               <given value="Gülsen"/>
            </name>
            <name>
               <text value="Gülsen Dörschner"/>
            </name>
            <telecom>
               <system value="phone"/>
               <value value="(05189) 62305"/>
            </telecom>
            <gender value="female"/>
            <birthDate value="1970-07-30"/>
            <address>
               <use value="home"/>
               <type value="physical"/>
               <line value="Patbergplatz 571"/>
               <city value="Koblenz"/>
               <postalCode value="56068"/>
               <country value="Germany"/>
            </address>
         </Patient>
      </resource>
   </entry>
   <entry>
      <fullUrl value="urn:uuid:7126e37b-ba73-44c6-80a2-787baca63f05"/>
      <resource>
         <PractitionerRole>
            <id value="7126e37b-ba73-44c6-80a2-787baca63f05"/>
            <meta>
               <profile value="http://hl7.eu/fhir/base/StructureDefinition/practitionerRole-eu"/>
            </meta>
            <text>
               <status value="generated"/>
               <div xmlns="http://www.w3.org/1999/xhtml">
                  <table class="hl7__ips">Provider Role Id 7126e37b-ba73-44c6-80a2-787baca63f05</table>
               </div>
            </text>
            <practitioner>
               <reference value="urn:uuid:a3068ab7-8e33-4647-b3b2-e1674d88d53f"/>
            </practitioner>
            <organization>
               <reference value="urn:uuid:ab269b06-1944-4161-b023-5e7a4c43afb6"/>
            </organization>
         </PractitionerRole>
      </resource>
   </entry>
   <entry>
      <fullUrl value="urn:uuid:a3068ab7-8e33-4647-b3b2-e1674d88d53f"/>
      <resource>
         <Practitioner>
            <id value="a3068ab7-8e33-4647-b3b2-e1674d88d53f"/>
            <meta>
               <profile value="http://hl7.eu/fhir/base/StructureDefinition/practitioner-eu"/>
            </meta>
            <text>
               <status value="generated"/>
               <div xmlns="http://www.w3.org/1999/xhtml">
                  <table class="hl7__ips">Dr. Hel Ping</table>
               </div>
            </text>
            <name>
               <family value="Ping"/>
               <given value="Hel"/>
               <prefix value="Dr."/>
            </name>
         </Practitioner>
      </resource>
   </entry>
   <entry>
      <fullUrl value="urn:uuid:ab269b06-1944-4161-b023-5e7a4c43afb6"/>
      <resource>
         <Organization>
            <id value="ab269b06-1944-4161-b023-5e7a4c43afb6"/>
            <meta>
               <profile value="http://hl7.eu/fhir/base/StructureDefinition/organization-eu"/>
            </meta>
            <text>
               <status value="generated"/>
               <div xmlns="http://www.w3.org/1999/xhtml">
                  <table class="hl7__ips">Brüderhaus Koblenz</table>
               </div>
            </text>
            <identifier>
               <system value="urn:oid:2.16.840.1.113883.2.51.999"/>
               <value value="b969ede3-4b34-41b8-b59e-3c19b09e50df"/>
               <assigner>
                  <display value="HL7 Europe"/>
               </assigner>
            </identifier>
            <name value="Brüderhaus Koblenz"/>
            <address>
               <line value="Kardinal-Krementz-Straße 1-5"/>
               <city value="Koblenz"/>
               <postalCode value="56068"/>
               <country value="Germany"/>
            </address>
         </Organization>
      </resource>
   </entry>
   <entry>
      <fullUrl value="urn:uuid:3946e813-b87d-4276-8ddb-d388e0f62ed0"/>
      <resource>
         <Condition>
            <id value="3946e813-b87d-4276-8ddb-d388e0f62ed0"/>
            <meta>
               <profile value="http://hl7.org/fhir/uv/ips/StructureDefinition/Condition-uv-ips"/>
            </meta>
            <text>
               <status value="generated"/>
               <div xmlns="http://www.w3.org/1999/xhtml">
                  <table class="hl7__ips">
                     <tr>
                        <td>Osteoarthritis of knee</td>
                        <td>
                           <span class="nb">21-Sep-2017</span>
                        </td>
                        <td>active</td>
                     </tr>
                  </table>
               </div>
            </text>
            <category>
               <coding>
                  <system value="http://terminology.hl7.org/CodeSystem/condition-category"/>
                  <code value="problem-list-item"/>
                  <display value="Problem List Item"/>
               </coding>
            </category>
            <code>
               <coding>
                  <system value="http://snomed.info/sct"/>
                  <code value="239873007"/>
                  <display value="Osteoarthritis of knee (disorder)"/>
               </coding>
               <text value="Osteoarthritis of knee"/>
            </code>
            <subject>
               <reference value="urn:uuid:"/>
               <display value="Gülsen Dörschner"/>
            </subject>
            <onsetDateTime value="2017-09-21"/>
            <asserter>
               <reference value="urn:uuid:"/>
               <display value="Brüderhaus Koblenz"/>
            </asserter>
         </Condition>
      </resource>
   </entry>
   <entry>
      <fullUrl value="urn:uuid:6fee8a76-2691-40fa-8427-8f3b4ef31036"/>
      <resource>
         <Condition>
            <id value="6fee8a76-2691-40fa-8427-8f3b4ef31036"/>
            <meta>
               <profile value="http://hl7.org/fhir/uv/ips/StructureDefinition/Condition-uv-ips"/>
            </meta>
            <text>
               <status value="generated"/>
               <div xmlns="http://www.w3.org/1999/xhtml">
                  <table class="hl7__ips">
                     <tr>
                        <td>Pulmonary emphysema</td>
                        <td>
                           <span class="nb">03-May-1992</span>
                        </td>
                        <td>active</td>
                     </tr>
                  </table>
               </div>
            </text>
            <category>
               <coding>
                  <system value="http://terminology.hl7.org/CodeSystem/condition-category"/>
                  <code value="problem-list-item"/>
                  <display value="Problem List Item"/>
               </coding>
            </category>
            <code>
               <coding>
                  <system value="http://snomed.info/sct"/>
                  <code value="87433001"/>
                  <display value="Pulmonary emphysema (disorder)"/>
               </coding>
               <text value="Pulmonary emphysema"/>
            </code>
            <subject>
               <reference value="urn:uuid:"/>
               <display value="Gülsen Dörschner"/>
            </subject>
            <onsetDateTime value="1992-05-03"/>
            <asserter>
               <reference value="urn:uuid:"/>
               <display value="Brüderhaus Koblenz"/>
            </asserter>
         </Condition>
      </resource>
   </entry>
   <entry>
      <fullUrl value="urn:uuid:fd88cd97-cee1-4194-a275-70719794b5e2"/>
      <resource>
         <Condition>
            <id value="fd88cd97-cee1-4194-a275-70719794b5e2"/>
            <meta>
               <profile value="http://hl7.org/fhir/uv/ips/StructureDefinition/Condition-uv-ips"/>
            </meta>
            <text>
               <status value="generated"/>
               <div xmlns="http://www.w3.org/1999/xhtml">
                  <table class="hl7__ips">
                     <tr>
                        <td>Anemia</td>
                        <td>
                           <span class="nb">03-May-1992</span>
                        </td>
                        <td>active</td>
                     </tr>
                  </table>
               </div>
            </text>
            <category>
               <coding>
                  <system value="http://terminology.hl7.org/CodeSystem/condition-category"/>
                  <code value="problem-list-item"/>
                  <display value="Problem List Item"/>
               </coding>
            </category>
            <code>
               <coding>
                  <system value="http://snomed.info/sct"/>
                  <code value="271737000"/>
                  <display value="Anemia (disorder)"/>
               </coding>
               <text value="Anemia"/>
            </code>
            <subject>
               <reference value="urn:uuid:"/>
               <display value="Gülsen Dörschner"/>
            </subject>
            <onsetDateTime value="1992-05-03"/>
            <asserter>
               <reference value="urn:uuid:"/>
               <display value="Brüderhaus Koblenz"/>
            </asserter>
         </Condition>
      </resource>
   </entry>
   <entry>
      <fullUrl value="urn:uuid:b9bd76ed-f795-4b74-8579-27bd0ce91b1a"/>
      <resource>
         <Condition>
            <id value="b9bd76ed-f795-4b74-8579-27bd0ce91b1a"/>
            <meta>
               <profile value="http://hl7.org/fhir/uv/ips/StructureDefinition/Condition-uv-ips"/>
            </meta>
            <text>
               <status value="generated"/>
               <div xmlns="http://www.w3.org/1999/xhtml">
                  <table class="hl7__ips">
                     <tr>
                        <td>Essential hypertension</td>
                        <td>
                           <span class="nb">10-Jul-1988</span>
                        </td>
                        <td>active</td>
                     </tr>
                  </table>
               </div>
            </text>
            <category>
               <coding>
                  <system value="http://terminology.hl7.org/CodeSystem/condition-category"/>
                  <code value="problem-list-item"/>
                  <display value="Problem List Item"/>
               </coding>
            </category>
            <code>
               <coding>
                  <system value="http://snomed.info/sct"/>
                  <code value="59621000"/>
                  <display value="Essential hypertension (disorder)"/>
               </coding>
               <text value="Essential hypertension"/>
            </code>
            <subject>
               <reference value="urn:uuid:"/>
               <display value="Gülsen Dörschner"/>
            </subject>
            <onsetDateTime value="1988-07-10"/>
            <asserter>
               <reference value="urn:uuid:"/>
               <display value="Brüderhaus Koblenz"/>
            </asserter>
         </Condition>
      </resource>
   </entry>
   <entry>
      <fullUrl value="urn:uuid:ed6af7b0-56c1-42a9-b3e9-4cba9eb47e54"/>
      <resource>
         <Condition>
            <id value="ed6af7b0-56c1-42a9-b3e9-4cba9eb47e54"/>
            <meta>
               <profile value="http://hl7.org/fhir/uv/ips/StructureDefinition/Condition-uv-ips"/>
            </meta>
            <text>
               <status value="generated"/>
               <div xmlns="http://www.w3.org/1999/xhtml">
                  <table class="hl7__ips">
                     <tr>
                        <td>
                           <span class="grayedout">Acute viral pharyngitis</span>
                        </td>
                        <td>
                           <span class="nb">04-May-2025 - 13-May-2025</span>
                        </td>
                        <td>
                           <span class="grayedout">inactive</span>
                        </td>
                     </tr>
                  </table>
               </div>
            </text>
            <category>
               <coding>
                  <system value="http://terminology.hl7.org/CodeSystem/condition-category"/>
                  <code value="problem-list-item"/>
                  <display value="Problem List Item"/>
               </coding>
            </category>
            <code>
               <coding>
                  <system value="http://snomed.info/sct"/>
                  <code value="195662009"/>
                  <display value="Acute viral pharyngitis (disorder)"/>
               </coding>
               <text value="Acute viral pharyngitis"/>
            </code>
            <subject>
               <reference value="urn:uuid:"/>
               <display value="Gülsen Dörschner"/>
            </subject>
            <onsetDateTime value="2025-05-04"/>
            <abatementDateTime value="2025-05-13"/>
            <asserter>
               <reference value="urn:uuid:"/>
               <display value="Brüderhaus Koblenz"/>
            </asserter>
         </Condition>
      </resource>
   </entry>
   <entry>
      <fullUrl value="urn:uuid:0d955978-31c2-43b7-8d9a-eb889cd1022e"/>
      <resource>
         <Medication>
            <id value="0d955978-31c2-43b7-8d9a-eb889cd1022e"/>
            <meta>
               <profile value="http://hl7.eu/fhir/eps/StructureDefinition/Medication-eu-eps"/>
            </meta>
            <text>
               <status value="generated"/>
               <div xmlns="http://www.w3.org/1999/xhtml">Albuterol (as albuterol sulfate) 5 mg/mL solution for inhalation</div>
            </text>
            <code>
               <coding>
                  <system value="http://snomed.info/sct"/>
                  <code value="1197460000"/>
                  <display value="Albuterol (as albuterol sulfate) 5 mg/mL solution for inhalation"/>
               </coding>
               <text value="Albuterol (as albuterol sulfate) 5 mg/mL solution for inhalation"/>
            </code>
         </Medication>
      </resource>
   </entry>
   <entry>
      <fullUrl value="urn:uuid:ecd066c4-a96d-4648-96fb-ce7d6a5fecdc"/>
      <resource>
         <MedicationStatement>
            <id value="ecd066c4-a96d-4648-96fb-ce7d6a5fecdc"/>
            <meta>
               <profile value="http://hl7.eu/fhir/eps/StructureDefinition/MedicationStatement-eu-eps"/>
            </meta>
            <text>
               <status value="generated"/>
               <div xmlns="http://www.w3.org/1999/xhtml">
                  <table class="hl7__ips first25">
                     <tr>
                        <th>Medication</th>
                        <th>Since</th>
                        <th>Form</th>
                        <th>Dosage</th>
                        <th>Reason</th>
                     </tr>
                     <tr>
                        <td>Albuterol (as albuterol sulfate) 5 mg/mL solution for inhalation</td>
                        <td>
                           <span class="nb">2025-02-16</span>
                        </td>
                        <td>-</td>
                        <td>2.5 mg (0.5 mL of 5 mg/mL solution) via nebulizer every 4 to 6 hours as needed</td>
                        <td>Pulmonary emphysema (disorder)</td>
                     </tr>
                  </table>
               </div>
            </text>
            <status value="active"/>
            <medicationReference>
               <reference value="urn:uuid:0d955978-31c2-43b7-8d9a-eb889cd1022e"/>
               <display value="Albuterol (as albuterol sulfate) 5 mg/mL solution for inhalation"/>
            </medicationReference>
            <subject>
               <reference value="urn:uuid:54c9df02-a491-4bfb-9202-72b8af5fee75"/>
               <display value="Gülsen Dörschner"/>
            </subject>
            <effectivePeriod>
               <start value="2025-02-16"/>
            </effectivePeriod>
            <reasonCode>
               <coding>
                  <system value="http://snomed.info/sct"/>
                  <code value="87433001"/>
                  <display value="Pulmonary emphysema (disorder)"/>
               </coding>
            </reasonCode>
            <dosage>
               <text value="2.5 mg (0.5 mL of 5 mg/mL solution) via nebulizer every 4 to 6 hours as needed"/>
               <timing>
                  <repeat>
                     <frequency value="1"/>
                     <period value="4"/>
                     <periodUnit value="h"/>
                  </repeat>
               </timing>
               <asNeededBoolean value="true"/>
               <doseAndRate>
                  <doseQuantity>
                     <value value="2.5"/>
                     <unit value="mg"/>
                     <system value="$ucum"/>
                     <code value="mg"/>
                  </doseQuantity>
               </doseAndRate>
            </dosage>
         </MedicationStatement>
      </resource>
   </entry>
   <entry>
      <fullUrl value="urn:uuid:db535cf6-0f93-4026-84fe-e9c274901b49"/>
      <resource>
         <Medication>
            <id value="db535cf6-0f93-4026-84fe-e9c274901b49"/>
            <meta>
               <profile value="http://hl7.eu/fhir/eps/StructureDefinition/Medication-eu-eps"/>
            </meta>
            <text>
               <status value="generated"/>
               <div xmlns="http://www.w3.org/1999/xhtml">Amlodipine (as amlodipine besylate) 2.5 mg oral tablet</div>
            </text>
            <code>
               <coding>
                  <system value="http://snomed.info/sct"/>
                  <code value="1153431000"/>
                  <display value="Amlodipine (as amlodipine besylate) 2.5 mg oral tablet"/>
               </coding>
               <text value="Amlodipine (as amlodipine besylate) 2.5 mg oral tablet"/>
            </code>
         </Medication>
      </resource>
   </entry>
   <entry>
      <fullUrl value="urn:uuid:9db75a0f-f631-46ae-92c2-c2189df324e4"/>
      <resource>
         <MedicationStatement>
            <id value="9db75a0f-f631-46ae-92c2-c2189df324e4"/>
            <meta>
               <profile value="http://hl7.eu/fhir/eps/StructureDefinition/MedicationStatement-eu-eps"/>
            </meta>
            <text>
               <status value="generated"/>
               <div xmlns="http://www.w3.org/1999/xhtml">
                  <table class="hl7__ips first25">
                     <tr>
                        <th>Medication</th>
                        <th>Since</th>
                        <th>Form</th>
                        <th>Dosage</th>
                        <th>Reason</th>
                     </tr>
                     <tr>
                        <td>Amlodipine (as amlodipine besylate) 2.5 mg oral tablet</td>
                        <td>
                           <span class="nb">2025-02-16</span>
                        </td>
                        <td>-</td>
                        <td>1 tablet (2.5 mg) by mouth once daily</td>
                        <td>Essential hypertension (disorder)</td>
                     </tr>
                  </table>
               </div>
            </text>
            <status value="active"/>
            <medicationReference>
               <reference value="urn:uuid:db535cf6-0f93-4026-84fe-e9c274901b49"/>
               <display value="Amlodipine (as amlodipine besylate) 2.5 mg oral tablet"/>
            </medicationReference>
            <subject>
               <reference value="urn:uuid:54c9df02-a491-4bfb-9202-72b8af5fee75"/>
               <display value="Gülsen Dörschner"/>
            </subject>
            <effectivePeriod>
               <start value="2025-02-16"/>
            </effectivePeriod>
            <reasonCode>
               <coding>
                  <system value="http://snomed.info/sct"/>
                  <code value="59621000"/>
                  <display value="Essential hypertension (disorder)"/>
               </coding>
            </reasonCode>
            <dosage>
               <text value="1 tablet (2.5 mg) by mouth once daily"/>
               <timing>
                  <repeat>
                     <frequency value="1"/>
                     <period value="1"/>
                     <periodUnit value="d"/>
                  </repeat>
               </timing>
               <asNeededBoolean value="false"/>
               <doseAndRate>
                  <doseQuantity>
                     <value value="1"/>
                     <unit value="{tbl}"/>
                     <code value="{tbl}"/>
                  </doseQuantity>
               </doseAndRate>
            </dosage>
         </MedicationStatement>
      </resource>
   </entry>
   <entry>
      <fullUrl value="urn:uuid:d7929aa7-5439-45fb-80f3-ea43a6f6eb3c"/>
      <resource>
         <Medication>
            <id value="d7929aa7-5439-45fb-80f3-ea43a6f6eb3c"/>
            <meta>
               <profile value="http://hl7.eu/fhir/eps/StructureDefinition/Medication-eu-eps"/>
            </meta>
            <text>
               <status value="generated"/>
               <div xmlns="http://www.w3.org/1999/xhtml">Lisinopril 10 mg oral tablet</div>
            </text>
            <code>
               <coding>
                  <system value="http://snomed.info/sct"/>
                  <code value="318859000"/>
                  <display value="Lisinopril 10 mg oral tablet"/>
               </coding>
               <text value="Lisinopril 10 mg oral tablet"/>
            </code>
         </Medication>
      </resource>
   </entry>
   <entry>
      <fullUrl value="urn:uuid:f173715c-05f5-4bb4-993d-d2354c8fe9f2"/>
      <resource>
         <MedicationStatement>
            <id value="f173715c-05f5-4bb4-993d-d2354c8fe9f2"/>
            <meta>
               <profile value="http://hl7.eu/fhir/eps/StructureDefinition/MedicationStatement-eu-eps"/>
            </meta>
            <text>
               <status value="generated"/>
               <div xmlns="http://www.w3.org/1999/xhtml">
                  <table class="hl7__ips first25">
                     <tr>
                        <th>Medication</th>
                        <th>Since</th>
                        <th>Form</th>
                        <th>Dosage</th>
                        <th>Reason</th>
                     </tr>
                     <tr>
                        <td>Lisinopril 10 mg oral tablet</td>
                        <td>
                           <span class="nb">2025-02-16</span>
                        </td>
                        <td>-</td>
                        <td>1 tablet (10 mg) by mouth once daily</td>
                        <td>Essential hypertension (disorder)</td>
                     </tr>
                  </table>
               </div>
            </text>
            <status value="active"/>
            <medicationReference>
               <reference value="urn:uuid:d7929aa7-5439-45fb-80f3-ea43a6f6eb3c"/>
               <display value="Lisinopril 10 mg oral tablet"/>
            </medicationReference>
            <subject>
               <reference value="urn:uuid:54c9df02-a491-4bfb-9202-72b8af5fee75"/>
               <display value="Gülsen Dörschner"/>
            </subject>
            <effectivePeriod>
               <start value="2025-02-16"/>
            </effectivePeriod>
            <reasonCode>
               <coding>
                  <system value="http://snomed.info/sct"/>
                  <code value="59621000"/>
                  <display value="Essential hypertension (disorder)"/>
               </coding>
            </reasonCode>
            <dosage>
               <text value="1 tablet (10 mg) by mouth once daily"/>
               <timing>
                  <repeat>
                     <frequency value="1"/>
                     <period value="1"/>
                     <periodUnit value="d"/>
                  </repeat>
               </timing>
               <asNeededBoolean value="false"/>
               <doseAndRate>
                  <doseQuantity>
                     <value value="1"/>
                     <unit value="{tbl}"/>
                     <code value="{tbl}"/>
                  </doseQuantity>
               </doseAndRate>
            </dosage>
         </MedicationStatement>
      </resource>
   </entry>
   <entry>
      <fullUrl value="urn:uuid:bc8a637e-4bf5-4fd5-b7b2-7ef060d17460"/>
      <resource>
         <Medication>
            <id value="bc8a637e-4bf5-4fd5-b7b2-7ef060d17460"/>
            <meta>
               <profile value="http://hl7.eu/fhir/eps/StructureDefinition/Medication-eu-eps"/>
            </meta>
            <text>
               <status value="generated"/>
               <div xmlns="http://www.w3.org/1999/xhtml">60 ACTUAT Fluticasone propionate 0.25 MG/ACTUAT / salmeterol 0.05 MG/ACTUAT Dry Powder Inhaler</div>
            </text>
            <code>
               <coding>
                  <system value="http://www.nlm.nih.gov/research/umls/rxnorm"/>
                  <code value="896209"/>
                  <display value="60 ACTUAT Fluticasone propionate 0.25 MG/ACTUAT / salmeterol 0.05 MG/ACTUAT Dry Powder Inhaler"/>
               </coding>
               <text value="60 ACTUAT Fluticasone propionate 0.25 MG/ACTUAT / salmeterol 0.05 MG/ACTUAT Dry Powder Inhaler"/>
            </code>
         </Medication>
      </resource>
   </entry>
   <entry>
      <fullUrl value="urn:uuid:b67b0c7a-21ed-4c67-a48d-5130b44020f4"/>
      <resource>
         <MedicationStatement>
            <id value="b67b0c7a-21ed-4c67-a48d-5130b44020f4"/>
            <meta>
               <profile value="http://hl7.eu/fhir/eps/StructureDefinition/MedicationStatement-eu-eps"/>
            </meta>
            <text>
               <status value="generated"/>
               <div xmlns="http://www.w3.org/1999/xhtml">
                  <table class="hl7__ips first25">
                     <tr>
                        <th>Medication</th>
                        <th>Since</th>
                        <th>Form</th>
                        <th>Dosage</th>
                        <th>Reason</th>
                     </tr>
                     <tr>
                        <td>60 ACTUAT Fluticasone propionate 0.25 MG/ACTUAT / salmeterol 0.05 MG/ACTUAT Dry Powder Inhaler</td>
                        <td>
                           <span class="nb">2025-02-16</span>
                        </td>
                        <td>-</td>
                        <td>1 inhalation (0.25 mg/0.05 mg) twice daily</td>
                        <td>Pulmonary emphysema (disorder)</td>
                     </tr>
                  </table>
               </div>
            </text>
            <status value="active"/>
            <medicationReference>
               <reference value="urn:uuid:bc8a637e-4bf5-4fd5-b7b2-7ef060d17460"/>
               <display value="60 ACTUAT Fluticasone propionate 0.25 MG/ACTUAT / salmeterol 0.05 MG/ACTUAT Dry Powder Inhaler"/>
            </medicationReference>
            <subject>
               <reference value="urn:uuid:54c9df02-a491-4bfb-9202-72b8af5fee75"/>
               <display value="Gülsen Dörschner"/>
            </subject>
            <effectivePeriod>
               <start value="2025-02-16"/>
            </effectivePeriod>
            <reasonCode>
               <coding>
                  <system value="http://snomed.info/sct"/>
                  <code value="87433001"/>
                  <display value="Pulmonary emphysema (disorder)"/>
               </coding>
            </reasonCode>
            <dosage>
               <text value="1 inhalation (0.25 mg/0.05 mg) twice daily"/>
               <timing>
                  <repeat>
                     <frequency value="2"/>
                     <period value="1"/>
                     <periodUnit value="d"/>
                  </repeat>
               </timing>
               <asNeededBoolean value="false"/>
               <doseAndRate>
                  <doseQuantity>
                     <value value="1"/>
                     <unit value="actuat"/>
                     <system value="$ucum"/>
                     <code value="{actuat}"/>
                  </doseQuantity>
               </doseAndRate>
            </dosage>
         </MedicationStatement>
      </resource>
   </entry>
   <entry>
      <fullUrl value="urn:uuid:8a0e3be6-2b1e-44b6-a1ca-1a237e51bb16"/>
      <resource>
         <Medication>
            <id value="8a0e3be6-2b1e-44b6-a1ca-1a237e51bb16"/>
            <meta>
               <profile value="http://hl7.eu/fhir/eps/StructureDefinition/Medication-eu-eps"/>
            </meta>
            <text>
               <status value="generated"/>
               <div xmlns="http://www.w3.org/1999/xhtml">Acetaminophen 325 MG / Oxycodone Hydrochloride 10 MG Oral Tablet [Percocet]</div>
            </text>
            <code>
               <coding>
                  <system value="http://www.nlm.nih.gov/research/umls/rxnorm"/>
                  <code value="1049625"/>
                  <display value="Acetaminophen 325 MG / Oxycodone Hydrochloride 10 MG Oral Tablet [Percocet]"/>
               </coding>
               <text value="Acetaminophen 325 MG / Oxycodone Hydrochloride 10 MG Oral Tablet [Percocet]"/>
            </code>
         </Medication>
      </resource>
   </entry>
   <entry>
      <fullUrl value="urn:uuid:0394c7cd-654f-44b4-b1df-edec6ab8b266"/>
      <resource>
         <MedicationStatement>
            <id value="0394c7cd-654f-44b4-b1df-edec6ab8b266"/>
            <meta>
               <profile value="http://hl7.eu/fhir/eps/StructureDefinition/MedicationStatement-eu-eps"/>
            </meta>
            <text>
               <status value="generated"/>
               <div xmlns="http://www.w3.org/1999/xhtml">
                  <table class="hl7__ips first25">
                     <tr>
                        <th>Medication</th>
                        <th>Since</th>
                        <th>Form</th>
                        <th>Dosage</th>
                        <th>Reason</th>
                     </tr>
                     <tr>
                        <td>Acetaminophen 325 MG / Oxycodone Hydrochloride 10 MG Oral Tablet [Percocet]</td>
                        <td>
                           <span class="nb">2025-02-16</span>
                        </td>
                        <td>-</td>
                        <td>1 tablet (325 mg acetaminophen / 10 mg oxycodone) every 6 hours as needed for pain</td>
                        <td>-</td>
                     </tr>
                  </table>
               </div>
            </text>
            <status value="active"/>
            <medicationReference>
               <reference value="urn:uuid:8a0e3be6-2b1e-44b6-a1ca-1a237e51bb16"/>
               <display value="Acetaminophen 325 MG / Oxycodone Hydrochloride 10 MG Oral Tablet [Percocet]"/>
            </medicationReference>
            <subject>
               <reference value="urn:uuid:54c9df02-a491-4bfb-9202-72b8af5fee75"/>
               <display value="Gülsen Dörschner"/>
            </subject>
            <effectivePeriod>
               <start value="2025-02-16"/>
            </effectivePeriod>
            <dosage>
               <text value="1 tablet (325 mg acetaminophen / 10 mg oxycodone) every 6 hours as needed for pain"/>
               <timing>
                  <repeat>
                     <frequency value="4"/>
                     <period value="1"/>
                     <periodUnit value="d"/>
                  </repeat>
               </timing>
               <asNeededBoolean value="true"/>
               <doseAndRate>
                  <doseQuantity>
                     <value value="1"/>
                     <unit value="{tbl}"/>
                     <system value="$ucum"/>
                     <code value="{tbl}"/>
                  </doseQuantity>
               </doseAndRate>
            </dosage>
         </MedicationStatement>
      </resource>
   </entry>
   <entry>
      <fullUrl value="urn:uuid:02e6f842-3f9e-44d1-bf92-f7dbb043cb3d"/>
      <resource>
         <Medication>
            <id value="02e6f842-3f9e-44d1-bf92-f7dbb043cb3d"/>
            <meta>
               <profile value="http://hl7.eu/fhir/eps/StructureDefinition/Medication-eu-eps"/>
            </meta>
            <text>
               <status value="generated"/>
               <div xmlns="http://www.w3.org/1999/xhtml">Naproxen sodium 220 mg oral capsule</div>
            </text>
            <code>
               <coding>
                  <system value="http://snomed.info/sct"/>
                  <code value="420276008"/>
                  <display value="Naproxen sodium 220 mg oral capsule"/>
               </coding>
               <text value="Naproxen sodium 220 mg oral capsule"/>
            </code>
         </Medication>
      </resource>
   </entry>
   <entry>
      <fullUrl value="urn:uuid:72260d7e-d260-4c4f-91db-830101089b2f"/>
      <resource>
         <MedicationStatement>
            <id value="72260d7e-d260-4c4f-91db-830101089b2f"/>
            <meta>
               <profile value="http://hl7.eu/fhir/eps/StructureDefinition/MedicationStatement-eu-eps"/>
            </meta>
            <text>
               <status value="generated"/>
               <div xmlns="http://www.w3.org/1999/xhtml">
                  <table class="hl7__ips first25">
                     <tr>
                        <th>Medication</th>
                        <th>Since</th>
                        <th>Form</th>
                        <th>Dosage</th>
                        <th>Reason</th>
                     </tr>
                     <tr>
                        <td>Naproxen sodium 220 mg oral capsule</td>
                        <td>
                           <span class="nb">2017-09-21</span>
                        </td>
                        <td>-</td>
                        <td>1 tablet (220 mg) by mouth every 12 hours as needed</td>
                        <td>Osteoarthritis of knee</td>
                     </tr>
                  </table>
               </div>
            </text>
            <status value="active"/>
            <medicationReference>
               <reference value="urn:uuid:02e6f842-3f9e-44d1-bf92-f7dbb043cb3d"/>
               <display value="Naproxen sodium 220 mg oral capsule"/>
            </medicationReference>
            <subject>
               <reference value="urn:uuid:54c9df02-a491-4bfb-9202-72b8af5fee75"/>
               <display value="Gülsen Dörschner"/>
            </subject>
            <effectivePeriod>
               <start value="2017-09-21"/>
            </effectivePeriod>
            <reasonCode>
               <coding>
                  <system value="http://snomed.info/sct"/>
                  <code value="239873007"/>
                  <display value="Osteoarthritis of knee"/>
               </coding>
            </reasonCode>
            <dosage>
               <text value="1 tablet (220 mg) by mouth every 12 hours as needed"/>
               <timing>
                  <repeat>
                     <frequency value="2"/>
                     <period value="1"/>
                     <periodUnit value="d"/>
                  </repeat>
               </timing>
               <asNeededBoolean value="true"/>
               <doseAndRate>
                  <doseQuantity>
                     <value value="1"/>
                     <unit value="{tbl}"/>
                     <system value="$ucum"/>
                     <code value="{tbl}"/>
                  </doseQuantity>
               </doseAndRate>
            </dosage>
         </MedicationStatement>
      </resource>
   </entry>
   <entry>
      <fullUrl value="urn:uuid:2a5cb387-d1c9-4962-92fb-3a986a669f1b"/>
      <resource>
         <Medication>
            <id value="2a5cb387-d1c9-4962-92fb-3a986a669f1b"/>
            <meta>
               <profile value="http://hl7.eu/fhir/eps/StructureDefinition/Medication-eu-eps"/>
            </meta>
            <text>
               <status value="generated"/>
               <div xmlns="http://www.w3.org/1999/xhtml">Vitamin B12 5 MG/ML Injectable Solution</div>
            </text>
            <code>
               <coding>
                  <system value="http://www.nlm.nih.gov/research/umls/rxnorm"/>
                  <code value="2001499"/>
                  <display value="Vitamin B12 5 MG/ML Injectable Solution"/>
               </coding>
               <text value="Vitamin B12 5 MG/ML Injectable Solution"/>
            </code>
         </Medication>
      </resource>
   </entry>
   <entry>
      <fullUrl value="urn:uuid:2fb09854-38f4-4c31-ace8-bebdf782b883"/>
      <resource>
         <MedicationStatement>
            <id value="2fb09854-38f4-4c31-ace8-bebdf782b883"/>
            <meta>
               <profile value="http://hl7.eu/fhir/eps/StructureDefinition/MedicationStatement-eu-eps"/>
            </meta>
            <text>
               <status value="generated"/>
               <div xmlns="http://www.w3.org/1999/xhtml">
                  <table class="hl7__ips first25">
                     <tr>
                        <th>Medication</th>
                        <th>Since</th>
                        <th>Form</th>
                        <th>Dosage</th>
                        <th>Reason</th>
                     </tr>
                     <tr>
                        <td>Vitamin B12 5 MG/ML Injectable Solution</td>
                        <td>
                           <span class="nb">1992-05-10</span>
                        </td>
                        <td>-</td>
                        <td>1 mg (1 mL) intramuscularly once weekly</td>
                        <td>-</td>
                     </tr>
                  </table>
               </div>
            </text>
            <status value="active"/>
            <medicationReference>
               <reference value="urn:uuid:2a5cb387-d1c9-4962-92fb-3a986a669f1b"/>
               <display value="Vitamin B12 5 MG/ML Injectable Solution"/>
            </medicationReference>
            <subject>
               <reference value="urn:uuid:54c9df02-a491-4bfb-9202-72b8af5fee75"/>
               <display value="Gülsen Dörschner"/>
            </subject>
            <effectivePeriod>
               <start value="1992-05-10"/>
            </effectivePeriod>
            <dosage>
               <text value="1 mg (1 mL) intramuscularly once weekly"/>
               <timing>
                  <repeat>
                     <frequency value="1"/>
                     <period value="1"/>
                     <periodUnit value="wk"/>
                  </repeat>
               </timing>
               <asNeededBoolean value="false"/>
               <doseAndRate>
                  <doseQuantity>
                     <value value="1"/>
                     <unit value="mg"/>
                     <code value="mg"/>
                  </doseQuantity>
               </doseAndRate>
            </dosage>
         </MedicationStatement>
      </resource>
   </entry>
   <entry>
      <fullUrl value="urn:uuid:f520717d-7874-4384-8501-867c76bd0531"/>
      <resource>
         <Immunization>
            <id value="f520717d-7874-4384-8501-867c76bd0531"/>
            <meta>
               <profile value="http://hl7.org/fhir/uv/ips/StructureDefinition/Immunization-uv-ips"/>
            </meta>
            <text>
               <status value="generated"/>
               <div xmlns="http://www.w3.org/1999/xhtml">
                  <table class="hl7__ips">
                     <tr>
                        <td>Influenza virus antigen only vaccine product</td>
                        <td>
                           <span class="nb">16-Feb-2025</span>
                        </td>
                     </tr>
                  </table>
               </div>
            </text>
            <status value="completed"/>
            <vaccineCode>
               <coding>
                  <system value="http://snomed.info/sct"/>
                  <code value="1181000221105"/>
                  <display value="Vaccine product containing Influenza virus antigen"/>
               </coding>
               <coding>
                  <system value="http://www.whocc.no/atc"/>
                  <code value="J07BB02"/>
                  <display value="Influenza, inactivated, split virus"/>
               </coding>
               <text value="Influenza virus antigen only vaccine product"/>
            </vaccineCode>
            <patient>
               <reference value="urn:uuid:54c9df02-a491-4bfb-9202-72b8af5fee75"/>
               <display value="Gülsen Dörschner"/>
            </patient>
            <occurrenceDateTime value="2025-02-16"/>
            <lotNumber value="JS-2O76F3IH"/>
            <expirationDate value="2026-02-18"/>
            <site>
               <coding>
                  <system value="http://snomed.info/sct"/>
                  <code value="244979005"/>
                  <display value="Entire muscle of upper arm"/>
               </coding>
               <text value="Entire muscle of upper arm"/>
            </site>
            <route>
               <coding>
                  <system value="http://snomed.info/sct"/>
                  <code value="78421000"/>
                  <display value="Intramuscular route"/>
               </coding>
               <text value="Intramuscular route"/>
            </route>
         </Immunization>
      </resource>
   </entry>
   <entry>
      <fullUrl value="urn:uuid:c40c50b2-d69d-4aca-a814-fe763e75957d"/>
      <resource>
         <Immunization>
            <id value="c40c50b2-d69d-4aca-a814-fe763e75957d"/>
            <meta>
               <profile value="http://hl7.org/fhir/uv/ips/StructureDefinition/Immunization-uv-ips"/>
            </meta>
            <text>
               <status value="generated"/>
               <div xmlns="http://www.w3.org/1999/xhtml">
                  <table class="hl7__ips">
                     <tr>
                        <td>SARS-CoV-2 mRNA vaccine</td>
                        <td>
                           <span class="nb">25-Apr-2021</span>
                        </td>
                     </tr>
                  </table>
               </div>
            </text>
            <status value="completed"/>
            <vaccineCode>
               <coding>
                  <system value="http://snomed.info/sct"/>
                  <code value="1119349007"/>
                  <display value="Vaccine product containing SARS-CoV-2 mRNA"/>
               </coding>
               <coding>
                  <system value="http://www.whocc.no/atc"/>
                  <code value="J07BX03"/>
                  <display value="COVID-19 mRNA vaccines"/>
               </coding>
               <text value="SARS-CoV-2 mRNA vaccine"/>
            </vaccineCode>
            <patient>
               <reference value="urn:uuid:54c9df02-a491-4bfb-9202-72b8af5fee75"/>
               <display value="Gülsen Dörschner"/>
            </patient>
            <occurrenceDateTime value="2021-04-25"/>
            <lotNumber value="FS-Mi1Ms5P"/>
            <expirationDate value="2021-06-03"/>
            <site>
               <coding>
                  <system value="http://snomed.info/sct"/>
                  <code value="244979005"/>
                  <display value="Entire muscle of upper arm"/>
               </coding>
               <text value="Entire muscle of upper arm"/>
            </site>
            <route>
               <coding>
                  <system value="http://snomed.info/sct"/>
                  <code value="78421000"/>
                  <display value="Intramuscular route"/>
               </coding>
               <text value="Intramuscular route"/>
            </route>
         </Immunization>
      </resource>
   </entry>
   <entry>
      <fullUrl value="urn:uuid:a6f725fb-43a3-456f-9515-0c4e80de7e90"/>
      <resource>
         <Immunization>
            <id value="a6f725fb-43a3-456f-9515-0c4e80de7e90"/>
            <meta>
               <profile value="http://hl7.org/fhir/uv/ips/StructureDefinition/Immunization-uv-ips"/>
            </meta>
            <text>
               <status value="generated"/>
               <div xmlns="http://www.w3.org/1999/xhtml">
                  <table class="hl7__ips">
                     <tr>
                        <td>Clostridium tetani toxoid antigen adsorbed only vaccine product</td>
                        <td>
                           <span class="nb">24-Jan-2021</span>
                        </td>
                     </tr>
                  </table>
               </div>
            </text>
            <status value="completed"/>
            <vaccineCode>
               <coding>
                  <system value="http://snomed.info/sct"/>
                  <code value="777725002"/>
                  <display value="Vaccine product containing only Clostridium tetani toxoid antigen adsorbed"/>
               </coding>
               <coding>
                  <system value="http://www.whocc.no/atc"/>
                  <code value="J07AM51"/>
                  <display value="Diphtheria-tetanus vaccines, adult type"/>
               </coding>
               <text value="Clostridium tetani toxoid antigen adsorbed only vaccine product"/>
            </vaccineCode>
            <patient>
               <reference value="urn:uuid:54c9df02-a491-4bfb-9202-72b8af5fee75"/>
               <display value="Gülsen Dörschner"/>
            </patient>
            <occurrenceDateTime value="2021-01-24"/>
            <lotNumber value="VJ-eGbpI8ks"/>
            <expirationDate value="2021-12-06"/>
            <site>
               <coding>
                  <system value="http://snomed.info/sct"/>
                  <code value="244979005"/>
                  <display value="Entire muscle of upper arm"/>
               </coding>
               <text value="Entire muscle of upper arm"/>
            </site>
            <route>
               <coding>
                  <system value="http://snomed.info/sct"/>
                  <code value="78421000"/>
                  <display value="Intramuscular route"/>
               </coding>
               <text value="Intramuscular route"/>
            </route>
         </Immunization>
      </resource>
   </entry>
   <entry>
      <fullUrl value="urn:uuid:441f07e2-4021-4c03-81d3-ff777c7a239c"/>
      <resource>
         <Immunization>
            <id value="441f07e2-4021-4c03-81d3-ff777c7a239c"/>
            <meta>
               <profile value="http://hl7.org/fhir/uv/ips/StructureDefinition/Immunization-uv-ips"/>
            </meta>
            <text>
               <status value="generated"/>
               <div xmlns="http://www.w3.org/1999/xhtml">
                  <table class="hl7__ips">
                     <tr>
                        <td>Live attenuated Human alphaherpesvirus 3 only vaccine product</td>
                        <td>
                           <span class="nb">24-Jan-2021</span>
                        </td>
                     </tr>
                  </table>
               </div>
            </text>
            <status value="completed"/>
            <vaccineCode>
               <coding>
                  <system value="http://snomed.info/sct"/>
                  <code value="2221000221107"/>
                  <display value="Live attenuated Varicella-zoster vaccine"/>
               </coding>
               <coding>
                  <system value="http://www.whocc.no/atc"/>
                  <code value="J07BK02"/>
                  <display value="Varicella-zoster vaccines"/>
               </coding>
               <text value="Live attenuated Human alphaherpesvirus 3 only vaccine product"/>
            </vaccineCode>
            <patient>
               <reference value="urn:uuid:54c9df02-a491-4bfb-9202-72b8af5fee75"/>
               <display value="Gülsen Dörschner"/>
            </patient>
            <occurrenceDateTime value="2021-01-24"/>
            <lotNumber value="DI-Pzt8I"/>
            <expirationDate value="2021-06-30"/>
            <site>
               <coding>
                  <system value="http://snomed.info/sct"/>
                  <code value="368208006"/>
                  <display value="Left upper arm structure"/>
               </coding>
               <text value="Left upper arm structure"/>
            </site>
            <route>
               <coding>
                  <system value="http://snomed.info/sct"/>
                  <code value="34206005"/>
                  <display value="Subcutaneous route"/>
               </coding>
               <text value="Subcutaneous route"/>
            </route>
         </Immunization>
      </resource>
   </entry>
   <entry>
      <fullUrl value="urn:uuid:662c0bbd-fe24-4f21-88ce-67684c869831"/>
      <resource>
         <Procedure>
            <id value="662c0bbd-fe24-4f21-88ce-67684c869831"/>
            <meta>
               <profile value="http://hl7.org/fhir/uv/ips/StructureDefinition/Procedure-uv-ips"/>
            </meta>
            <text>
               <status value="generated"/>
               <div xmlns="http://www.w3.org/1999/xhtml">
                  <table class="hl7__ips">
                     <tr>
                        <td>Parturition</td>
                        <td>
                           <span class="nb">12-Jul-2020</span>
                        </td>
                        <td>Normal pregnancy</td>
                     </tr>
                  </table>
               </div>
            </text>
            <status value="completed"/>
            <code>
               <coding>
                  <system value="http://snomed.info/sct"/>
                  <code value="66348005"/>
                  <display value="Childbirth"/>
               </coding>
               <text value="Parturition"/>
            </code>
            <subject>
               <reference value="urn:uuid:"/>
               <display value="Gülsen Dörschner"/>
            </subject>
            <performedDateTime value="2020-07-12"/>
            <reasonCode>
               <coding>
                  <system value="http://snomed.info/sct"/>
                  <code value="72892002"/>
                  <display value="Normal pregnancy"/>
               </coding>
            </reasonCode>
         </Procedure>
      </resource>
   </entry>
   <entry>
      <fullUrl value="urn:uuid:108352a8-5ee1-408d-8280-a8603321fddc"/>
      <resource>
         <AllergyIntolerance>
            <id value="108352a8-5ee1-408d-8280-a8603321fddc"/>
            <meta>
               <profile value="http://hl7.eu/fhir/eps/StructureDefinition/allergyIntolerance-eu-eps"/>
            </meta>
            <text>
               <status value="generated"/>
               <div xmlns="http://www.w3.org/1999/xhtml">
                  <table class="hl7__ips">
                     <tr>
                        <th>Allergy/Intolerance</th>
                        <th>Onset Date</th>
                        <th>Status</th>
                        <th>Type</th>
                        <th>Reaction</th>
                     </tr>
                     <tr>
                        <td/>
                        <td>?</td>
                        <td>active</td>
                        <td>?</td>
                        <td/>
                     </tr>
                  </table>
               </div>
            </text>
            <clinicalStatus>
               <coding>
                  <system value="http://terminology.hl7.org/CodeSystem/allergyintolerance-clinical"/>
                  <code value="active"/>
               </coding>
            </clinicalStatus>
            <verificationStatus>
               <coding>
                  <system value="http://terminology.hl7.org/CodeSystem/allergyintolerance-verification"/>
                  <code value="confirmed"/>
               </coding>
            </verificationStatus>
            <code>
               <text/>
            </code>
            <patient>
               <reference value="urn:uuid:54c9df02-a491-4bfb-9202-72b8af5fee75"/>
               <display value="Gülsen Dörschner"/>
            </patient>
            <onsetDateTime>
               <extension url="http://hl7.org/fhir/StructureDefinition/data-absent-reason">
                  <valueCode value="unknown"/>
               </extension>
            </onsetDateTime>
         </AllergyIntolerance>
      </resource>
   </entry>
   <entry>
      <fullUrl value="urn:uuid:806013cd-48c1-43e1-9026-099695f7622d"/>
      <resource>
         <CarePlan>
            <id value="806013cd-48c1-43e1-9026-099695f7622d"/>
            <text>
               <status value="generated"/>
               <div xmlns="http://www.w3.org/1999/xhtml">
                  <table class="hl7__ips first25">
                     <tr>
                        <th>Active Planned Care / Goals</th>
                        <th>Start Date</th>
                        <th>Reason</th>
                     </tr>
                     <tr>
                        <td>Musculoskeletal care</td>
                        <td>
                           <span class="nb">21-Sep-2017</span>
                        </td>
                        <td>Osteoarthritis of knee</td>
                     </tr>
                     <tr>
                        <td>
                           <ul>
                              <li>Reduce knee pain severity to improve mobility and quality of life.</li>
                              <li>Increase ability to perform activities of daily living without knee limitation.</li>
                              <li>Achieve at least 150 minutes of moderate physical activity per week.</li>
                           </ul>
                        </td>
                        <td/>
                        <td/>
                     </tr>
                  </table>
               </div>
            </text>
            <status value="active"/>
            <intent value="plan"/>
            <category>
               <coding>
                  <system value="http://terminology.hl7.org/CodeSystem/care-plan-category"/>
                  <code value="assess-plan"/>
                  <display value="Assessment and Plan"/>
               </coding>
            </category>
            <subject>
               <reference value="urn:uuid:54c9df02-a491-4bfb-9202-72b8af5fee75"/>
               <display value="Gülsen Dörschner"/>
            </subject>
            <period>
               <start value="2017-09-21"/>
            </period>
            <goal>
               <reference value="urn:uuid:84986de3-05a3-4411-be2f-5ced0af7c629"/>
            </goal>
            <goal>
               <reference value="urn:uuid:5382cb72-1073-4989-9ae6-cd750b547a78"/>
            </goal>
            <goal>
               <reference value="urn:uuid:cda1242c-4221-4d25-a20c-61e60ca3022c"/>
            </goal>
            <activity>
               <detail>
                  <kind value="Appointment"/>
                  <code>
                     <coding>
                        <system value="http://snomed.info/sct"/>
                        <code value="408869004"/>
                        <display value="Musculoskeletal care (regime/therapy)"/>
                     </coding>
                  </code>
                  <reasonCode>
                     <coding>
                        <system value="http://snomed.info/sct"/>
                        <code value="239873007"/>
                        <display value="Osteoarthritis of knee"/>
                     </coding>
                  </reasonCode>
                  <status value="unknown"/>
                  <description value="Musculoskeletal care"/>
               </detail>
            </activity>
         </CarePlan>
      </resource>
   </entry>
   <entry>
      <fullUrl value="urn:uuid:ee184653-856a-4fa2-9e21-e5ab0d611b7b"/>
      <resource>
         <CarePlan>
            <id value="ee184653-856a-4fa2-9e21-e5ab0d611b7b"/>
            <text>
               <status value="generated"/>
               <div xmlns="http://www.w3.org/1999/xhtml">
                  <table class="hl7__ips first25">
                     <tr>
                        <th>Active Planned Care / Goals</th>
                        <th>Start Date</th>
                        <th>Reason</th>
                     </tr>
                     <tr>
                        <td>Chronic obstructive pulmonary disease clinical management plan</td>
                        <td>
                           <span class="nb">03-May-1992</span>
                        </td>
                        <td>Pulmonary emphysema (disorder)</td>
                     </tr>
                     <tr>
                        <td>
                           <ul>
                              <li>Minimize the number of acute COPD exacerbations requiring medical intervention over the next 12 months</li>
                              <li>Increase forced expiratory volume in 1 second (FEV1) to at least 1.5 liters</li>
                              <li>Maintain peripheral oxygen saturation (SpO2) at or above 92% at rest</li>
                              <li>Patient will abstain from tobacco use continuously</li>
                              <li>Patient will walk at least 300 meters in 6 minutes</li>
                           </ul>
                        </td>
                        <td/>
                        <td/>
                     </tr>
                  </table>
               </div>
            </text>
            <status value="active"/>
            <intent value="plan"/>
            <category>
               <coding>
                  <system value="http://terminology.hl7.org/CodeSystem/care-plan-category"/>
                  <code value="assess-plan"/>
                  <display value="Assessment and Plan"/>
               </coding>
            </category>
            <subject>
               <reference value="urn:uuid:54c9df02-a491-4bfb-9202-72b8af5fee75"/>
               <display value="Gülsen Dörschner"/>
            </subject>
            <period>
               <start value="1992-05-03"/>
            </period>
            <goal>
               <reference value="urn:uuid:588f339a-69ca-423c-bc47-106766fe8f94"/>
            </goal>
            <goal>
               <reference value="urn:uuid:3c5b9a4e-8071-4911-9fcd-55cde94347cd"/>
            </goal>
            <goal>
               <reference value="urn:uuid:018b7a7c-1ea5-49cc-a91c-29c54d818288"/>
            </goal>
            <goal>
               <reference value="urn:uuid:617f0be8-0fee-45f1-af69-20facda76c67"/>
            </goal>
            <goal>
               <reference value="urn:uuid:2136517d-2a8c-48d6-8a69-f9c7496e2c4b"/>
            </goal>
            <activity>
               <detail>
                  <kind value="Appointment"/>
                  <code>
                     <coding>
                        <system value="http://snomed.info/sct"/>
                        <code value="412776001"/>
                        <display value="Chronic obstructive pulmonary disease clinical management plan (qualifier value)"/>
                     </coding>
                  </code>
                  <reasonCode>
                     <coding>
                        <system value="http://snomed.info/sct"/>
                        <code value="87433001"/>
                        <display value="Pulmonary emphysema (disorder)"/>
                     </coding>
                  </reasonCode>
                  <status value="unknown"/>
                  <description value="Chronic obstructive pulmonary disease clinical management plan"/>
               </detail>
            </activity>
         </CarePlan>
      </resource>
   </entry>
   <entry>
      <fullUrl value="urn:uuid:8acbf4c3-2b59-4772-885a-f4b23579b576"/>
      <resource>
         <CarePlan>
            <id value="8acbf4c3-2b59-4772-885a-f4b23579b576"/>
            <text>
               <status value="generated"/>
               <div xmlns="http://www.w3.org/1999/xhtml">
                  <table class="hl7__ips first25">
                     <tr>
                        <th>Active Planned Care / Goals</th>
                        <th>Start Date</th>
                        <th>Reason</th>
                     </tr>
                     <tr>
                        <td>Lifestyle education regarding hypertension</td>
                        <td>
                           <span class="nb">10-Jul-1988</span>
                        </td>
                        <td>Essential hypertension (disorder)</td>
                     </tr>
                     <tr>
                        <td>
                           <ul>
                              <li>Maintain blood pressure below 130/80 mmHg through lifestyle modifications</li>
                              <li>Limit daily sodium intake to less than 2.3 grams</li>
                              <li>Achieve at least 5% reduction in body weight</li>
                              <li>Engage in at least 150 minutes of moderate-intensity aerobic activity per week</li>
                           </ul>
                        </td>
                        <td/>
                        <td/>
                     </tr>
                  </table>
               </div>
            </text>
            <status value="active"/>
            <intent value="plan"/>
            <category>
               <coding>
                  <system value="http://terminology.hl7.org/CodeSystem/care-plan-category"/>
                  <code value="assess-plan"/>
                  <display value="Assessment and Plan"/>
               </coding>
            </category>
            <subject>
               <reference value="urn:uuid:54c9df02-a491-4bfb-9202-72b8af5fee75"/>
               <display value="Gülsen Dörschner"/>
            </subject>
            <period>
               <start value="1988-07-10"/>
            </period>
            <goal>
               <reference value="urn:uuid:9473676f-dbbf-4735-b069-2eef4d8eff3d"/>
            </goal>
            <goal>
               <reference value="urn:uuid:94f33ede-861c-4588-99f2-fae938fcfd0a"/>
            </goal>
            <goal>
               <reference value="urn:uuid:34d0fc10-4d84-4fa5-99a1-6f1205fbf40d"/>
            </goal>
            <goal>
               <reference value="urn:uuid:8a2ccbd0-3993-4199-b887-08360976024b"/>
            </goal>
            <activity>
               <detail>
                  <kind value="Appointment"/>
                  <code>
                     <coding>
                        <system value="http://snomed.info/sct"/>
                        <code value="443402002"/>
                        <display value="Lifestyle education regarding hypertension (procedure)"/>
                     </coding>
                  </code>
                  <reasonCode>
                     <coding>
                        <system value="http://snomed.info/sct"/>
                        <code value="59621000"/>
                        <display value="Essential hypertension (disorder)"/>
                     </coding>
                  </reasonCode>
                  <status value="unknown"/>
                  <description value="Lifestyle education regarding hypertension"/>
               </detail>
            </activity>
         </CarePlan>
      </resource>
   </entry>
   <entry>
      <fullUrl value="urn:uuid:d8d1074c-cc7e-46a4-b31c-26071f415640"/>
      <resource>
         <Observation>
            <id value="d8d1074c-cc7e-46a4-b31c-26071f415640"/>
            <meta>
               <profile value="http://hl7.org/fhir/StructureDefinition/vitalsigns"/>
            </meta>
            <text>
               <status value="generated"/>
               <div xmlns="http://www.w3.org/1999/xhtml">
                  <table class="hl7__ips">
                     <tr>
                        <th>Vital Sign</th>
                        <th>Date</th>
                        <th>Measurement</th>
                     </tr>
                     <tr>
                        <td>Body temperature</td>
                        <td>04-May-2025</td>
                        <td>37.4 Cel</td>
                     </tr>
                  </table>
               </div>
            </text>
            <status value="final"/>
            <category>
               <coding>
                  <system value="http://terminology.hl7.org/CodeSystem/observation-category"/>
                  <code value="vital-signs"/>
                  <display value="Vital Signs"/>
               </coding>
            </category>
            <code>
               <coding>
                  <system value="http://loinc.org"/>
                  <code value="$8310-5"/>
                  <display value="Body temperature"/>
               </coding>
            </code>
            <subject>
               <reference value="urn:uuid:54c9df02-a491-4bfb-9202-72b8af5fee75"/>
               <display value="Gülsen Dörschner"/>
            </subject>
            <effectiveDateTime value="2025-05-04"/>
            <valueQuantity>
               <value value="37.4"/>
               <unit value="Cel"/>
               <code value="Cel"/>
            </valueQuantity>
         </Observation>
      </resource>
   </entry>
   <entry>
      <fullUrl value="urn:uuid:f3c83d7c-c445-44f3-8fc8-c79fe5cd9ae4"/>
      <resource>
         <Observation>
            <id value="f3c83d7c-c445-44f3-8fc8-c79fe5cd9ae4"/>
            <meta>
               <profile value="http://hl7.org/fhir/StructureDefinition/vitalsigns"/>
            </meta>
            <text>
               <status value="generated"/>
               <div xmlns="http://www.w3.org/1999/xhtml">
                  <table class="hl7__ips">
                     <tr>
                        <th>Vital Sign</th>
                        <th>Date</th>
                        <th>Measurement</th>
                     </tr>
                     <tr>
                        <td>Body Height</td>
                        <td>16-Feb-2025</td>
                        <td>172 cm</td>
                     </tr>
                  </table>
               </div>
            </text>
            <status value="final"/>
            <category>
               <coding>
                  <system value="http://terminology.hl7.org/CodeSystem/observation-category"/>
                  <code value="vital-signs"/>
                  <display value="Vital Signs"/>
               </coding>
            </category>
            <code>
               <coding>
                  <system value="http://loinc.org"/>
                  <code value="$8302-2"/>
                  <display value="Body Height"/>
               </coding>
            </code>
            <subject>
               <reference value="urn:uuid:54c9df02-a491-4bfb-9202-72b8af5fee75"/>
               <display value="Gülsen Dörschner"/>
            </subject>
            <effectiveDateTime value="2025-02-16"/>
            <valueQuantity>
               <value value="172"/>
               <unit value="cm"/>
               <code value="cm"/>
            </valueQuantity>
         </Observation>
      </resource>
   </entry>
   <entry>
      <fullUrl value="urn:uuid:4905737c-8a65-4fb0-9223-b15c4752db6d"/>
      <resource>
         <Observation>
            <id value="4905737c-8a65-4fb0-9223-b15c4752db6d"/>
            <meta>
               <profile value="http://hl7.org/fhir/StructureDefinition/vitalsigns"/>
            </meta>
            <text>
               <status value="generated"/>
               <div xmlns="http://www.w3.org/1999/xhtml">
                  <table class="hl7__ips">
                     <tr>
                        <th>Vital Sign</th>
                        <th>Date</th>
                        <th>Measurement</th>
                     </tr>
                     <tr>
                        <td>Pain severity - 0-10 verbal numeric rating [Score] - Reported</td>
                        <td>16-Feb-2025</td>
                        <td>4 {score}</td>
                     </tr>
                  </table>
               </div>
            </text>
            <status value="final"/>
            <category>
               <coding>
                  <system value="http://terminology.hl7.org/CodeSystem/observation-category"/>
                  <code value="vital-signs"/>
                  <display value="Vital Signs"/>
               </coding>
            </category>
            <code>
               <coding>
                  <system value="http://loinc.org"/>
                  <code value="$72514-3"/>
                  <display value="Pain severity - 0-10 verbal numeric rating [Score] - Reported"/>
               </coding>
            </code>
            <subject>
               <reference value="urn:uuid:54c9df02-a491-4bfb-9202-72b8af5fee75"/>
               <display value="Gülsen Dörschner"/>
            </subject>
            <effectiveDateTime value="2025-02-16"/>
            <valueQuantity>
               <value value="4"/>
               <unit value="{score}"/>
               <code value="{score}"/>
            </valueQuantity>
         </Observation>
      </resource>
   </entry>
   <entry>
      <fullUrl value="urn:uuid:959407c3-de94-412b-9a06-729fc053b597"/>
      <resource>
         <Observation>
            <id value="959407c3-de94-412b-9a06-729fc053b597"/>
            <meta>
               <profile value="http://hl7.org/fhir/StructureDefinition/vitalsigns"/>
            </meta>
            <text>
               <status value="generated"/>
               <div xmlns="http://www.w3.org/1999/xhtml">
                  <table class="hl7__ips">
                     <tr>
                        <th>Vital Sign</th>
                        <th>Date</th>
                        <th>Measurement</th>
                     </tr>
                     <tr>
                        <td>Body Weight</td>
                        <td>16-Feb-2025</td>
                        <td>83.6 kg</td>
                     </tr>
                  </table>
               </div>
            </text>
            <status value="final"/>
            <category>
               <coding>
                  <system value="http://terminology.hl7.org/CodeSystem/observation-category"/>
                  <code value="vital-signs"/>
                  <display value="Vital Signs"/>
               </coding>
            </category>
            <code>
               <coding>
                  <system value="http://loinc.org"/>
                  <code value="$29463-7"/>
                  <display value="Body Weight"/>
               </coding>
            </code>
            <subject>
               <reference value="urn:uuid:54c9df02-a491-4bfb-9202-72b8af5fee75"/>
               <display value="Gülsen Dörschner"/>
            </subject>
            <effectiveDateTime value="2025-02-16"/>
            <valueQuantity>
               <value value="83.6"/>
               <unit value="kg"/>
               <code value="kg"/>
            </valueQuantity>
         </Observation>
      </resource>
   </entry>
   <entry>
      <fullUrl value="urn:uuid:2a3eb9bd-0d4d-44b8-89ff-eda85ec8b5e5"/>
      <resource>
         <Observation>
            <id value="2a3eb9bd-0d4d-44b8-89ff-eda85ec8b5e5"/>
            <meta>
               <profile value="http://hl7.org/fhir/StructureDefinition/vitalsigns"/>
            </meta>
            <text>
               <status value="generated"/>
               <div xmlns="http://www.w3.org/1999/xhtml">
                  <table class="hl7__ips">
                     <tr>
                        <th>Vital Sign</th>
                        <th>Date</th>
                        <th>Measurement</th>
                     </tr>
                     <tr>
                        <td>Body mass index (BMI) [Ratio]</td>
                        <td>16-Feb-2025</td>
                        <td>28.3 kg/m2</td>
                     </tr>
                  </table>
               </div>
            </text>
            <status value="final"/>
            <category>
               <coding>
                  <system value="http://terminology.hl7.org/CodeSystem/observation-category"/>
                  <code value="vital-signs"/>
                  <display value="Vital Signs"/>
               </coding>
            </category>
            <code>
               <coding>
                  <system value="http://loinc.org"/>
                  <code value="$39156-5"/>
                  <display value="Body mass index (BMI) [Ratio]"/>
               </coding>
            </code>
            <subject>
               <reference value="urn:uuid:54c9df02-a491-4bfb-9202-72b8af5fee75"/>
               <display value="Gülsen Dörschner"/>
            </subject>
            <effectiveDateTime value="2025-02-16"/>
            <valueQuantity>
               <value value="28.3"/>
               <unit value="kg/m2"/>
               <code value="kg/m2"/>
            </valueQuantity>
         </Observation>
      </resource>
   </entry>
   <entry>
      <fullUrl value="urn:uuid:3c65b03b-cd3e-423e-97a8-2dd66ddaa29f"/>
      <resource>
         <Observation>
            <id value="3c65b03b-cd3e-423e-97a8-2dd66ddaa29f"/>
            <meta>
               <profile value="http://hl7.org/fhir/StructureDefinition/vitalsigns"/>
            </meta>
            <text>
               <status value="generated"/>
               <div xmlns="http://www.w3.org/1999/xhtml">
                  <table class="hl7__ips">
                     <tr>
                        <th>Vital Sign</th>
                        <th>Date</th>
                        <th>Measurement</th>
                     </tr>
                     <tr>
                        <td>Diastolic Blood Pressure</td>
                        <td>16-Feb-2025</td>
                        <td>72 mm[Hg]</td>
                     </tr>
                  </table>
               </div>
            </text>
            <status value="final"/>
            <category>
               <coding>
                  <system value="http://terminology.hl7.org/CodeSystem/observation-category"/>
                  <code value="vital-signs"/>
                  <display value="Vital Signs"/>
               </coding>
            </category>
            <code>
               <coding>
                  <system value="http://loinc.org"/>
                  <code value="$8462-4"/>
                  <display value="Diastolic Blood Pressure"/>
               </coding>
            </code>
            <subject>
               <reference value="urn:uuid:54c9df02-a491-4bfb-9202-72b8af5fee75"/>
               <display value="Gülsen Dörschner"/>
            </subject>
            <effectiveDateTime value="2025-02-16"/>
            <valueQuantity>
               <value value="72"/>
               <unit value="mm[Hg]"/>
               <code value="mm[Hg]"/>
            </valueQuantity>
         </Observation>
      </resource>
   </entry>
   <entry>
      <fullUrl value="urn:uuid:46288396-fb2a-462e-8a9b-056a00656366"/>
      <resource>
         <Observation>
            <id value="46288396-fb2a-462e-8a9b-056a00656366"/>
            <meta>
               <profile value="http://hl7.org/fhir/StructureDefinition/vitalsigns"/>
            </meta>
            <text>
               <status value="generated"/>
               <div xmlns="http://www.w3.org/1999/xhtml">
                  <table class="hl7__ips">
                     <tr>
                        <th>Vital Sign</th>
                        <th>Date</th>
                        <th>Measurement</th>
                     </tr>
                     <tr>
                        <td>Systolic Blood Pressure</td>
                        <td>16-Feb-2025</td>
                        <td>125 mm[Hg]</td>
                     </tr>
                  </table>
               </div>
            </text>
            <status value="final"/>
            <category>
               <coding>
                  <system value="http://terminology.hl7.org/CodeSystem/observation-category"/>
                  <code value="vital-signs"/>
                  <display value="Vital Signs"/>
               </coding>
            </category>
            <code>
               <coding>
                  <system value="http://loinc.org"/>
                  <code value="$8480-6"/>
                  <display value="Systolic Blood Pressure"/>
               </coding>
            </code>
            <subject>
               <reference value="urn:uuid:54c9df02-a491-4bfb-9202-72b8af5fee75"/>
               <display value="Gülsen Dörschner"/>
            </subject>
            <effectiveDateTime value="2025-02-16"/>
            <valueQuantity>
               <value value="125"/>
               <unit value="mm[Hg]"/>
               <code value="mm[Hg]"/>
            </valueQuantity>
         </Observation>
      </resource>
   </entry>
   <entry>
      <fullUrl value="urn:uuid:195becf4-37fd-4d8b-8d73-1debff032270"/>
      <resource>
         <Observation>
            <id value="195becf4-37fd-4d8b-8d73-1debff032270"/>
            <meta>
               <profile value="http://hl7.org/fhir/StructureDefinition/vitalsigns"/>
            </meta>
            <text>
               <status value="generated"/>
               <div xmlns="http://www.w3.org/1999/xhtml">
                  <table class="hl7__ips">
                     <tr>
                        <th>Vital Sign</th>
                        <th>Date</th>
                        <th>Measurement</th>
                     </tr>
                     <tr>
                        <td>Heart rate</td>
                        <td>16-Feb-2025</td>
                        <td>67 /min</td>
                     </tr>
                  </table>
               </div>
            </text>
            <status value="final"/>
            <category>
               <coding>
                  <system value="http://terminology.hl7.org/CodeSystem/observation-category"/>
                  <code value="vital-signs"/>
                  <display value="Vital Signs"/>
               </coding>
            </category>
            <code>
               <coding>
                  <system value="http://loinc.org"/>
                  <code value="$8867-4"/>
                  <display value="Heart rate"/>
               </coding>
            </code>
            <subject>
               <reference value="urn:uuid:54c9df02-a491-4bfb-9202-72b8af5fee75"/>
               <display value="Gülsen Dörschner"/>
            </subject>
            <effectiveDateTime value="2025-02-16"/>
            <valueQuantity>
               <value value="67"/>
               <unit value="/min"/>
               <code value="/min"/>
            </valueQuantity>
         </Observation>
      </resource>
   </entry>
   <entry>
      <fullUrl value="urn:uuid:6559d2cb-fb97-429c-b550-f0e6ed2071e4"/>
      <resource>
         <Observation>
            <id value="6559d2cb-fb97-429c-b550-f0e6ed2071e4"/>
            <meta>
               <profile value="http://hl7.org/fhir/StructureDefinition/vitalsigns"/>
            </meta>
            <text>
               <status value="generated"/>
               <div xmlns="http://www.w3.org/1999/xhtml">
                  <table class="hl7__ips">
                     <tr>
                        <th>Vital Sign</th>
                        <th>Date</th>
                        <th>Measurement</th>
                     </tr>
                     <tr>
                        <td>Respiratory rate</td>
                        <td>16-Feb-2025</td>
                        <td>13 /min</td>
                     </tr>
                  </table>
               </div>
            </text>
            <status value="final"/>
            <category>
               <coding>
                  <system value="http://terminology.hl7.org/CodeSystem/observation-category"/>
                  <code value="vital-signs"/>
                  <display value="Vital Signs"/>
               </coding>
            </category>
            <code>
               <coding>
                  <system value="http://loinc.org"/>
                  <code value="$9279-1"/>
                  <display value="Respiratory rate"/>
               </coding>
            </code>
            <subject>
               <reference value="urn:uuid:54c9df02-a491-4bfb-9202-72b8af5fee75"/>
               <display value="Gülsen Dörschner"/>
            </subject>
            <effectiveDateTime value="2025-02-16"/>
            <valueQuantity>
               <value value="13"/>
               <unit value="/min"/>
               <code value="/min"/>
            </valueQuantity>
         </Observation>
      </resource>
   </entry>
   <entry>
      <fullUrl value="urn:uuid:ed064246-ca5b-47df-911b-331775685585"/>
      <resource>
         <Observation>
            <id value="ed064246-ca5b-47df-911b-331775685585"/>
            <meta>
               <profile value="http://hl7.eu/fhir/laboratory/StructureDefinition/Observation-resultslab-eu-lab"/>
            </meta>
            <text>
               <status value="generated"/>
               <div xmlns="http://www.w3.org/1999/xhtml">
                  <table class="hl7__eu__lab__report">
                     <tr>
                        <th>Test</th>
                        <th>16-Feb-2025</th>
                        <th>Reference Range</th>
                        <th>Unit</th>
                     </tr>
                     <tr>
                        <td>Leukocytes [#/volume] in Blood by Automated count</td>
                        <td>5.3</td>
                        <td>3.4 - 10.5</td>
                        <td/>
                        <td>10*3/uL</td>
                     </tr>
                  </table>
               </div>
            </text>
            <status value="final"/>
            <category>
               <coding>
                  <system value="http://terminology.hl7.org/CodeSystem/observation-category"/>
                  <code value="laboratory"/>
               </coding>
            </category>
            <code>
               <coding>
                  <system value="http://loinc.org"/>
                  <code value="6690-2"/>
                  <display value="Leukocytes [#/volume] in Blood by Automated count"/>
               </coding>
               <text value="Leukocytes [#/volume] in Blood by Automated count"/>
            </code>
            <subject>
               <reference value="urn:uuid:54c9df02-a491-4bfb-9202-72b8af5fee75"/>
               <display value="Gülsen Dörschner"/>
            </subject>
            <effectiveDateTime value="2025-02-16T21:09:08Z"/>
            <performer>
               <display value="The Central European Lab"/>
            </performer>
            <valueQuantity>
               <value value="5.3"/>
               <unit value="10*3/uL"/>
               <system value="http://unitsofmeasure.org"/>
               <code value="10*3/uL"/>
            </valueQuantity>
            <referenceRange>
               <low>
                  <value value="3.4"/>
                  <system value="http://unitsofmeasure.org"/>
                  <code value="10*3/uL"/>
               </low>
            </referenceRange>
            <referenceRange>
               <high>
                  <value value="10.5"/>
                  <system value="http://unitsofmeasure.org"/>
                  <code value="10*3/uL"/>
               </high>
            </referenceRange>
         </Observation>
      </resource>
   </entry>
   <entry>
      <fullUrl value="urn:uuid:cad3ec1c-013e-47e9-bcdb-98813acb0b1e"/>
      <resource>
         <Observation>
            <id value="cad3ec1c-013e-47e9-bcdb-98813acb0b1e"/>
            <meta>
               <profile value="http://hl7.eu/fhir/laboratory/StructureDefinition/Observation-resultslab-eu-lab"/>
            </meta>
            <text>
               <status value="generated"/>
               <div xmlns="http://www.w3.org/1999/xhtml">
                  <table class="hl7__eu__lab__report">
                     <tr>
                        <th>Test</th>
                        <th>16-Feb-2025</th>
                        <th>Reference Range</th>
                        <th>Unit</th>
                     </tr>
                     <tr>
                        <td>Erythrocytes [#/volume] in Blood by Automated count</td>
                        <td>5.5</td>
                        <td>4.2 - 5.8</td>
                        <td/>
                        <td>10*6/uL</td>
                     </tr>
                  </table>
               </div>
            </text>
            <status value="final"/>
            <category>
               <coding>
                  <system value="http://terminology.hl7.org/CodeSystem/observation-category"/>
                  <code value="laboratory"/>
               </coding>
            </category>
            <code>
               <coding>
                  <system value="http://loinc.org"/>
                  <code value="789-8"/>
                  <display value="Erythrocytes [#/volume] in Blood by Automated count"/>
               </coding>
               <text value="Erythrocytes [#/volume] in Blood by Automated count"/>
            </code>
            <subject>
               <reference value="urn:uuid:54c9df02-a491-4bfb-9202-72b8af5fee75"/>
               <display value="Gülsen Dörschner"/>
            </subject>
            <effectiveDateTime value="2025-02-16T21:09:08Z"/>
            <performer>
               <display value="The Central European Lab"/>
            </performer>
            <valueQuantity>
               <value value="5.5"/>
               <unit value="10*6/uL"/>
               <system value="http://unitsofmeasure.org"/>
               <code value="10*6/uL"/>
            </valueQuantity>
            <referenceRange>
               <low>
                  <value value="4.2"/>
                  <system value="http://unitsofmeasure.org"/>
                  <code value="10*6/uL"/>
               </low>
            </referenceRange>
            <referenceRange>
               <high>
                  <value value="5.8"/>
                  <system value="http://unitsofmeasure.org"/>
                  <code value="10*6/uL"/>
               </high>
            </referenceRange>
         </Observation>
      </resource>
   </entry>
   <entry>
      <fullUrl value="urn:uuid:e0968486-02aa-4004-b33b-f4971b73cfcd"/>
      <resource>
         <Observation>
            <id value="e0968486-02aa-4004-b33b-f4971b73cfcd"/>
            <meta>
               <profile value="http://hl7.eu/fhir/laboratory/StructureDefinition/Observation-resultslab-eu-lab"/>
            </meta>
            <text>
               <status value="generated"/>
               <div xmlns="http://www.w3.org/1999/xhtml">
                  <table class="hl7__eu__lab__report">
                     <tr>
                        <th>Test</th>
                        <th>16-Feb-2025</th>
                        <th>Reference Range</th>
                        <th>Unit</th>
                     </tr>
                     <tr>
                        <td>Hemoglobin [Mass/volume] in Blood</td>
                        <td>15.9</td>
                        <td>12 - 16</td>
                        <td/>
                        <td>g/dL</td>
                     </tr>
                  </table>
               </div>
            </text>
            <status value="final"/>
            <category>
               <coding>
                  <system value="http://terminology.hl7.org/CodeSystem/observation-category"/>
                  <code value="laboratory"/>
               </coding>
            </category>
            <code>
               <coding>
                  <system value="http://loinc.org"/>
                  <code value="718-7"/>
                  <display value="Hemoglobin [Mass/volume] in Blood"/>
               </coding>
               <text value="Hemoglobin [Mass/volume] in Blood"/>
            </code>
            <subject>
               <reference value="urn:uuid:54c9df02-a491-4bfb-9202-72b8af5fee75"/>
               <display value="Gülsen Dörschner"/>
            </subject>
            <effectiveDateTime value="2025-02-16T21:09:08Z"/>
            <performer>
               <display value="The Central European Lab"/>
            </performer>
            <valueQuantity>
               <value value="15.9"/>
               <unit value="g/dL"/>
               <system value="http://unitsofmeasure.org"/>
               <code value="g/dL"/>
            </valueQuantity>
            <referenceRange>
               <low>
                  <value value="12"/>
                  <system value="http://unitsofmeasure.org"/>
                  <code value="g/dL"/>
               </low>
            </referenceRange>
            <referenceRange>
               <high>
                  <value value="16"/>
                  <system value="http://unitsofmeasure.org"/>
                  <code value="g/dL"/>
               </high>
            </referenceRange>
         </Observation>
      </resource>
   </entry>
   <entry>
      <fullUrl value="urn:uuid:da0f972d-bab5-4da4-be8b-bff465d74bb8"/>
      <resource>
         <Observation>
            <id value="da0f972d-bab5-4da4-be8b-bff465d74bb8"/>
            <meta>
               <profile value="http://hl7.eu/fhir/laboratory/StructureDefinition/Observation-resultslab-eu-lab"/>
            </meta>
            <text>
               <status value="generated"/>
               <div xmlns="http://www.w3.org/1999/xhtml">
                  <table class="hl7__eu__lab__report">
                     <tr>
                        <th>Test</th>
                        <th>16-Feb-2025</th>
                        <th>Reference Range</th>
                        <th>Unit</th>
                     </tr>
                     <tr>
                        <td>Hematocrit [Volume Fraction] of Blood by Automated count</td>
                        <td>35.8</td>
                        <td>36 - 48</td>
                        <td>L</td>
                        <td>%</td>
                     </tr>
                  </table>
               </div>
            </text>
            <status value="final"/>
            <category>
               <coding>
                  <system value="http://terminology.hl7.org/CodeSystem/observation-category"/>
                  <code value="laboratory"/>
               </coding>
            </category>
            <code>
               <coding>
                  <system value="http://loinc.org"/>
                  <code value="4544-3"/>
                  <display value="Hematocrit [Volume Fraction] of Blood by Automated count"/>
               </coding>
               <text value="Hematocrit [Volume Fraction] of Blood by Automated count"/>
            </code>
            <subject>
               <reference value="urn:uuid:54c9df02-a491-4bfb-9202-72b8af5fee75"/>
               <display value="Gülsen Dörschner"/>
            </subject>
            <effectiveDateTime value="2025-02-16T21:09:08Z"/>
            <performer>
               <display value="The Central European Lab"/>
            </performer>
            <valueQuantity>
               <value value="35.8"/>
               <unit value="%"/>
               <system value="http://unitsofmeasure.org"/>
               <code value="%"/>
            </valueQuantity>
            <interpretation>
               <coding>
                  <system value="http://terminology.hl7.org/CodeSystem/v3-ObservationInterpretation"/>
                  <code value="L"/>
                  <display value="Low"/>
               </coding>
            </interpretation>
            <referenceRange>
               <low>
                  <value value="36"/>
                  <system value="http://unitsofmeasure.org"/>
                  <code value="%"/>
               </low>
            </referenceRange>
            <referenceRange>
               <high>
                  <value value="48"/>
                  <system value="http://unitsofmeasure.org"/>
                  <code value="%"/>
               </high>
            </referenceRange>
         </Observation>
      </resource>
   </entry>
   <entry>
      <fullUrl value="urn:uuid:c9ddafae-739c-4f71-846b-67b804dbf2e9"/>
      <resource>
         <Observation>
            <id value="c9ddafae-739c-4f71-846b-67b804dbf2e9"/>
            <meta>
               <profile value="http://hl7.eu/fhir/laboratory/StructureDefinition/Observation-resultslab-eu-lab"/>
            </meta>
            <text>
               <status value="generated"/>
               <div xmlns="http://www.w3.org/1999/xhtml">
                  <table class="hl7__eu__lab__report">
                     <tr>
                        <th>Test</th>
                        <th>16-Feb-2025</th>
                        <th>Reference Range</th>
                        <th>Unit</th>
                     </tr>
                     <tr>
                        <td>MCV [Entitic volume] by Automated count</td>
                        <td>84.6</td>
                        <td>82 - 98</td>
                        <td/>
                        <td>fL</td>
                     </tr>
                  </table>
               </div>
            </text>
            <status value="final"/>
            <category>
               <coding>
                  <system value="http://terminology.hl7.org/CodeSystem/observation-category"/>
                  <code value="laboratory"/>
               </coding>
            </category>
            <code>
               <coding>
                  <system value="http://loinc.org"/>
                  <code value="787-2"/>
                  <display value="MCV [Entitic volume] by Automated count"/>
               </coding>
               <text value="MCV [Entitic volume] by Automated count"/>
            </code>
            <subject>
               <reference value="urn:uuid:54c9df02-a491-4bfb-9202-72b8af5fee75"/>
               <display value="Gülsen Dörschner"/>
            </subject>
            <effectiveDateTime value="2025-02-16T21:09:08Z"/>
            <performer>
               <display value="The Central European Lab"/>
            </performer>
            <valueQuantity>
               <value value="84.6"/>
               <unit value="fL"/>
               <system value="http://unitsofmeasure.org"/>
               <code value="fL"/>
            </valueQuantity>
            <referenceRange>
               <low>
                  <value value="82"/>
                  <system value="http://unitsofmeasure.org"/>
                  <code value="fL"/>
               </low>
            </referenceRange>
            <referenceRange>
               <high>
                  <value value="98"/>
                  <system value="http://unitsofmeasure.org"/>
                  <code value="fL"/>
               </high>
            </referenceRange>
         </Observation>
      </resource>
   </entry>
   <entry>
      <fullUrl value="urn:uuid:ffa394c0-d3c7-4e77-ada2-4c4b5bca9b0e"/>
      <resource>
         <Observation>
            <id value="ffa394c0-d3c7-4e77-ada2-4c4b5bca9b0e"/>
            <meta>
               <profile value="http://hl7.eu/fhir/laboratory/StructureDefinition/Observation-resultslab-eu-lab"/>
            </meta>
            <text>
               <status value="generated"/>
               <div xmlns="http://www.w3.org/1999/xhtml">
                  <table class="hl7__eu__lab__report">
                     <tr>
                        <th>Test</th>
                        <th>16-Feb-2025</th>
                        <th>Reference Range</th>
                        <th>Unit</th>
                     </tr>
                     <tr>
                        <td>MCH [Entitic mass] by Automated count</td>
                        <td>27.7</td>
                        <td>27 - 33</td>
                        <td/>
                        <td>pg</td>
                     </tr>
                  </table>
               </div>
            </text>
            <status value="final"/>
            <category>
               <coding>
                  <system value="http://terminology.hl7.org/CodeSystem/observation-category"/>
                  <code value="laboratory"/>
               </coding>
            </category>
            <code>
               <coding>
                  <system value="http://loinc.org"/>
                  <code value="785-6"/>
                  <display value="MCH [Entitic mass] by Automated count"/>
               </coding>
               <text value="MCH [Entitic mass] by Automated count"/>
            </code>
            <subject>
               <reference value="urn:uuid:54c9df02-a491-4bfb-9202-72b8af5fee75"/>
               <display value="Gülsen Dörschner"/>
            </subject>
            <effectiveDateTime value="2025-02-16T21:09:08Z"/>
            <performer>
               <display value="The Central European Lab"/>
            </performer>
            <valueQuantity>
               <value value="27.7"/>
               <unit value="pg"/>
               <system value="http://unitsofmeasure.org"/>
               <code value="pg"/>
            </valueQuantity>
            <referenceRange>
               <low>
                  <value value="27"/>
                  <system value="http://unitsofmeasure.org"/>
                  <code value="pg"/>
               </low>
            </referenceRange>
            <referenceRange>
               <high>
                  <value value="33"/>
                  <system value="http://unitsofmeasure.org"/>
                  <code value="pg"/>
               </high>
            </referenceRange>
         </Observation>
      </resource>
   </entry>
   <entry>
      <fullUrl value="urn:uuid:8205faaf-ef58-4093-a452-ff0e323903a9"/>
      <resource>
         <Observation>
            <id value="8205faaf-ef58-4093-a452-ff0e323903a9"/>
            <meta>
               <profile value="http://hl7.eu/fhir/laboratory/StructureDefinition/Observation-resultslab-eu-lab"/>
            </meta>
            <text>
               <status value="generated"/>
               <div xmlns="http://www.w3.org/1999/xhtml">
                  <table class="hl7__eu__lab__report">
                     <tr>
                        <th>Test</th>
                        <th>16-Feb-2025</th>
                        <th>Reference Range</th>
                        <th>Unit</th>
                     </tr>
                     <tr>
                        <td>MCHC [Mass/volume] by Automated count</td>
                        <td>33.7</td>
                        <td>31.5 - 36</td>
                        <td/>
                        <td>g/dL</td>
                     </tr>
                  </table>
               </div>
            </text>
            <status value="final"/>
            <category>
               <coding>
                  <system value="http://terminology.hl7.org/CodeSystem/observation-category"/>
                  <code value="laboratory"/>
               </coding>
            </category>
            <code>
               <coding>
                  <system value="http://loinc.org"/>
                  <code value="786-4"/>
                  <display value="MCHC [Mass/volume] by Automated count"/>
               </coding>
               <text value="MCHC [Mass/volume] by Automated count"/>
            </code>
            <subject>
               <reference value="urn:uuid:54c9df02-a491-4bfb-9202-72b8af5fee75"/>
               <display value="Gülsen Dörschner"/>
            </subject>
            <effectiveDateTime value="2025-02-16T21:09:08Z"/>
            <performer>
               <display value="The Central European Lab"/>
            </performer>
            <valueQuantity>
               <value value="33.7"/>
               <unit value="g/dL"/>
               <system value="http://unitsofmeasure.org"/>
               <code value="g/dL"/>
            </valueQuantity>
            <referenceRange>
               <low>
                  <value value="31.5"/>
                  <system value="http://unitsofmeasure.org"/>
                  <code value="g/dL"/>
               </low>
            </referenceRange>
            <referenceRange>
               <high>
                  <value value="36"/>
                  <system value="http://unitsofmeasure.org"/>
                  <code value="g/dL"/>
               </high>
            </referenceRange>
         </Observation>
      </resource>
   </entry>
   <entry>
      <fullUrl value="urn:uuid:94ff57ab-f829-4488-815d-920f0be85a2d"/>
      <resource>
         <Observation>
            <id value="94ff57ab-f829-4488-815d-920f0be85a2d"/>
            <meta>
               <profile value="http://hl7.eu/fhir/laboratory/StructureDefinition/Observation-resultslab-eu-lab"/>
            </meta>
            <text>
               <status value="generated"/>
               <div xmlns="http://www.w3.org/1999/xhtml">
                  <table class="hl7__eu__lab__report">
                     <tr>
                        <th>Test</th>
                        <th>16-Feb-2025</th>
                        <th>Reference Range</th>
                        <th>Unit</th>
                     </tr>
                     <tr>
                        <td>Erythrocyte distribution width [Entitic volume] by Automated count</td>
                        <td>39.0</td>
                        <td>36 - 55</td>
                        <td/>
                        <td>fL</td>
                     </tr>
                  </table>
               </div>
            </text>
            <status value="final"/>
            <category>
               <coding>
                  <system value="http://terminology.hl7.org/CodeSystem/observation-category"/>
                  <code value="laboratory"/>
               </coding>
            </category>
            <code>
               <coding>
                  <system value="http://loinc.org"/>
                  <code value="21000-5"/>
                  <display value="Erythrocyte distribution width [Entitic volume] by Automated count"/>
               </coding>
               <text value="Erythrocyte distribution width [Entitic volume] by Automated count"/>
            </code>
            <subject>
               <reference value="urn:uuid:54c9df02-a491-4bfb-9202-72b8af5fee75"/>
               <display value="Gülsen Dörschner"/>
            </subject>
            <effectiveDateTime value="2025-02-16T21:09:08Z"/>
            <performer>
               <display value="The Central European Lab"/>
            </performer>
            <valueQuantity>
               <value value="39"/>
               <unit value="fL"/>
               <system value="http://unitsofmeasure.org"/>
               <code value="fL"/>
            </valueQuantity>
            <referenceRange>
               <low>
                  <value value="36"/>
                  <system value="http://unitsofmeasure.org"/>
                  <code value="fL"/>
               </low>
            </referenceRange>
            <referenceRange>
               <high>
                  <value value="55"/>
                  <system value="http://unitsofmeasure.org"/>
                  <code value="fL"/>
               </high>
            </referenceRange>
         </Observation>
      </resource>
   </entry>
   <entry>
      <fullUrl value="urn:uuid:94922515-d26e-473a-9dfd-9838aaa0b713"/>
      <resource>
         <Observation>
            <id value="94922515-d26e-473a-9dfd-9838aaa0b713"/>
            <meta>
               <profile value="http://hl7.eu/fhir/laboratory/StructureDefinition/Observation-resultslab-eu-lab"/>
            </meta>
            <text>
               <status value="generated"/>
               <div xmlns="http://www.w3.org/1999/xhtml">
                  <table class="hl7__eu__lab__report">
                     <tr>
                        <th>Test</th>
                        <th>16-Feb-2025</th>
                        <th>Reference Range</th>
                        <th>Unit</th>
                     </tr>
                     <tr>
                        <td>Platelets [#/volume] in Blood by Automated count</td>
                        <td>191.8</td>
                        <td>150 - 400</td>
                        <td/>
                        <td>10*3/uL</td>
                     </tr>
                  </table>
               </div>
            </text>
            <status value="final"/>
            <category>
               <coding>
                  <system value="http://terminology.hl7.org/CodeSystem/observation-category"/>
                  <code value="laboratory"/>
               </coding>
            </category>
            <code>
               <coding>
                  <system value="http://loinc.org"/>
                  <code value="777-3"/>
                  <display value="Platelets [#/volume] in Blood by Automated count"/>
               </coding>
               <text value="Platelets [#/volume] in Blood by Automated count"/>
            </code>
            <subject>
               <reference value="urn:uuid:54c9df02-a491-4bfb-9202-72b8af5fee75"/>
               <display value="Gülsen Dörschner"/>
            </subject>
            <effectiveDateTime value="2025-02-16T21:09:08Z"/>
            <performer>
               <display value="The Central European Lab"/>
            </performer>
            <valueQuantity>
               <value value="191.8"/>
               <unit value="10*3/uL"/>
               <system value="http://unitsofmeasure.org"/>
               <code value="10*3/uL"/>
            </valueQuantity>
            <referenceRange>
               <low>
                  <value value="150"/>
                  <system value="http://unitsofmeasure.org"/>
                  <code value="10*3/uL"/>
               </low>
            </referenceRange>
            <referenceRange>
               <high>
                  <value value="400"/>
                  <system value="http://unitsofmeasure.org"/>
                  <code value="10*3/uL"/>
               </high>
            </referenceRange>
         </Observation>
      </resource>
   </entry>
   <entry>
      <fullUrl value="urn:uuid:bd9e76a5-8440-4dc6-bffe-45e7b271bf95"/>
      <resource>
         <Observation>
            <id value="bd9e76a5-8440-4dc6-bffe-45e7b271bf95"/>
            <meta>
               <profile value="http://hl7.eu/fhir/laboratory/StructureDefinition/Observation-resultslab-eu-lab"/>
            </meta>
            <text>
               <status value="generated"/>
               <div xmlns="http://www.w3.org/1999/xhtml">
                  <table class="hl7__eu__lab__report">
                     <tr>
                        <th>Test</th>
                        <th>16-Feb-2025</th>
                        <th>Reference Range</th>
                        <th>Unit</th>
                     </tr>
                     <tr>
                        <td>Platelet distribution width [Entitic volume] in Blood by Automated count</td>
                        <td>162.7</td>
                        <td>11.6 - 17.4</td>
                        <td>H</td>
                        <td>fL</td>
                     </tr>
                  </table>
               </div>
            </text>
            <status value="final"/>
            <category>
               <coding>
                  <system value="http://terminology.hl7.org/CodeSystem/observation-category"/>
                  <code value="laboratory"/>
               </coding>
            </category>
            <code>
               <coding>
                  <system value="http://loinc.org"/>
                  <code value="32207-3"/>
                  <display value="Platelet distribution width [Entitic volume] in Blood by Automated count"/>
               </coding>
               <text value="Platelet distribution width [Entitic volume] in Blood by Automated count"/>
            </code>
            <subject>
               <reference value="urn:uuid:54c9df02-a491-4bfb-9202-72b8af5fee75"/>
               <display value="Gülsen Dörschner"/>
            </subject>
            <effectiveDateTime value="2025-02-16T21:09:08Z"/>
            <performer>
               <display value="The Central European Lab"/>
            </performer>
            <valueQuantity>
               <value value="162.7"/>
               <unit value="fL"/>
               <system value="http://unitsofmeasure.org"/>
               <code value="fL"/>
            </valueQuantity>
            <interpretation>
               <coding>
                  <system value="http://terminology.hl7.org/CodeSystem/v3-ObservationInterpretation"/>
                  <code value="H"/>
                  <display value="High"/>
               </coding>
            </interpretation>
            <referenceRange>
               <low>
                  <value value="11.6"/>
                  <system value="http://unitsofmeasure.org"/>
                  <code value="fL"/>
               </low>
            </referenceRange>
            <referenceRange>
               <high>
                  <value value="17.4"/>
                  <system value="http://unitsofmeasure.org"/>
                  <code value="fL"/>
               </high>
            </referenceRange>
         </Observation>
      </resource>
   </entry>
   <entry>
      <fullUrl value="urn:uuid:73c23aae-2b3e-445d-a673-743233e4f421"/>
      <resource>
         <Observation>
            <id value="73c23aae-2b3e-445d-a673-743233e4f421"/>
            <meta>
               <profile value="http://hl7.eu/fhir/laboratory/StructureDefinition/Observation-resultslab-eu-lab"/>
            </meta>
            <text>
               <status value="generated"/>
               <div xmlns="http://www.w3.org/1999/xhtml">
                  <table class="hl7__eu__lab__report">
                     <tr>
                        <th>Test</th>
                        <th>16-Feb-2025</th>
                        <th>Reference Range</th>
                        <th>Unit</th>
                     </tr>
                     <tr>
                        <td>Platelet mean volume [Entitic volume] in Blood by Automated count</td>
                        <td>12.2</td>
                        <td>7.4 - 12</td>
                        <td>H</td>
                        <td>fL</td>
                     </tr>
                  </table>
               </div>
            </text>
            <status value="final"/>
            <category>
               <coding>
                  <system value="http://terminology.hl7.org/CodeSystem/observation-category"/>
                  <code value="laboratory"/>
               </coding>
            </category>
            <code>
               <coding>
                  <system value="http://loinc.org"/>
                  <code value="32623-1"/>
                  <display value="Platelet mean volume [Entitic volume] in Blood by Automated count"/>
               </coding>
               <text value="Platelet mean volume [Entitic volume] in Blood by Automated count"/>
            </code>
            <subject>
               <reference value="urn:uuid:54c9df02-a491-4bfb-9202-72b8af5fee75"/>
               <display value="Gülsen Dörschner"/>
            </subject>
            <effectiveDateTime value="2025-02-16T21:09:08Z"/>
            <performer>
               <display value="The Central European Lab"/>
            </performer>
            <valueQuantity>
               <value value="12.2"/>
               <unit value="fL"/>
               <system value="http://unitsofmeasure.org"/>
               <code value="fL"/>
            </valueQuantity>
            <interpretation>
               <coding>
                  <system value="http://terminology.hl7.org/CodeSystem/v3-ObservationInterpretation"/>
                  <code value="H"/>
                  <display value="High"/>
               </coding>
            </interpretation>
            <referenceRange>
               <low>
                  <value value="7.4"/>
                  <system value="http://unitsofmeasure.org"/>
                  <code value="fL"/>
               </low>
            </referenceRange>
            <referenceRange>
               <high>
                  <value value="12"/>
                  <system value="http://unitsofmeasure.org"/>
                  <code value="fL"/>
               </high>
            </referenceRange>
         </Observation>
      </resource>
   </entry>
   <entry>
      <fullUrl value="urn:uuid:5a56873b-05d4-416b-b36c-1e70c87c9866"/>
      <resource>
         <DeviceUseStatement>
            <id value="5a56873b-05d4-416b-b36c-1e70c87c9866"/>
            <meta>
               <profile value="http://hl7.eu/fhir/eps/StructureDefinition/deviceUseStatement-eu-eps"/>
            </meta>
            <text>
               <status value="generated"/>
               <div xmlns="http://www.w3.org/1999/xhtml">
                  <table class="hl7__ips">
                     <tr>
                        <td>Manual wheelchair (physical object)</td>
                        <td>
                           <span class="nb">21-Sep-2017</span>
                        </td>
                     </tr>
                  </table>
               </div>
            </text>
            <status value="active"/>
            <subject>
               <reference value="urn:uuid:54c9df02-a491-4bfb-9202-72b8af5fee75"/>
               <display value="Gülsen Dörschner"/>
            </subject>
            <timingPeriod>
               <start value="2017-09-21"/>
            </timingPeriod>
            <device>
               <reference value="urn:uuid:0fd72cd9-34cb-4d8a-b3f0-5a89df9dbda2"/>
               <display value="Manual wheelchair (physical object)"/>
            </device>
         </DeviceUseStatement>
      </resource>
   </entry>
   <entry>
      <fullUrl value="urn:uuid:0fd72cd9-34cb-4d8a-b3f0-5a89df9dbda2"/>
      <resource>
         <Device>
            <id value="0fd72cd9-34cb-4d8a-b3f0-5a89df9dbda2"/>
            <meta>
               <profile value="http://hl7.eu/fhir/eps/StructureDefinition/device-eu-eps"/>
            </meta>
            <udiCarrier id="(01)16436565242865(11)170831(17)420915(10)4305(21)7069581818369"/>
            <status value="active"/>
            <type>
               <coding>
                  <system value="http://snomed.info/sct"/>
                  <code value="228869008"/>
                  <display value="Manual wheelchair (physical object)"/>
               </coding>
            </type>
            <patient>
               <reference value="urn:uuid:54c9df02-a491-4bfb-9202-72b8af5fee75"/>
               <display value="Gülsen Dörschner"/>
            </patient>
         </Device>
      </resource>
   </entry>
   <entry>
      <fullUrl value="urn:uuid:a7db06bf-7545-4c6f-a3ab-6b4f3229b092"/>
      <resource>
         <DeviceUseStatement>
            <id value="a7db06bf-7545-4c6f-a3ab-6b4f3229b092"/>
            <meta>
               <profile value="http://hl7.eu/fhir/eps/StructureDefinition/deviceUseStatement-eu-eps"/>
            </meta>
            <text>
               <status value="generated"/>
               <div xmlns="http://www.w3.org/1999/xhtml">
                  <table class="hl7__ips">
                     <tr>
                        <td>Wheelchair accessory (physical object)</td>
                        <td>
                           <span class="nb">21-Sep-2017</span>
                        </td>
                     </tr>
                  </table>
               </div>
            </text>
            <status value="active"/>
            <subject>
               <reference value="urn:uuid:54c9df02-a491-4bfb-9202-72b8af5fee75"/>
               <display value="Gülsen Dörschner"/>
            </subject>
            <timingPeriod>
               <start value="2017-09-21"/>
            </timingPeriod>
            <device>
               <reference value="urn:uuid:c7295ca6-a35c-4f46-a897-dd083e38336f"/>
               <display value="Wheelchair accessory (physical object)"/>
            </device>
         </DeviceUseStatement>
      </resource>
   </entry>
   <entry>
      <fullUrl value="urn:uuid:c7295ca6-a35c-4f46-a897-dd083e38336f"/>
      <resource>
         <Device>
            <id value="c7295ca6-a35c-4f46-a897-dd083e38336f"/>
            <meta>
               <profile value="http://hl7.eu/fhir/eps/StructureDefinition/device-eu-eps"/>
            </meta>
            <udiCarrier id="(01)74651653068675(11)170831(17)420915(10)6394(21)7775607"/>
            <status value="active"/>
            <type>
               <coding>
                  <system value="http://snomed.info/sct"/>
                  <code value="705417005"/>
                  <display value="Wheelchair accessory (physical object)"/>
               </coding>
            </type>
            <patient>
               <reference value="urn:uuid:54c9df02-a491-4bfb-9202-72b8af5fee75"/>
               <display value="Gülsen Dörschner"/>
            </patient>
         </Device>
      </resource>
   </entry>
   <entry>
      <fullUrl value="urn:uuid:cd860ed1-5a31-400a-a806-0e79ec31d35e"/>
      <resource>
         <Device>
            <id value="cd860ed1-5a31-400a-a806-0e79ec31d35e"/>
            <text>
               <status value="generated"/>
               <div xmlns="http://www.w3.org/1999/xhtml">SYNDERAI Synthetic Generator v5.0</div>
            </text>
            <status value="active&#34;"/>
            <distinctIdentifier value="synderai-generator-50"/>
            <manufacturer value="SYNDERAI Project"/>
            <deviceName>
               <name value="SYNDERAI Synthetic Generator"/>
               <type value="manufacturer-name"/>
            </deviceName>
            <version>
               <value value="5.0"/>
            </version>
         </Device>
      </resource>
   </entry>
   <entry>
      <fullUrl value="urn:uuid:63420f70-d114-473c-9fb6-336777b6ab98"/>
      <resource>
         <Provenance>
            <id value="63420f70-d114-473c-9fb6-336777b6ab98"/>
            <text>
               <status value="generated"/>
               <div xmlns="http://www.w3.org/1999/xhtml">Provenance for SYNDERAI Synthetic Example Data Resource</div>
            </text>
            <target>
               <reference value="Patient/54c9df02-a491-4bfb-9202-72b8af5fee75"/>
            </target>
            <target>
               <reference value="Bundle/86f18b46-dd40-4c59-be65-259530efe35e"/>
            </target>
            <target>
               <reference value="Composition/7451de80-7bb1-4daf-af63-d09b6785717b"/>
            </target>
            <target>
               <reference value="PractitionerRole/7126e37b-ba73-44c6-80a2-787baca63f05"/>
            </target>
            <target>
               <reference value="Organization/ab269b06-1944-4161-b023-5e7a4c43afb6"/>
            </target>
            <target>
               <reference value="Practitioner/a3068ab7-8e33-4647-b3b2-e1674d88d53f"/>
            </target>
            <recorded value="2025-02-16T21:09:08Z"/>
            <policy value="https://synderai.net/synderai-synthetic-data-policy"/>
            <reason>
               <text value="Interoperability Testing and Training (non-clinical use)"/>
            </reason>
            <activity>
               <text value="Synthetic Example Data Generation"/>
            </activity>
            <agent>
               <type>
                  <text value="author"/>
               </type>
               <who>
                  <reference value="Device/cd860ed1-5a31-400a-a806-0e79ec31d35e"/>
               </who>
            </agent>
         </Provenance>
      </resource>
   </entry>
</Bundle>