{
  "resourceType": "Bundle",
  "id": "4059f02d-9b86-42a0-b001-1ae013b53189",
  "meta": {
    "profile": [
      "http://hl7.eu/fhir/eps/StructureDefinition/bundle-eu-eps"
    ]
  },
  "identifier": {
    "assigner": {
      "display": "HL7 Europe"
    },
    "system": "urn:oid:2.16.840.1.113883.2.51.999",
    "value": "922b1333-9870-4156-b5f1-294fac6d6bcd"
  },
  "entry": [
    {
      "fullUrl": "urn:uuid:4b4708c4-6555-4a6b-b8a5-19b12adb669e",
      "resource": {
        "resourceType": "Composition",
        "id": "4b4708c4-6555-4a6b-b8a5-19b12adb669e",
        "meta": {
          "security": [
            {
              "system": "http://terminology.hl7.org/CodeSystem/v3-ActReason",
              "code": "HTEST"
            },
            {
              "system": "http://terminology.hl7.org/CodeSystem/v3-ActReason",
              "code": "TRAIN"
            }
          ],
          "tag": [
            {
              "system": "https://synderai.net/fhir/CodeSystem/tags",
              "code": "synthetic",
              "display": "SYNDERAI Synthetic data"
            }
          ],
          "profile": [
            "http://hl7.eu/fhir/eps/StructureDefinition/composition-eu-eps"
          ]
        },
        "identifier": {
          "assigner": {
            "display": "HL7 Europe"
          },
          "system": "urn:oid:2.16.840.1.113883.2.51.999",
          "value": "4e1e14de-219d-4405-802e-d62a37d6c3fb"
        },
        "type": {
          "coding": [
            {
              "system": "http://loinc.org",
              "code": "60591-5",
              "display": "Patient summary Document"
            }
          ],
          "text": "Patient summary Document"
        },
        "author": [
          {
            "reference": "urn:uuid:ed3b4c86-c6eb-4261-b80b-5b49508a8d04"
          }
        ],
        "section": [
          {
            "text": {
              "status": "generated",
              "div": "<div xmlns=\"http://www.w3.org/1999/xhtml\"><table class=\"hl7__ips\"><tr><th>Condition</th><th>Onset Date</th><th>Status</th></tr><tr><td>Alzheimer's disease</td><td><span class=\"nb\">19-Jun-2024</span></td><td>active</td></tr><tr><td>Ischemic heart disease</td><td><span class=\"nb\">10-May-2017</span></td><td>active</td></tr><tr><td>Atrial fibrillation</td><td><span class=\"nb\">29-Apr-2015</span></td><td>active</td></tr><tr><td>Osteoporosis</td><td><span class=\"nb\">25-Feb-2004</span></td><td>active</td></tr><tr><td>Prediabetes</td><td><span class=\"nb\">21-Jan-1998</span></td><td>active</td></tr><tr><td>Anemia</td><td><span class=\"nb\">21-Jan-1998</span></td><td>active</td></tr></table></div>"
            },
            "entry": [
              {
                "reference": "urn:uuid:661961b6-de30-421f-a9e2-561f2eb1391d"
              },
              {
                "reference": "urn:uuid:70aae04f-38f8-4366-8867-f1e4057b374a"
              },
              {
                "reference": "urn:uuid:c785b3bc-c389-4f1b-b389-77680c6783f8"
              },
              {
                "reference": "urn:uuid:7f101760-5dfd-4c6d-9f43-d1d9e99bbf4b"
              },
              {
                "reference": "urn:uuid:b2667716-9751-4167-9aa2-c2fe3e9051f0"
              },
              {
                "reference": "urn:uuid:e12b1007-0812-411d-b183-a5207d2a851a"
              }
            ],
            "code": {
              "coding": [
                {
                  "system": "http://loinc.org",
                  "code": "11450-4",
                  "display": "Problem list - Reported"
                }
              ]
            },
            "title": "Problem list"
          },
          {
            "text": {
              "status": "generated",
              "div": "<div xmlns=\"http://www.w3.org/1999/xhtml\"><table class=\"hl7__ips\"><tr><th>Medication</th><th>Since</th><th>Form</th><th>Dosage</th><th>Reason</th></tr><tr><td>Digoxin 125 microgram oral tablet</td><td><span class=\"nb\">2025-06-25</span></td><td>-</td><td>1 tablet (125 microgram) once daily</td><td>Atrial fibrillation (disorder)</td></tr><tr><td>Warfarin sodium 5 mg oral tablet</td><td><span class=\"nb\">2025-06-25</span></td><td>-</td><td>1 tablet (5 mg) by mouth once daily</td><td>Atrial fibrillation (disorder)</td></tr><tr><td>Verapamil hydrochloride 80 mg oral tablet</td><td><span class=\"nb\">2025-06-25</span></td><td>-</td><td>1 tablet (80 mg) three times daily</td><td>Atrial fibrillation (disorder)</td></tr><tr><td>Alendronic acid (as alendronate sodium) 10 mg oral tablet</td><td><span class=\"nb\">2025-06-25</span></td><td>-</td><td>1 tablet (10 mg) once daily</td><td>Osteoporosis (disorder)</td></tr><tr><td>Galantamine (as galantamine hydrobromide) 4 mg oral tablet</td><td><span class=\"nb\">2024-06-19</span></td><td>-</td><td>1 tablet (4 mg) once daily</td><td>Alzheimer's disease (disorder)</td></tr><tr><td>Clopidogrel (as clopidogrel bisulfate) 75 mg oral tablet</td><td><span class=\"nb\">2017-05-17</span></td><td>-</td><td>1 tablet (75 mg) by mouth once daily</td><td>-</td></tr><tr><td>Simvastatin 20 mg oral tablet</td><td><span class=\"nb\">2017-05-17</span></td><td>-</td><td>1 tablet (20 mg) by mouth once daily</td><td>-</td></tr><tr><td>Nitroglycerin 400 microgram/actuation sublingual spray</td><td><span class=\"nb\">2017-05-17</span></td><td>-</td><td>1 spray (400 micrograms) under the tongue as needed for chest pain, may repeat every 5 minutes as needed, up to 3 sprays in 15 minutes</td><td>-</td></tr><tr><td>Metoprolol tartrate (as metoprolol succinate) 100 mg prolonged-release oral tablet</td><td><span class=\"nb\">2017-05-17</span></td><td>-</td><td>1 tablet (100 mg) once daily</td><td>-</td></tr></table></div>"
            },
            "entry": [
              {
                "reference": "urn:uuid:5be8047f-7841-439a-bb27-3b23e2163805"
              },
              {
                "reference": "urn:uuid:5a4afa4e-6288-4b4c-86c2-0e95af78ee31"
              },
              {
                "reference": "urn:uuid:d3b0c24c-a1fd-4a0f-bbea-776510ff0adb"
              },
              {
                "reference": "urn:uuid:0ea368bb-4eab-4003-8db9-63c809d63e31"
              },
              {
                "reference": "urn:uuid:daaf0dda-3442-4152-a031-6909f8955900"
              },
              {
                "reference": "urn:uuid:fb5c0878-bd04-42ff-a29d-0dd31b9f9d8e"
              },
              {
                "reference": "urn:uuid:a4a76c51-be3d-46e5-a0ba-dcf7ab961e07"
              },
              {
                "reference": "urn:uuid:6e350fde-160f-44f8-a516-6b265da14447"
              },
              {
                "reference": "urn:uuid:837db732-a81b-4e32-a634-6cf5d87e30e3"
              }
            ],
            "code": {
              "coding": [
                {
                  "system": "http://loinc.org",
                  "code": "10160-0",
                  "display": "History of Medication use Narrative"
                }
              ]
            },
            "title": "Medication list"
          },
          {
            "text": {
              "status": "generated",
              "div": "<div xmlns=\"http://www.w3.org/1999/xhtml\"><table class=\"hl7__ips\"><tr><th>Vaccine</th><th>Date</th></tr><tr><td>Clostridium tetani toxoid antigen adsorbed only vaccine product</td><td><span class=\"nb\">05-Feb-2025</span></td></tr><tr><td>Influenza virus antigen only vaccine product</td><td><span class=\"nb\">05-Feb-2025</span></td></tr></table></div>"
            },
            "entry": [
              {
                "reference": "urn:uuid:6884a4b9-40a1-4d32-bf49-83c425ef1726"
              },
              {
                "reference": "urn:uuid:0986f78b-b218-47d2-80af-6baed4d88d4c"
              }
            ],
            "code": {
              "coding": [
                {
                  "system": "http://loinc.org",
                  "code": "11369-6",
                  "display": "History of Immunization note"
                }
              ]
            },
            "title": "Immunizations list"
          },
          {
            "text": {
              "status": "generated",
              "div": "<div xmlns=\"http://www.w3.org/1999/xhtml\"><table class=\"hl7__ips\"><tr><th>Procedure</th><th>Date</th><th>Reason</th></tr><tr><td>Assessment of health and social care needs</td><td><span class=\"nb\">05-Feb-2025</span></td><td>-</td></tr><tr><td>Screening for drug abuse</td><td><span class=\"nb\">05-Feb-2025</span></td><td>-</td></tr><tr><td>Assessment of substance use</td><td><span class=\"nb\">05-Feb-2025</span></td><td>-</td></tr><tr><td>Patient discharge</td><td><span class=\"nb\">27-Jan-2019</span></td><td>-</td></tr><tr><td>Hospice care</td><td><span class=\"nb\">26-Jan-2019</span></td><td>-</td></tr><tr><td>Notifications</td><td><span class=\"nb\">02-Jan-2019</span></td><td>-</td></tr><tr><td>Certification procedure</td><td><span class=\"nb\">02-Jan-2019</span></td><td>-</td></tr><tr><td>Initial patient assessment</td><td><span class=\"nb\">02-Jan-2019</span></td><td>-</td></tr><tr><td>Development of individualized plan of care</td><td><span class=\"nb\">02-Jan-2019</span></td><td>-</td></tr><tr><td>Postoperative procedure education</td><td><span class=\"nb\">22-Jun-2017</span></td><td>History of coronary artery bypass grafting (situation)</td></tr><tr><td>Stair-climbing test</td><td><span class=\"nb\">22-Jun-2017</span></td><td>History of coronary artery bypass grafting (situation)</td></tr><tr><td>Walking exercise test</td><td><span class=\"nb\">22-Jun-2017</span></td><td>History of coronary artery bypass grafting (situation)</td></tr><tr><td>Discharge to ward</td><td><span class=\"nb\">22-Jun-2017</span></td><td>-</td></tr><tr><td>Discharge from hospital</td><td><span class=\"nb\">22-Jun-2017</span></td><td>History of coronary artery bypass grafting (situation)</td></tr><tr><td>Electrocardiographic procedure</td><td><span class=\"nb\">21-Jun-2017</span></td><td>-</td></tr><tr><td>Transfusion of packed red blood cells</td><td><span class=\"nb\">21-Jun-2017</span></td><td>-</td></tr><tr><td>Plain X-ray of chest</td><td><span class=\"nb\">21-Jun-2017</span></td><td>-</td></tr><tr><td>Removal of endotracheal tube</td><td><span class=\"nb\">18-Jun-2017</span></td><td>-</td></tr></table></div>"
            },
            "entry": [
              {
                "reference": "urn:uuid:938b6ca9-001d-4621-9b90-bcaeab90a4b7"
              },
              {
                "reference": "urn:uuid:aafb7f55-0d2b-478d-af1c-214a6aaf6ab4"
              },
              {
                "reference": "urn:uuid:fa51bb41-f3d0-4428-b76e-18821a7ab27e"
              },
              {
                "reference": "urn:uuid:fbc02ab5-d578-4c4e-a3fb-13e0245e78df"
              },
              {
                "reference": "urn:uuid:9aa184cd-949c-47b8-83b6-cc891e95b1e2"
              },
              {
                "reference": "urn:uuid:df7d6c89-c200-4ba8-a725-2a16231e2a04"
              },
              {
                "reference": "urn:uuid:e0d641ce-8891-4410-89a8-cfaf253f2fad"
              },
              {
                "reference": "urn:uuid:e887924a-5921-44e0-b2f0-ad8870e4662f"
              },
              {
                "reference": "urn:uuid:78d6c1b1-830c-47b6-880c-726600c91be0"
              },
              {
                "reference": "urn:uuid:568d78f2-0d33-45a6-875b-50fdd4baf935"
              },
              {
                "reference": "urn:uuid:8f8e1b4f-e6c6-4a2a-939b-56f9263ad835"
              },
              {
                "reference": "urn:uuid:d4a51bc7-fdda-4a9f-a359-d9e8b6eb1b91"
              },
              {
                "reference": "urn:uuid:d753b21c-40f1-4a58-a6d9-970e641e9c6a"
              },
              {
                "reference": "urn:uuid:b549102e-fe93-410d-a38e-2577669e19d5"
              },
              {
                "reference": "urn:uuid:58d72d94-c097-4a3c-a8be-bc6a342abfa8"
              },
              {
                "reference": "urn:uuid:ef7ec702-4ef1-4087-89e2-503299031c51"
              },
              {
                "reference": "urn:uuid:3555ed6e-d2a8-4872-b07d-f7f2377e9a94"
              },
              {
                "reference": "urn:uuid:0a23f5a7-5a31-4a9c-87c2-bb1db9f62ec4"
              }
            ],
            "code": {
              "coding": [
                {
                  "system": "http://loinc.org",
                  "code": "47519-4",
                  "display": "History of Procedures Document"
                }
              ]
            },
            "title": "Procedure History list"
          },
          {
            "text": {
              "status": "generated",
              "div": "<div xmlns=\"http://www.w3.org/1999/xhtml\"><table class=\"hl7__ips\"><tr><th>Allergy/Intolerance</th><th>Onset Date</th><th>Status</th><th>Type</th><th>Reaction</th></tr><tr><td></td><td>?</td><td>active</td><td>?</td><td></td></tr></table></div>"
            },
            "entry": [
              {
                "reference": "urn:uuid:72d80a78-b15f-4532-a5e4-63b6a6912200"
              }
            ],
            "code": {
              "coding": [
                {
                  "system": "http://loinc.org",
                  "code": "48765-2",
                  "display": "Allergies and adverse reactions Document"
                }
              ]
            },
            "title": "Allergies and Intolerances"
          },
          {
            "text": {
              "status": "generated",
              "div": "<div xmlns=\"http://www.w3.org/1999/xhtml\"><table class=\"hl7__ips\"><tr><th>Active Planned Care / Goals</th><th>Start Date</th><th>Reason</th></tr><tr><td>Dementia management</td><td><span class=\"nb\">19-Jun-2024</span></td><td>Alzheimer's disease (disorder)</td></tr><tr><td><ul><li>Maintain current level of cognitive function as long as possible</li><li>Maintain ability to perform basic activities of daily living (ADLs) with minimal assistance</li><li>Reduce frequency and severity of behavioral and psychological symptoms of dementia</li><li>Ensure adherence to prescribed dementia medications</li><li>Provide support and education to caregiver to reduce burden and improve coping</li></ul></td><td></td><td></td></tr><tr><td>Diabetes self management plan</td><td><span class=\"nb\">21-Jan-1998</span></td><td>Prediabetes</td></tr><tr><td><ul><li>Maintain fasting plasma glucose within the prediabetes range through lifestyle modification and self-management.</li><li>Achieve and maintain hemoglobin A1c within the prediabetes target range through self-management strategies.</li><li>Engage in regular physical activity, follow a balanced diet, and monitor blood glucose as part of the diabetes self-management plan.</li></ul></td><td></td><td></td></tr><tr><th>Immunization Recommendation</th><th>Due Date</th><th>Reason</th></tr><tr><td>Vaccine product containing only Influenza virus antigen (medicinal product)</td><td><span class=\"nb\">01-Oct-2025</span></td><td>Annual seasonal influenza vaccination</td></tr></table></div>"
            },
            "entry": [
              {
                "reference": "urn:uuid:19863756-18e6-4032-9547-0a96d14f52aa"
              },
              {
                "reference": "urn:uuid:acc8fa21-2d39-4ff4-8b83-64b79850548c"
              },
              {
                "reference": "urn:uuid:c7febb64-bbca-4e0b-b2c0-bcf50d314269"
              }
            ],
            "code": {
              "coding": [
                {
                  "system": "http://loinc.org",
                  "code": "18776-5",
                  "display": "Plan of care note"
                }
              ]
            },
            "title": "Care Plan"
          },
          {
            "text": {
              "status": "generated",
              "div": "<div xmlns=\"http://www.w3.org/1999/xhtml\"><table class=\"hl7__ips\"><tr><th>Vital Signs</th><th>2025-06-25</th><th>2025-02-05</th></tr><tr><td>Body Height</td><td>152 cm</td><td>152 cm</td></tr><tr><td>Pain severity - 0-10 verbal numeric rating [Score] - Reported</td><td>3 {score}</td><td>1 {score}</td></tr><tr><td>Body Weight</td><td>71 kg</td><td>71 kg</td></tr><tr><td>Body mass index (BMI) [Ratio]</td><td>30.7 kg/m2</td><td>30.7 kg/m2</td></tr><tr><td>Diastolic Blood Pressure</td><td>62 mm[Hg]</td><td>56 mm[Hg]</td></tr><tr><td>Systolic Blood Pressure</td><td>77 mm[Hg]</td><td>77 mm[Hg]</td></tr><tr><td>Heart rate</td><td>66 /min</td><td>75 /min</td></tr><tr><td>Respiratory rate</td><td>14 /min</td><td>14 /min</td></tr></table></div>"
            },
            "entry": [
              {
                "reference": "urn:uuid:620114b1-becd-4d52-b04b-9f10edabd72b"
              },
              {
                "reference": "urn:uuid:8a1442b8-9e20-43ef-a8a3-4064c3c2615e"
              },
              {
                "reference": "urn:uuid:af61d1c3-ff07-4939-a8c4-0cb7a39c917a"
              },
              {
                "reference": "urn:uuid:57d9c91f-5970-473e-ba6f-89bde8638962"
              },
              {
                "reference": "urn:uuid:020212fa-671e-4716-a326-9192e44a05c5"
              },
              {
                "reference": "urn:uuid:b854fc49-766a-4074-bd64-9f53df207bb2"
              },
              {
                "reference": "urn:uuid:6050dd9c-ec41-42d2-803e-7916ee277742"
              },
              {
                "reference": "urn:uuid:32790940-1383-4930-a885-5524ec2f404b"
              },
              {
                "reference": "urn:uuid:2e634676-bdec-4d73-b06a-85a0094aca60"
              },
              {
                "reference": "urn:uuid:0b2e9978-f7f7-4960-b151-047e3c4dab88"
              },
              {
                "reference": "urn:uuid:7305b378-1051-47e3-a158-868d79b60895"
              },
              {
                "reference": "urn:uuid:2a0d274f-0c9a-4611-89e0-b20ec498b4dc"
              },
              {
                "reference": "urn:uuid:771711f1-fd19-40c7-b301-9c7fddfe71ad"
              },
              {
                "reference": "urn:uuid:e0747f17-a07f-4646-acc8-053c63d0d13a"
              },
              {
                "reference": "urn:uuid:da795312-7518-4c44-9ac2-c5eb4d49afb9"
              },
              {
                "reference": "urn:uuid:db91d89c-74ec-44b2-9526-574fca53043f"
              }
            ],
            "code": {
              "coding": [
                {
                  "system": "http://loinc.org",
                  "code": "8716-3",
                  "display": "Vital signs note"
                }
              ]
            },
            "title": "Vital Signs"
          },
          {
            "text": {
              "status": "generated",
              "div": "<div xmlns=\"http://www.w3.org/1999/xhtml\"><table class=\"hl7__ips\"><table class=\"hl7__ips\"><thead><tr><th>Recent Lab Observations</th><th>25-JUN-2025</th><th>Reference&#xA0;Range</th><th>Unit</th></tr></thead><tbody><tr><td>Hemoglobin A1c/Hemoglobin.total in Blood</td><td>5.9</td><td>4.5 - 6.4</td><td>%</td></tr><tr><td>Glucose [Mass/volume] in Blood</td><td>85.6</td><td>70 - 140</td><td>mg/dL</td></tr><tr><td>Urea nitrogen [Mass/volume] in Blood</td><td>14.0</td><td>7 - 20</td><td>mg/dL</td></tr><tr><td>Creatinine [Mass/volume] in Blood</td><td>0.7</td><td>0.6 - 1.1</td><td>mg/dL</td></tr><tr><td>Calcium [Mass/volume] in Blood</td><td>9.6</td><td>8.5 - 10.4</td><td>mg/dL</td></tr><tr><td>Sodium [Moles/volume] in Blood</td><td>140.3</td><td>135 - 145</td><td>mmol/L</td></tr><tr><td>Potassium [Moles/volume] in Blood</td><td>4.1</td><td>3.5 - 5.1</td><td>mmol/L</td></tr><tr><td>Chloride [Moles/volume] in Blood</td><td>102.6</td><td>98 - 107</td><td>mmol/L</td></tr><tr><td>Carbon dioxide, total [Moles/volume] in Blood</td><td>24.5</td><td>22 - 29</td><td>mmol/L</td></tr></tbody></table></table></div>"
            },
            "entry": [
              {
                "reference": "urn:uuid:45cd7471-c725-4b5b-b9f7-ce68018426db"
              },
              {
                "reference": "urn:uuid:ab52b37d-4d40-4db2-8393-896ffa9df9f3"
              },
              {
                "reference": "urn:uuid:1a39a3e0-691a-426f-bd89-b50369ba9996"
              },
              {
                "reference": "urn:uuid:e99979ad-4477-4e6e-958b-51f69dd69f90"
              },
              {
                "reference": "urn:uuid:c7e72b27-66cb-4291-9e8d-5e3b815ca6fa"
              },
              {
                "reference": "urn:uuid:b4e81aae-326a-428b-8752-8601d11aee04"
              },
              {
                "reference": "urn:uuid:8f6eb305-73db-4b7c-aee8-a8c68bf251d3"
              },
              {
                "reference": "urn:uuid:1e562e01-0a96-412c-9122-3232499786be"
              },
              {
                "reference": "urn:uuid:9d3cff2a-5a5d-4f74-905e-31ad8cb7f9fa"
              }
            ],
            "code": {
              "coding": [
                {
                  "system": "http://loinc.org",
                  "code": "30954-2",
                  "display": "Relevant diagnostic tests/laboratory data note"
                }
              ]
            },
            "title": "Relevant diagnostic tests/laboratory data"
          },
          {
            "text": {
              "status": "generated",
              "div": "<div xmlns=\"http://www.w3.org/1999/xhtml\"><table class=\"hl7__ips\"><tr><th>Device</th><th>Date (since)</th></tr><tr><td>Blood glucose meter (physical object)</td><td><span class=\"nb\">21-Jan-1998</span></td></tr></table></div>"
            },
            "entry": [
              {
                "reference": "urn:uuid:7c39a449-6f8d-47c1-81e7-b7f9f61cd4bd"
              }
            ],
            "code": {
              "coding": [
                {
                  "system": "http://loinc.org",
                  "code": "46264-8",
                  "display": "History of medical device use"
                }
              ]
            },
            "title": "Device Use"
          }
        ],
        "title": "European Patient Summary",
        "status": "final",
        "subject": {
          "reference": "urn:uuid:b90f5ea3-924c-4963-9d0b-455120235e02",
          "display": "Magdolna Balog"
        },
        "custodian": {
          "reference": "urn:uuid:c343fe05-98f4-43f9-9ca8-55cc1b2a8992"
        },
        "date": "2025-06-25",
        "confidentiality": "N"
      }
    },
    {
      "fullUrl": "urn:uuid:b90f5ea3-924c-4963-9d0b-455120235e02",
      "resource": {
        "resourceType": "Patient",
        "id": "b90f5ea3-924c-4963-9d0b-455120235e02",
        "meta": {
          "security": [
            {
              "system": "http://terminology.hl7.org/CodeSystem/v3-ActReason",
              "code": "HTEST"
            },
            {
              "system": "http://terminology.hl7.org/CodeSystem/v3-ActReason",
              "code": "TRAIN"
            }
          ],
          "tag": [
            {
              "system": "https://synderai.net/fhir/CodeSystem/tags",
              "code": "synthetic",
              "display": "SYNDERAI Synthetic data"
            }
          ],
          "profile": [
            "http://hl7.eu/fhir/eps/StructureDefinition/patient-eu-eps"
          ]
        },
        "identifier": [
          {
            "type": {
              "coding": [
                {
                  "code": "PT",
                  "system": "http://terminology.hl7.org/CodeSystem/v2-0203"
                }
              ]
            },
            "system": "http://ec.europa.eu/identifier/eci",
            "value": "2437-386280-4"
          },
          {
            "type": {
              "coding": [
                {
                  "code": "MR",
                  "system": "http://terminology.hl7.org/CodeSystem/v2-0203"
                }
              ]
            },
            "system": "http://local.setting.eu/identifier",
            "value": "1d8dc8c5-3a85-b1b5-4101-cca776d0be28"
          }
        ],
        "name": [
          {
            "family": "Balog"
          },
          {
            "given": [
              "Magdolna"
            ]
          },
          {
            "text": "Magdolna Balog"
          }
        ],
        "address": [
          {
            "line": [
              "Ady endre utca 160."
            ],
            "use": "home",
            "type": "physical",
            "postalCode": "3989",
            "city": "Némethídfa",
            "country": "Hungary"
          }
        ],
        "telecom": [
          {
            "system": "phone",
            "value": "+36 46 091-2914"
          }
        ],
        "extension": [
          {
            "url": "http://hl7.org/fhir/StructureDefinition/patient-nationality",
            "valueCodeableConcept": {
              "coding": [
                {
                  "code": "HU",
                  "system": "http://hl7.org/fhir/ValueSet/country"
                }
              ]
            }
          }
        ],
        "text": {
          "status": "generated",
          "div": "<div xmlns=\"http://www.w3.org/1999/xhtml\"><table class=\"hl7__ips\"><tr><td>Magdolna Balog</td><td>female</td><td>21-May-1946</td></tr></table></div>"
        },
        "gender": "female",
        "birthDate": "1946-05-21"
      }
    },
    {
      "fullUrl": "urn:uuid:ed3b4c86-c6eb-4261-b80b-5b49508a8d04",
      "resource": {
        "resourceType": "PractitionerRole",
        "id": "ed3b4c86-c6eb-4261-b80b-5b49508a8d04",
        "meta": {
          "profile": [
            "http://hl7.eu/fhir/base/StructureDefinition/practitionerRole-eu"
          ]
        },
        "text": {
          "status": "generated",
          "div": "<div xmlns=\"http://www.w3.org/1999/xhtml\"><table class=\"hl7__ips\">Provider Role Id ed3b4c86-c6eb-4261-b80b-5b49508a8d04</table></div>"
        },
        "practitioner": {
          "reference": "urn:uuid:b1a89815-3dcd-4d2c-ac1a-bbf398802346"
        },
        "organization": {
          "reference": "urn:uuid:c343fe05-98f4-43f9-9ca8-55cc1b2a8992"
        }
      }
    },
    {
      "fullUrl": "urn:uuid:b1a89815-3dcd-4d2c-ac1a-bbf398802346",
      "resource": {
        "resourceType": "Practitioner",
        "id": "b1a89815-3dcd-4d2c-ac1a-bbf398802346",
        "meta": {
          "profile": [
            "http://hl7.eu/fhir/base/StructureDefinition/practitioner-eu"
          ]
        },
        "name": [
          {
            "prefix": [
              "Dr."
            ],
            "given": [
              "Hel"
            ],
            "family": "Ping"
          }
        ],
        "text": {
          "status": "generated",
          "div": "<div xmlns=\"http://www.w3.org/1999/xhtml\"><table class=\"hl7__ips\">Dr. Hel Ping</table></div>"
        }
      }
    },
    {
      "fullUrl": "urn:uuid:c343fe05-98f4-43f9-9ca8-55cc1b2a8992",
      "resource": {
        "resourceType": "Organization",
        "id": "c343fe05-98f4-43f9-9ca8-55cc1b2a8992",
        "meta": {
          "profile": [
            "http://hl7.eu/fhir/base/StructureDefinition/organization-eu"
          ]
        },
        "identifier": [
          {
            "assigner": {
              "display": "HL7 Europe"
            },
            "system": "urn:oid:2.16.840.1.113883.2.51.999",
            "value": "00f31976-00dd-4299-8ca8-ab9042433d16"
          }
        ],
        "address": [
          {
            "line": [
              "Csabai kapu 9-11"
            ],
            "city": "Miskolc",
            "postalCode": "3529",
            "country": "Hungary"
          }
        ],
        "text": {
          "status": "generated",
          "div": "<div xmlns=\"http://www.w3.org/1999/xhtml\"><table class=\"hl7__ips\">Semmelweis Ignác Egészségügyi Központ és Egyetemi Oktató Kórház</table></div>"
        },
        "name": "Semmelweis Ignác Egészségügyi Központ és Egyetemi Oktató Kórház"
      }
    },
    {
      "fullUrl": "urn:uuid:661961b6-de30-421f-a9e2-561f2eb1391d",
      "resource": {
        "resourceType": "Condition",
        "id": "661961b6-de30-421f-a9e2-561f2eb1391d",
        "meta": {
          "profile": [
            "http://hl7.org/fhir/uv/ips/StructureDefinition/Condition-uv-ips"
          ]
        },
        "category": [
          {
            "coding": [
              {
                "code": "problem-list-item",
                "system": "http://terminology.hl7.org/CodeSystem/condition-category",
                "display": "Problem List Item"
              }
            ]
          }
        ],
        "code": {
          "coding": [
            {
              "code": "26929004",
              "system": "http://snomed.info/sct",
              "display": "Alzheimer&#039;s disease (disorder)"
            }
          ],
          "text": "Alzheimer&#039;s disease"
        },
        "text": {
          "status": "generated",
          "div": "<div xmlns=\"http://www.w3.org/1999/xhtml\"><table class=\"hl7__ips\"><tr><td>Alzheimer's disease</td><td><span class=\"nb\">19-Jun-2024</span></td><td>active</td></tr></table></div>"
        },
        "onsetDateTime": "2024-06-19",
        "subject": {
          "reference": "urn:uuid:",
          "display": "Magdolna Balog"
        },
        "asserter": {
          "reference": "urn:uuid:",
          "display": "Semmelweis Ignác Egészségügyi Központ és Egyetemi Oktató Kórház"
        }
      }
    },
    {
      "fullUrl": "urn:uuid:70aae04f-38f8-4366-8867-f1e4057b374a",
      "resource": {
        "resourceType": "Condition",
        "id": "70aae04f-38f8-4366-8867-f1e4057b374a",
        "meta": {
          "profile": [
            "http://hl7.org/fhir/uv/ips/StructureDefinition/Condition-uv-ips"
          ]
        },
        "category": [
          {
            "coding": [
              {
                "code": "problem-list-item",
                "system": "http://terminology.hl7.org/CodeSystem/condition-category",
                "display": "Problem List Item"
              }
            ]
          }
        ],
        "code": {
          "coding": [
            {
              "code": "414545008",
              "system": "http://snomed.info/sct",
              "display": "Ischemic heart disease (disorder)"
            }
          ],
          "text": "Ischemic heart disease"
        },
        "text": {
          "status": "generated",
          "div": "<div xmlns=\"http://www.w3.org/1999/xhtml\"><table class=\"hl7__ips\"><tr><td>Ischemic heart disease</td><td><span class=\"nb\">10-May-2017</span></td><td>active</td></tr></table></div>"
        },
        "onsetDateTime": "2017-05-10",
        "subject": {
          "reference": "urn:uuid:",
          "display": "Magdolna Balog"
        },
        "asserter": {
          "reference": "urn:uuid:",
          "display": "Semmelweis Ignác Egészségügyi Központ és Egyetemi Oktató Kórház"
        }
      }
    },
    {
      "fullUrl": "urn:uuid:c785b3bc-c389-4f1b-b389-77680c6783f8",
      "resource": {
        "resourceType": "Condition",
        "id": "c785b3bc-c389-4f1b-b389-77680c6783f8",
        "meta": {
          "profile": [
            "http://hl7.org/fhir/uv/ips/StructureDefinition/Condition-uv-ips"
          ]
        },
        "category": [
          {
            "coding": [
              {
                "code": "problem-list-item",
                "system": "http://terminology.hl7.org/CodeSystem/condition-category",
                "display": "Problem List Item"
              }
            ]
          }
        ],
        "code": {
          "coding": [
            {
              "code": "49436004",
              "system": "http://snomed.info/sct",
              "display": "Atrial fibrillation (disorder)"
            }
          ],
          "text": "Atrial fibrillation"
        },
        "text": {
          "status": "generated",
          "div": "<div xmlns=\"http://www.w3.org/1999/xhtml\"><table class=\"hl7__ips\"><tr><td>Atrial fibrillation</td><td><span class=\"nb\">29-Apr-2015</span></td><td>active</td></tr></table></div>"
        },
        "onsetDateTime": "2015-04-29",
        "subject": {
          "reference": "urn:uuid:",
          "display": "Magdolna Balog"
        },
        "asserter": {
          "reference": "urn:uuid:",
          "display": "Semmelweis Ignác Egészségügyi Központ és Egyetemi Oktató Kórház"
        }
      }
    },
    {
      "fullUrl": "urn:uuid:7f101760-5dfd-4c6d-9f43-d1d9e99bbf4b",
      "resource": {
        "resourceType": "Condition",
        "id": "7f101760-5dfd-4c6d-9f43-d1d9e99bbf4b",
        "meta": {
          "profile": [
            "http://hl7.org/fhir/uv/ips/StructureDefinition/Condition-uv-ips"
          ]
        },
        "category": [
          {
            "coding": [
              {
                "code": "problem-list-item",
                "system": "http://terminology.hl7.org/CodeSystem/condition-category",
                "display": "Problem List Item"
              }
            ]
          }
        ],
        "code": {
          "coding": [
            {
              "code": "64859006",
              "system": "http://snomed.info/sct",
              "display": "Osteoporosis (disorder)"
            }
          ],
          "text": "Osteoporosis"
        },
        "text": {
          "status": "generated",
          "div": "<div xmlns=\"http://www.w3.org/1999/xhtml\"><table class=\"hl7__ips\"><tr><td>Osteoporosis</td><td><span class=\"nb\">25-Feb-2004</span></td><td>active</td></tr></table></div>"
        },
        "onsetDateTime": "2004-02-25",
        "subject": {
          "reference": "urn:uuid:",
          "display": "Magdolna Balog"
        },
        "asserter": {
          "reference": "urn:uuid:",
          "display": "Semmelweis Ignác Egészségügyi Központ és Egyetemi Oktató Kórház"
        }
      }
    },
    {
      "fullUrl": "urn:uuid:b2667716-9751-4167-9aa2-c2fe3e9051f0",
      "resource": {
        "resourceType": "Condition",
        "id": "b2667716-9751-4167-9aa2-c2fe3e9051f0",
        "meta": {
          "profile": [
            "http://hl7.org/fhir/uv/ips/StructureDefinition/Condition-uv-ips"
          ]
        },
        "category": [
          {
            "coding": [
              {
                "code": "problem-list-item",
                "system": "http://terminology.hl7.org/CodeSystem/condition-category",
                "display": "Problem List Item"
              }
            ]
          }
        ],
        "code": {
          "coding": [
            {
              "code": "15777000",
              "system": "http://snomed.info/sct",
              "display": "Prediabetes (disorder)"
            }
          ],
          "text": "Prediabetes"
        },
        "text": {
          "status": "generated",
          "div": "<div xmlns=\"http://www.w3.org/1999/xhtml\"><table class=\"hl7__ips\"><tr><td>Prediabetes</td><td><span class=\"nb\">21-Jan-1998</span></td><td>active</td></tr></table></div>"
        },
        "onsetDateTime": "1998-01-21",
        "subject": {
          "reference": "urn:uuid:",
          "display": "Magdolna Balog"
        },
        "asserter": {
          "reference": "urn:uuid:",
          "display": "Semmelweis Ignác Egészségügyi Központ és Egyetemi Oktató Kórház"
        }
      }
    },
    {
      "fullUrl": "urn:uuid:e12b1007-0812-411d-b183-a5207d2a851a",
      "resource": {
        "resourceType": "Condition",
        "id": "e12b1007-0812-411d-b183-a5207d2a851a",
        "meta": {
          "profile": [
            "http://hl7.org/fhir/uv/ips/StructureDefinition/Condition-uv-ips"
          ]
        },
        "category": [
          {
            "coding": [
              {
                "code": "problem-list-item",
                "system": "http://terminology.hl7.org/CodeSystem/condition-category",
                "display": "Problem List Item"
              }
            ]
          }
        ],
        "code": {
          "coding": [
            {
              "code": "271737000",
              "system": "http://snomed.info/sct",
              "display": "Anemia (disorder)"
            }
          ],
          "text": "Anemia"
        },
        "text": {
          "status": "generated",
          "div": "<div xmlns=\"http://www.w3.org/1999/xhtml\"><table class=\"hl7__ips\"><tr><td>Anemia</td><td><span class=\"nb\">21-Jan-1998</span></td><td>active</td></tr></table></div>"
        },
        "onsetDateTime": "1998-01-21",
        "subject": {
          "reference": "urn:uuid:",
          "display": "Magdolna Balog"
        },
        "asserter": {
          "reference": "urn:uuid:",
          "display": "Semmelweis Ignác Egészségügyi Központ és Egyetemi Oktató Kórház"
        }
      }
    },
    {
      "fullUrl": "urn:uuid:f0b5c36c-0a73-42ca-bc44-33aa32b02866",
      "resource": {
        "resourceType": "Condition",
        "id": "f0b5c36c-0a73-42ca-bc44-33aa32b02866",
        "meta": {
          "profile": [
            "http://hl7.org/fhir/uv/ips/StructureDefinition/Condition-uv-ips"
          ]
        },
        "category": [
          {
            "coding": [
              {
                "code": "problem-list-item",
                "system": "http://terminology.hl7.org/CodeSystem/condition-category",
                "display": "Problem List Item"
              }
            ]
          }
        ],
        "code": {
          "coding": [
            {
              "code": "10509002",
              "system": "http://snomed.info/sct",
              "display": "Acute bronchitis (disorder)"
            }
          ],
          "text": "Acute bronchitis"
        },
        "text": {
          "status": "generated",
          "div": "<div xmlns=\"http://www.w3.org/1999/xhtml\"><table class=\"hl7__ips\"><tr><td><span class=\"grayedout\">Acute bronchitis</span></td><td><span class=\"nb\">26-Jan-2025 - 04-Feb-2025</span></td><td><span class=\"grayedout\">inactive</span></td></tr></table></div>"
        },
        "onsetDateTime": "2025-01-26",
        "abatementDateTime": "2025-02-04",
        "subject": {
          "reference": "urn:uuid:",
          "display": "Magdolna Balog"
        },
        "asserter": {
          "reference": "urn:uuid:",
          "display": "Semmelweis Ignác Egészségügyi Központ és Egyetemi Oktató Kórház"
        }
      }
    },
    {
      "fullUrl": "urn:uuid:3d241df9-1f76-4110-bfd6-f220e5f9b6be",
      "resource": {
        "resourceType": "Condition",
        "id": "3d241df9-1f76-4110-bfd6-f220e5f9b6be",
        "meta": {
          "profile": [
            "http://hl7.org/fhir/uv/ips/StructureDefinition/Condition-uv-ips"
          ]
        },
        "category": [
          {
            "coding": [
              {
                "code": "problem-list-item",
                "system": "http://terminology.hl7.org/CodeSystem/condition-category",
                "display": "Problem List Item"
              }
            ]
          }
        ],
        "code": {
          "coding": [
            {
              "code": "70704007",
              "system": "http://snomed.info/sct",
              "display": "Sprain of wrist (disorder)"
            }
          ],
          "text": "Sprain of wrist"
        },
        "text": {
          "status": "generated",
          "div": "<div xmlns=\"http://www.w3.org/1999/xhtml\"><table class=\"hl7__ips\"><tr><td><span class=\"grayedout\">Sprain of wrist</span></td><td><span class=\"nb\">18-May-2024 - 23-Jun-2024</span></td><td><span class=\"grayedout\">inactive</span></td></tr></table></div>"
        },
        "onsetDateTime": "2024-05-18",
        "abatementDateTime": "2024-06-23",
        "subject": {
          "reference": "urn:uuid:",
          "display": "Magdolna Balog"
        },
        "asserter": {
          "reference": "urn:uuid:",
          "display": "Semmelweis Ignác Egészségügyi Központ és Egyetemi Oktató Kórház"
        }
      }
    },
    {
      "fullUrl": "urn:uuid:7b5a4e91-df1b-4db7-b071-f2c1641ea354",
      "resource": {
        "resourceType": "Condition",
        "id": "7b5a4e91-df1b-4db7-b071-f2c1641ea354",
        "meta": {
          "profile": [
            "http://hl7.org/fhir/uv/ips/StructureDefinition/Condition-uv-ips"
          ]
        },
        "category": [
          {
            "coding": [
              {
                "code": "problem-list-item",
                "system": "http://terminology.hl7.org/CodeSystem/condition-category",
                "display": "Problem List Item"
              }
            ]
          }
        ],
        "code": {
          "coding": [
            {
              "code": "43878008",
              "system": "http://snomed.info/sct",
              "display": "Streptococcal sore throat (disorder)"
            }
          ],
          "text": "Streptococcal sore throat"
        },
        "text": {
          "status": "generated",
          "div": "<div xmlns=\"http://www.w3.org/1999/xhtml\"><table class=\"hl7__ips\"><tr><td><span class=\"grayedout\">Streptococcal sore throat</span></td><td><span class=\"nb\">28-Aug-2019 - 07-Sep-2019</span></td><td><span class=\"grayedout\">inactive</span></td></tr></table></div>"
        },
        "onsetDateTime": "2019-08-28",
        "abatementDateTime": "2019-09-07",
        "subject": {
          "reference": "urn:uuid:",
          "display": "Magdolna Balog"
        },
        "asserter": {
          "reference": "urn:uuid:",
          "display": "Semmelweis Ignác Egészségügyi Központ és Egyetemi Oktató Kórház"
        }
      }
    },
    {
      "fullUrl": "urn:uuid:77bef903-7013-48a2-821b-e60adca07434",
      "resource": {
        "resourceType": "Medication",
        "id": "77bef903-7013-48a2-821b-e60adca07434",
        "meta": {
          "profile": [
            "http://hl7.eu/fhir/eps/StructureDefinition/Medication-eu-eps"
          ]
        },
        "code": {
          "coding": [
            {
              "code": "317896006",
              "system": "http://snomed.info/sct",
              "display": "Digoxin 125 microgram oral tablet"
            }
          ],
          "text": "Digoxin 125 microgram oral tablet"
        },
        "text": {
          "status": "generated",
          "div": "<div xmlns=\"http://www.w3.org/1999/xhtml\">Digoxin 125 microgram oral tablet</div>"
        }
      }
    },
    {
      "fullUrl": "urn:uuid:5be8047f-7841-439a-bb27-3b23e2163805",
      "resource": {
        "resourceType": "MedicationStatement",
        "id": "5be8047f-7841-439a-bb27-3b23e2163805",
        "meta": {
          "profile": [
            "http://hl7.eu/fhir/eps/StructureDefinition/MedicationStatement-eu-eps"
          ]
        },
        "effectivePeriod": {
          "start": "2025-06-25"
        },
        "dosage": [
          {
            "doseAndRate": [
              {
                "doseQuantity": {
                  "value": 1,
                  "unit": "{tbl}",
                  "system": "$ucum",
                  "code": "{tbl}"
                }
              }
            ],
            "timing": {
              "repeat": {
                "frequency": 1,
                "period": 1,
                "periodUnit": "d"
              }
            },
            "text": "1 tablet (125 microgram) once daily",
            "asNeededBoolean": false
          }
        ],
        "reasonCode": [
          {
            "coding": [
              {
                "code": "49436004",
                "system": "http://snomed.info/sct",
                "display": "Atrial fibrillation (disorder)"
              }
            ]
          }
        ],
        "text": {
          "status": "generated",
          "div": "<div xmlns=\"http://www.w3.org/1999/xhtml\"><table class=\"hl7__ips first25\"><tr><th>Medication</th><th>Since</th><th>Form</th><th>Dosage</th><th>Reason</th></tr><tr><td>Digoxin 125 microgram oral tablet</td><td><span class=\"nb\">2025-06-25</span></td><td>-</td><td>1 tablet (125 microgram) once daily</td><td>Atrial fibrillation (disorder)</td></tr></table></div>"
        },
        "status": "active",
        "medicationReference": {
          "reference": "urn:uuid:77bef903-7013-48a2-821b-e60adca07434",
          "display": "Digoxin 125 microgram oral tablet"
        },
        "subject": {
          "reference": "urn:uuid:b90f5ea3-924c-4963-9d0b-455120235e02",
          "display": "Magdolna Balog"
        }
      }
    },
    {
      "fullUrl": "urn:uuid:23b93efe-519a-42d5-b8d6-20b22ed5aab6",
      "resource": {
        "resourceType": "Medication",
        "id": "23b93efe-519a-42d5-b8d6-20b22ed5aab6",
        "meta": {
          "profile": [
            "http://hl7.eu/fhir/eps/StructureDefinition/Medication-eu-eps"
          ]
        },
        "code": {
          "coding": [
            {
              "code": "319735007",
              "system": "http://snomed.info/sct",
              "display": "Warfarin sodium 5 mg oral tablet"
            }
          ],
          "text": "Warfarin sodium 5 mg oral tablet"
        },
        "text": {
          "status": "generated",
          "div": "<div xmlns=\"http://www.w3.org/1999/xhtml\">Warfarin sodium 5 mg oral tablet</div>"
        }
      }
    },
    {
      "fullUrl": "urn:uuid:5a4afa4e-6288-4b4c-86c2-0e95af78ee31",
      "resource": {
        "resourceType": "MedicationStatement",
        "id": "5a4afa4e-6288-4b4c-86c2-0e95af78ee31",
        "meta": {
          "profile": [
            "http://hl7.eu/fhir/eps/StructureDefinition/MedicationStatement-eu-eps"
          ]
        },
        "effectivePeriod": {
          "start": "2025-06-25"
        },
        "dosage": [
          {
            "doseAndRate": [
              {
                "doseQuantity": {
                  "value": 1,
                  "unit": "{tbl}",
                  "system": "$ucum",
                  "code": "{tbl}"
                }
              }
            ],
            "timing": {
              "repeat": {
                "frequency": 1,
                "period": 1,
                "periodUnit": "d"
              }
            },
            "text": "1 tablet (5 mg) by mouth once daily",
            "asNeededBoolean": false
          }
        ],
        "reasonCode": [
          {
            "coding": [
              {
                "code": "49436004",
                "system": "http://snomed.info/sct",
                "display": "Atrial fibrillation (disorder)"
              }
            ]
          }
        ],
        "text": {
          "status": "generated",
          "div": "<div xmlns=\"http://www.w3.org/1999/xhtml\"><table class=\"hl7__ips first25\"><tr><th>Medication</th><th>Since</th><th>Form</th><th>Dosage</th><th>Reason</th></tr><tr><td>Warfarin sodium 5 mg oral tablet</td><td><span class=\"nb\">2025-06-25</span></td><td>-</td><td>1 tablet (5 mg) by mouth once daily</td><td>Atrial fibrillation (disorder)</td></tr></table></div>"
        },
        "status": "active",
        "medicationReference": {
          "reference": "urn:uuid:23b93efe-519a-42d5-b8d6-20b22ed5aab6",
          "display": "Warfarin sodium 5 mg oral tablet"
        },
        "subject": {
          "reference": "urn:uuid:b90f5ea3-924c-4963-9d0b-455120235e02",
          "display": "Magdolna Balog"
        }
      }
    },
    {
      "fullUrl": "urn:uuid:689ed94d-c74f-4a7b-8537-4af200e3dd08",
      "resource": {
        "resourceType": "Medication",
        "id": "689ed94d-c74f-4a7b-8537-4af200e3dd08",
        "meta": {
          "profile": [
            "http://hl7.eu/fhir/eps/StructureDefinition/Medication-eu-eps"
          ]
        },
        "code": {
          "coding": [
            {
              "code": "318205007",
              "system": "http://snomed.info/sct",
              "display": "Verapamil hydrochloride 80 mg oral tablet"
            }
          ],
          "text": "Verapamil hydrochloride 80 mg oral tablet"
        },
        "text": {
          "status": "generated",
          "div": "<div xmlns=\"http://www.w3.org/1999/xhtml\">Verapamil hydrochloride 80 mg oral tablet</div>"
        }
      }
    },
    {
      "fullUrl": "urn:uuid:d3b0c24c-a1fd-4a0f-bbea-776510ff0adb",
      "resource": {
        "resourceType": "MedicationStatement",
        "id": "d3b0c24c-a1fd-4a0f-bbea-776510ff0adb",
        "meta": {
          "profile": [
            "http://hl7.eu/fhir/eps/StructureDefinition/MedicationStatement-eu-eps"
          ]
        },
        "effectivePeriod": {
          "start": "2025-06-25"
        },
        "dosage": [
          {
            "doseAndRate": [
              {
                "doseQuantity": {
                  "value": 1,
                  "unit": "{tbl}",
                  "system": "$ucum",
                  "code": "{tbl}"
                }
              }
            ],
            "timing": {
              "repeat": {
                "frequency": 3,
                "period": 1,
                "periodUnit": "d"
              }
            },
            "text": "1 tablet (80 mg) three times daily",
            "asNeededBoolean": false
          }
        ],
        "reasonCode": [
          {
            "coding": [
              {
                "code": "49436004",
                "system": "http://snomed.info/sct",
                "display": "Atrial fibrillation (disorder)"
              }
            ]
          }
        ],
        "text": {
          "status": "generated",
          "div": "<div xmlns=\"http://www.w3.org/1999/xhtml\"><table class=\"hl7__ips first25\"><tr><th>Medication</th><th>Since</th><th>Form</th><th>Dosage</th><th>Reason</th></tr><tr><td>Verapamil hydrochloride 80 mg oral tablet</td><td><span class=\"nb\">2025-06-25</span></td><td>-</td><td>1 tablet (80 mg) three times daily</td><td>Atrial fibrillation (disorder)</td></tr></table></div>"
        },
        "status": "active",
        "medicationReference": {
          "reference": "urn:uuid:689ed94d-c74f-4a7b-8537-4af200e3dd08",
          "display": "Verapamil hydrochloride 80 mg oral tablet"
        },
        "subject": {
          "reference": "urn:uuid:b90f5ea3-924c-4963-9d0b-455120235e02",
          "display": "Magdolna Balog"
        }
      }
    },
    {
      "fullUrl": "urn:uuid:6e19fdc4-0082-482c-ad62-abc3e5ae59c3",
      "resource": {
        "resourceType": "Medication",
        "id": "6e19fdc4-0082-482c-ad62-abc3e5ae59c3",
        "meta": {
          "profile": [
            "http://hl7.eu/fhir/eps/StructureDefinition/Medication-eu-eps"
          ]
        },
        "code": {
          "coding": [
            {
              "code": "783144007",
              "system": "http://snomed.info/sct",
              "display": "Alendronic acid (as alendronate sodium) 10 mg oral tablet"
            }
          ],
          "text": "Alendronic acid (as alendronate sodium) 10 mg oral tablet"
        },
        "text": {
          "status": "generated",
          "div": "<div xmlns=\"http://www.w3.org/1999/xhtml\">Alendronic acid (as alendronate sodium) 10 mg oral tablet</div>"
        }
      }
    },
    {
      "fullUrl": "urn:uuid:0ea368bb-4eab-4003-8db9-63c809d63e31",
      "resource": {
        "resourceType": "MedicationStatement",
        "id": "0ea368bb-4eab-4003-8db9-63c809d63e31",
        "meta": {
          "profile": [
            "http://hl7.eu/fhir/eps/StructureDefinition/MedicationStatement-eu-eps"
          ]
        },
        "effectivePeriod": {
          "start": "2025-06-25"
        },
        "dosage": [
          {
            "doseAndRate": [
              {
                "doseQuantity": {
                  "value": 1,
                  "unit": "{tbl}",
                  "code": "{tbl}"
                }
              }
            ],
            "timing": {
              "repeat": {
                "frequency": 1,
                "period": 1,
                "periodUnit": "d"
              }
            },
            "text": "1 tablet (10 mg) once daily",
            "asNeededBoolean": false
          }
        ],
        "reasonCode": [
          {
            "coding": [
              {
                "code": "64859006",
                "system": "http://snomed.info/sct",
                "display": "Osteoporosis (disorder)"
              }
            ]
          }
        ],
        "text": {
          "status": "generated",
          "div": "<div xmlns=\"http://www.w3.org/1999/xhtml\"><table class=\"hl7__ips first25\"><tr><th>Medication</th><th>Since</th><th>Form</th><th>Dosage</th><th>Reason</th></tr><tr><td>Alendronic acid (as alendronate sodium) 10 mg oral tablet</td><td><span class=\"nb\">2025-06-25</span></td><td>-</td><td>1 tablet (10 mg) once daily</td><td>Osteoporosis (disorder)</td></tr></table></div>"
        },
        "status": "active",
        "medicationReference": {
          "reference": "urn:uuid:6e19fdc4-0082-482c-ad62-abc3e5ae59c3",
          "display": "Alendronic acid (as alendronate sodium) 10 mg oral tablet"
        },
        "subject": {
          "reference": "urn:uuid:b90f5ea3-924c-4963-9d0b-455120235e02",
          "display": "Magdolna Balog"
        }
      }
    },
    {
      "fullUrl": "urn:uuid:19536529-240f-4e8d-8e14-1cd0b8d1fd4e",
      "resource": {
        "resourceType": "Medication",
        "id": "19536529-240f-4e8d-8e14-1cd0b8d1fd4e",
        "meta": {
          "profile": [
            "http://hl7.eu/fhir/eps/StructureDefinition/Medication-eu-eps"
          ]
        },
        "code": {
          "coding": [
            {
              "code": "323381002",
              "system": "http://snomed.info/sct",
              "display": "Galantamine (as galantamine hydrobromide) 4 mg oral tablet"
            }
          ],
          "text": "Galantamine (as galantamine hydrobromide) 4 mg oral tablet"
        },
        "text": {
          "status": "generated",
          "div": "<div xmlns=\"http://www.w3.org/1999/xhtml\">Galantamine (as galantamine hydrobromide) 4 mg oral tablet</div>"
        }
      }
    },
    {
      "fullUrl": "urn:uuid:daaf0dda-3442-4152-a031-6909f8955900",
      "resource": {
        "resourceType": "MedicationStatement",
        "id": "daaf0dda-3442-4152-a031-6909f8955900",
        "meta": {
          "profile": [
            "http://hl7.eu/fhir/eps/StructureDefinition/MedicationStatement-eu-eps"
          ]
        },
        "effectivePeriod": {
          "start": "2024-06-19"
        },
        "dosage": [
          {
            "doseAndRate": [
              {
                "doseQuantity": {
                  "value": 1,
                  "unit": "{tbl}",
                  "code": "{tbl}"
                }
              }
            ],
            "timing": {
              "repeat": {
                "frequency": 1,
                "period": 1,
                "periodUnit": "d"
              }
            },
            "text": "1 tablet (4 mg) once daily",
            "asNeededBoolean": false
          }
        ],
        "reasonCode": [
          {
            "coding": [
              {
                "code": "26929004",
                "system": "http://snomed.info/sct",
                "display": "Alzheimer&#039;s disease (disorder)"
              }
            ]
          }
        ],
        "text": {
          "status": "generated",
          "div": "<div xmlns=\"http://www.w3.org/1999/xhtml\"><table class=\"hl7__ips first25\"><tr><th>Medication</th><th>Since</th><th>Form</th><th>Dosage</th><th>Reason</th></tr><tr><td>Galantamine (as galantamine hydrobromide) 4 mg oral tablet</td><td><span class=\"nb\">2024-06-19</span></td><td>-</td><td>1 tablet (4 mg) once daily</td><td>Alzheimer's disease (disorder)</td></tr></table></div>"
        },
        "status": "active",
        "medicationReference": {
          "reference": "urn:uuid:19536529-240f-4e8d-8e14-1cd0b8d1fd4e",
          "display": "Galantamine (as galantamine hydrobromide) 4 mg oral tablet"
        },
        "subject": {
          "reference": "urn:uuid:b90f5ea3-924c-4963-9d0b-455120235e02",
          "display": "Magdolna Balog"
        }
      }
    },
    {
      "fullUrl": "urn:uuid:04d3d830-eb33-4372-9371-9a473c3d3104",
      "resource": {
        "resourceType": "Medication",
        "id": "04d3d830-eb33-4372-9371-9a473c3d3104",
        "meta": {
          "profile": [
            "http://hl7.eu/fhir/eps/StructureDefinition/Medication-eu-eps"
          ]
        },
        "code": {
          "coding": [
            {
              "code": "783586007",
              "system": "http://snomed.info/sct",
              "display": "Clopidogrel (as clopidogrel bisulfate) 75 mg oral tablet"
            }
          ],
          "text": "Clopidogrel (as clopidogrel bisulfate) 75 mg oral tablet"
        },
        "text": {
          "status": "generated",
          "div": "<div xmlns=\"http://www.w3.org/1999/xhtml\">Clopidogrel (as clopidogrel bisulfate) 75 mg oral tablet</div>"
        }
      }
    },
    {
      "fullUrl": "urn:uuid:fb5c0878-bd04-42ff-a29d-0dd31b9f9d8e",
      "resource": {
        "resourceType": "MedicationStatement",
        "id": "fb5c0878-bd04-42ff-a29d-0dd31b9f9d8e",
        "meta": {
          "profile": [
            "http://hl7.eu/fhir/eps/StructureDefinition/MedicationStatement-eu-eps"
          ]
        },
        "effectivePeriod": {
          "start": "2017-05-17"
        },
        "dosage": [
          {
            "doseAndRate": [
              {
                "doseQuantity": {
                  "value": 1,
                  "unit": "{tbl}",
                  "code": "{tbl}"
                }
              }
            ],
            "timing": {
              "repeat": {
                "frequency": 1,
                "period": 1,
                "periodUnit": "d"
              }
            },
            "text": "1 tablet (75 mg) by mouth once daily",
            "asNeededBoolean": false
          }
        ],
        "text": {
          "status": "generated",
          "div": "<div xmlns=\"http://www.w3.org/1999/xhtml\"><table class=\"hl7__ips first25\"><tr><th>Medication</th><th>Since</th><th>Form</th><th>Dosage</th><th>Reason</th></tr><tr><td>Clopidogrel (as clopidogrel bisulfate) 75 mg oral tablet</td><td><span class=\"nb\">2017-05-17</span></td><td>-</td><td>1 tablet (75 mg) by mouth once daily</td><td>-</td></tr></table></div>"
        },
        "status": "active",
        "medicationReference": {
          "reference": "urn:uuid:04d3d830-eb33-4372-9371-9a473c3d3104",
          "display": "Clopidogrel (as clopidogrel bisulfate) 75 mg oral tablet"
        },
        "subject": {
          "reference": "urn:uuid:b90f5ea3-924c-4963-9d0b-455120235e02",
          "display": "Magdolna Balog"
        }
      }
    },
    {
      "fullUrl": "urn:uuid:e85f8fd3-f288-4946-b78d-4f9f04a6b248",
      "resource": {
        "resourceType": "Medication",
        "id": "e85f8fd3-f288-4946-b78d-4f9f04a6b248",
        "meta": {
          "profile": [
            "http://hl7.eu/fhir/eps/StructureDefinition/Medication-eu-eps"
          ]
        },
        "code": {
          "coding": [
            {
              "code": "319997009",
              "system": "http://snomed.info/sct",
              "display": "Simvastatin 20 mg oral tablet"
            }
          ],
          "text": "Simvastatin 20 mg oral tablet"
        },
        "text": {
          "status": "generated",
          "div": "<div xmlns=\"http://www.w3.org/1999/xhtml\">Simvastatin 20 mg oral tablet</div>"
        }
      }
    },
    {
      "fullUrl": "urn:uuid:a4a76c51-be3d-46e5-a0ba-dcf7ab961e07",
      "resource": {
        "resourceType": "MedicationStatement",
        "id": "a4a76c51-be3d-46e5-a0ba-dcf7ab961e07",
        "meta": {
          "profile": [
            "http://hl7.eu/fhir/eps/StructureDefinition/MedicationStatement-eu-eps"
          ]
        },
        "effectivePeriod": {
          "start": "2017-05-17"
        },
        "dosage": [
          {
            "doseAndRate": [
              {
                "doseQuantity": {
                  "value": 1,
                  "unit": "{tbl}",
                  "code": "{tbl}"
                }
              }
            ],
            "timing": {
              "repeat": {
                "frequency": 1,
                "period": 1,
                "periodUnit": "d"
              }
            },
            "text": "1 tablet (20 mg) by mouth once daily",
            "asNeededBoolean": false
          }
        ],
        "text": {
          "status": "generated",
          "div": "<div xmlns=\"http://www.w3.org/1999/xhtml\"><table class=\"hl7__ips first25\"><tr><th>Medication</th><th>Since</th><th>Form</th><th>Dosage</th><th>Reason</th></tr><tr><td>Simvastatin 20 mg oral tablet</td><td><span class=\"nb\">2017-05-17</span></td><td>-</td><td>1 tablet (20 mg) by mouth once daily</td><td>-</td></tr></table></div>"
        },
        "status": "active",
        "medicationReference": {
          "reference": "urn:uuid:e85f8fd3-f288-4946-b78d-4f9f04a6b248",
          "display": "Simvastatin 20 mg oral tablet"
        },
        "subject": {
          "reference": "urn:uuid:b90f5ea3-924c-4963-9d0b-455120235e02",
          "display": "Magdolna Balog"
        }
      }
    },
    {
      "fullUrl": "urn:uuid:c45ce335-9cb6-4a53-8f01-03a4063f924f",
      "resource": {
        "resourceType": "Medication",
        "id": "c45ce335-9cb6-4a53-8f01-03a4063f924f",
        "meta": {
          "profile": [
            "http://hl7.eu/fhir/eps/StructureDefinition/Medication-eu-eps"
          ]
        },
        "code": {
          "coding": [
            {
              "code": "425176000",
              "system": "http://snomed.info/sct",
              "display": "Nitroglycerin 400 microgram/actuation sublingual spray"
            }
          ],
          "text": "Nitroglycerin 400 microgram/actuation sublingual spray"
        },
        "text": {
          "status": "generated",
          "div": "<div xmlns=\"http://www.w3.org/1999/xhtml\">Nitroglycerin 400 microgram/actuation sublingual spray</div>"
        }
      }
    },
    {
      "fullUrl": "urn:uuid:6e350fde-160f-44f8-a516-6b265da14447",
      "resource": {
        "resourceType": "MedicationStatement",
        "id": "6e350fde-160f-44f8-a516-6b265da14447",
        "meta": {
          "profile": [
            "http://hl7.eu/fhir/eps/StructureDefinition/MedicationStatement-eu-eps"
          ]
        },
        "effectivePeriod": {
          "start": "2017-05-17"
        },
        "dosage": [
          {
            "doseAndRate": [
              {
                "doseQuantity": {
                  "value": 400,
                  "unit": "mcg",
                  "code": "ug"
                }
              }
            ],
            "timing": {
              "repeat": {
                "frequency": 1,
                "period": 5,
                "periodUnit": "min"
              }
            },
            "text": "1 spray (400 micrograms) under the tongue as needed for chest pain, may repeat every 5 minutes as needed, up to 3 sprays in 15 minutes",
            "asNeededBoolean": true
          }
        ],
        "text": {
          "status": "generated",
          "div": "<div xmlns=\"http://www.w3.org/1999/xhtml\"><table class=\"hl7__ips first25\"><tr><th>Medication</th><th>Since</th><th>Form</th><th>Dosage</th><th>Reason</th></tr><tr><td>Nitroglycerin 400 microgram/actuation sublingual spray</td><td><span class=\"nb\">2017-05-17</span></td><td>-</td><td>1 spray (400 micrograms) under the tongue as needed for chest pain, may repeat every 5 minutes as needed, up to 3 sprays in 15 minutes</td><td>-</td></tr></table></div>"
        },
        "status": "active",
        "medicationReference": {
          "reference": "urn:uuid:c45ce335-9cb6-4a53-8f01-03a4063f924f",
          "display": "Nitroglycerin 400 microgram/actuation sublingual spray"
        },
        "subject": {
          "reference": "urn:uuid:b90f5ea3-924c-4963-9d0b-455120235e02",
          "display": "Magdolna Balog"
        }
      }
    },
    {
      "fullUrl": "urn:uuid:92ae35b4-bbcf-4e53-a1c9-7c108fb130a0",
      "resource": {
        "resourceType": "Medication",
        "id": "92ae35b4-bbcf-4e53-a1c9-7c108fb130a0",
        "meta": {
          "profile": [
            "http://hl7.eu/fhir/eps/StructureDefinition/Medication-eu-eps"
          ]
        },
        "code": {
          "coding": [
            {
              "code": "879980009",
              "system": "http://snomed.info/sct",
              "display": "Metoprolol tartrate (as metoprolol succinate) 100 mg prolonged-release oral tablet"
            }
          ],
          "text": "Metoprolol tartrate (as metoprolol succinate) 100 mg prolonged-release oral tablet"
        },
        "text": {
          "status": "generated",
          "div": "<div xmlns=\"http://www.w3.org/1999/xhtml\">Metoprolol tartrate (as metoprolol succinate) 100 mg prolonged-release oral tablet</div>"
        }
      }
    },
    {
      "fullUrl": "urn:uuid:837db732-a81b-4e32-a634-6cf5d87e30e3",
      "resource": {
        "resourceType": "MedicationStatement",
        "id": "837db732-a81b-4e32-a634-6cf5d87e30e3",
        "meta": {
          "profile": [
            "http://hl7.eu/fhir/eps/StructureDefinition/MedicationStatement-eu-eps"
          ]
        },
        "effectivePeriod": {
          "start": "2017-05-17"
        },
        "dosage": [
          {
            "doseAndRate": [
              {
                "doseQuantity": {
                  "value": 1,
                  "unit": "{tbl}",
                  "code": "{tbl}"
                }
              }
            ],
            "timing": {
              "repeat": {
                "frequency": 1,
                "period": 1,
                "periodUnit": "d"
              }
            },
            "text": "1 tablet (100 mg) once daily",
            "asNeededBoolean": false
          }
        ],
        "text": {
          "status": "generated",
          "div": "<div xmlns=\"http://www.w3.org/1999/xhtml\"><table class=\"hl7__ips first25\"><tr><th>Medication</th><th>Since</th><th>Form</th><th>Dosage</th><th>Reason</th></tr><tr><td>Metoprolol tartrate (as metoprolol succinate) 100 mg prolonged-release oral tablet</td><td><span class=\"nb\">2017-05-17</span></td><td>-</td><td>1 tablet (100 mg) once daily</td><td>-</td></tr></table></div>"
        },
        "status": "active",
        "medicationReference": {
          "reference": "urn:uuid:92ae35b4-bbcf-4e53-a1c9-7c108fb130a0",
          "display": "Metoprolol tartrate (as metoprolol succinate) 100 mg prolonged-release oral tablet"
        },
        "subject": {
          "reference": "urn:uuid:b90f5ea3-924c-4963-9d0b-455120235e02",
          "display": "Magdolna Balog"
        }
      }
    },
    {
      "fullUrl": "urn:uuid:6884a4b9-40a1-4d32-bf49-83c425ef1726",
      "resource": {
        "resourceType": "Immunization",
        "id": "6884a4b9-40a1-4d32-bf49-83c425ef1726",
        "meta": {
          "profile": [
            "http://hl7.org/fhir/uv/ips/StructureDefinition/Immunization-uv-ips"
          ]
        },
        "vaccineCode": {
          "coding": [
            {
              "code": "777725002",
              "system": "http://snomed.info/sct",
              "display": "Vaccine product containing only Clostridium tetani toxoid antigen adsorbed"
            },
            {
              "code": "J07AM51",
              "system": "http://www.whocc.no/atc",
              "display": "Diphtheria-tetanus vaccines, adult type"
            }
          ],
          "text": "Clostridium tetani toxoid antigen adsorbed only vaccine product"
        },
        "site": {
          "coding": [
            {
              "code": "244979005",
              "system": "http://snomed.info/sct",
              "display": "Entire muscle of upper arm"
            }
          ],
          "text": "Entire muscle of upper arm"
        },
        "route": {
          "coding": [
            {
              "code": "78421000",
              "system": "http://snomed.info/sct",
              "display": "Intramuscular route"
            }
          ],
          "text": "Intramuscular route"
        },
        "text": {
          "status": "generated",
          "div": "<div xmlns=\"http://www.w3.org/1999/xhtml\"><table class=\"hl7__ips\"><tr><td>Clostridium tetani toxoid antigen adsorbed only vaccine product</td><td><span class=\"nb\">05-Feb-2025</span></td></tr></table></div>"
        },
        "status": "completed",
        "patient": {
          "reference": "urn:uuid:b90f5ea3-924c-4963-9d0b-455120235e02",
          "display": "Magdolna Balog"
        },
        "occurrenceDateTime": "2025-02-05",
        "lotNumber": "TY-BzsElLw",
        "expirationDate": "2025-04-27"
      }
    },
    {
      "fullUrl": "urn:uuid:0986f78b-b218-47d2-80af-6baed4d88d4c",
      "resource": {
        "resourceType": "Immunization",
        "id": "0986f78b-b218-47d2-80af-6baed4d88d4c",
        "meta": {
          "profile": [
            "http://hl7.org/fhir/uv/ips/StructureDefinition/Immunization-uv-ips"
          ]
        },
        "vaccineCode": {
          "coding": [
            {
              "code": "1181000221105",
              "system": "http://snomed.info/sct",
              "display": "Vaccine product containing Influenza virus antigen"
            },
            {
              "code": "J07BB02",
              "system": "http://www.whocc.no/atc",
              "display": "Influenza, inactivated, split virus"
            }
          ],
          "text": "Influenza virus antigen only vaccine product"
        },
        "site": {
          "coding": [
            {
              "code": "244979005",
              "system": "http://snomed.info/sct",
              "display": "Entire muscle of upper arm"
            }
          ],
          "text": "Entire muscle of upper arm"
        },
        "route": {
          "coding": [
            {
              "code": "78421000",
              "system": "http://snomed.info/sct",
              "display": "Intramuscular route"
            }
          ],
          "text": "Intramuscular route"
        },
        "text": {
          "status": "generated",
          "div": "<div xmlns=\"http://www.w3.org/1999/xhtml\"><table class=\"hl7__ips\"><tr><td>Influenza virus antigen only vaccine product</td><td><span class=\"nb\">05-Feb-2025</span></td></tr></table></div>"
        },
        "status": "completed",
        "patient": {
          "reference": "urn:uuid:b90f5ea3-924c-4963-9d0b-455120235e02",
          "display": "Magdolna Balog"
        },
        "occurrenceDateTime": "2025-02-05",
        "lotNumber": "VF-ARv6gS",
        "expirationDate": "2025-08-10"
      }
    },
    {
      "fullUrl": "urn:uuid:938b6ca9-001d-4621-9b90-bcaeab90a4b7",
      "resource": {
        "resourceType": "Procedure",
        "id": "938b6ca9-001d-4621-9b90-bcaeab90a4b7",
        "meta": {
          "profile": [
            "http://hl7.org/fhir/uv/ips/StructureDefinition/Procedure-uv-ips"
          ]
        },
        "code": {
          "coding": [
            {
              "code": "710824005",
              "system": "http://snomed.info/sct",
              "display": "Assessment of health and social care needs (procedure)"
            }
          ],
          "text": "Assessment of health and social care needs"
        },
        "text": {
          "status": "generated",
          "div": "<div xmlns=\"http://www.w3.org/1999/xhtml\"><table class=\"hl7__ips\"><tr><td>Assessment of health and social care needs</td><td><span class=\"nb\">05-Feb-2025</span></td><td>-</td></tr></table></div>"
        },
        "status": "completed",
        "performedDateTime": "2025-02-05",
        "subject": {
          "reference": "urn:uuid:",
          "display": "Magdolna Balog"
        }
      }
    },
    {
      "fullUrl": "urn:uuid:aafb7f55-0d2b-478d-af1c-214a6aaf6ab4",
      "resource": {
        "resourceType": "Procedure",
        "id": "aafb7f55-0d2b-478d-af1c-214a6aaf6ab4",
        "meta": {
          "profile": [
            "http://hl7.org/fhir/uv/ips/StructureDefinition/Procedure-uv-ips"
          ]
        },
        "code": {
          "coding": [
            {
              "code": "713106006",
              "system": "http://snomed.info/sct",
              "display": "Screening for drug abuse (procedure)"
            }
          ],
          "text": "Screening for drug abuse"
        },
        "text": {
          "status": "generated",
          "div": "<div xmlns=\"http://www.w3.org/1999/xhtml\"><table class=\"hl7__ips\"><tr><td>Screening for drug abuse</td><td><span class=\"nb\">05-Feb-2025</span></td><td>-</td></tr></table></div>"
        },
        "status": "completed",
        "performedDateTime": "2025-02-05",
        "subject": {
          "reference": "urn:uuid:",
          "display": "Magdolna Balog"
        }
      }
    },
    {
      "fullUrl": "urn:uuid:fa51bb41-f3d0-4428-b76e-18821a7ab27e",
      "resource": {
        "resourceType": "Procedure",
        "id": "fa51bb41-f3d0-4428-b76e-18821a7ab27e",
        "meta": {
          "profile": [
            "http://hl7.org/fhir/uv/ips/StructureDefinition/Procedure-uv-ips"
          ]
        },
        "code": {
          "coding": [
            {
              "code": "428211000124100",
              "system": "http://snomed.info/sct",
              "display": "Assessment of substance use (procedure)"
            }
          ],
          "text": "Assessment of substance use"
        },
        "text": {
          "status": "generated",
          "div": "<div xmlns=\"http://www.w3.org/1999/xhtml\"><table class=\"hl7__ips\"><tr><td>Assessment of substance use</td><td><span class=\"nb\">05-Feb-2025</span></td><td>-</td></tr></table></div>"
        },
        "status": "completed",
        "performedDateTime": "2025-02-05",
        "subject": {
          "reference": "urn:uuid:",
          "display": "Magdolna Balog"
        }
      }
    },
    {
      "fullUrl": "urn:uuid:fbc02ab5-d578-4c4e-a3fb-13e0245e78df",
      "resource": {
        "resourceType": "Procedure",
        "id": "fbc02ab5-d578-4c4e-a3fb-13e0245e78df",
        "meta": {
          "profile": [
            "http://hl7.org/fhir/uv/ips/StructureDefinition/Procedure-uv-ips"
          ]
        },
        "code": {
          "coding": [
            {
              "code": "58000006",
              "system": "http://snomed.info/sct",
              "display": "Patient discharge (procedure)"
            }
          ],
          "text": "Patient discharge"
        },
        "text": {
          "status": "generated",
          "div": "<div xmlns=\"http://www.w3.org/1999/xhtml\"><table class=\"hl7__ips\"><tr><td>Patient discharge</td><td><span class=\"nb\">27-Jan-2019</span></td><td>-</td></tr></table></div>"
        },
        "status": "completed",
        "performedDateTime": "2019-01-27",
        "subject": {
          "reference": "urn:uuid:",
          "display": "Magdolna Balog"
        }
      }
    },
    {
      "fullUrl": "urn:uuid:9aa184cd-949c-47b8-83b6-cc891e95b1e2",
      "resource": {
        "resourceType": "Procedure",
        "id": "9aa184cd-949c-47b8-83b6-cc891e95b1e2",
        "meta": {
          "profile": [
            "http://hl7.org/fhir/uv/ips/StructureDefinition/Procedure-uv-ips"
          ]
        },
        "code": {
          "coding": [
            {
              "code": "385763009",
              "system": "http://snomed.info/sct",
              "display": "Hospice care (regime/therapy)"
            }
          ],
          "text": "Hospice care"
        },
        "text": {
          "status": "generated",
          "div": "<div xmlns=\"http://www.w3.org/1999/xhtml\"><table class=\"hl7__ips\"><tr><td>Hospice care</td><td><span class=\"nb\">26-Jan-2019</span></td><td>-</td></tr></table></div>"
        },
        "status": "completed",
        "performedDateTime": "2019-01-26",
        "subject": {
          "reference": "urn:uuid:",
          "display": "Magdolna Balog"
        }
      }
    },
    {
      "fullUrl": "urn:uuid:df7d6c89-c200-4ba8-a725-2a16231e2a04",
      "resource": {
        "resourceType": "Procedure",
        "id": "df7d6c89-c200-4ba8-a725-2a16231e2a04",
        "meta": {
          "profile": [
            "http://hl7.org/fhir/uv/ips/StructureDefinition/Procedure-uv-ips"
          ]
        },
        "code": {
          "coding": [
            {
              "code": "185087000",
              "system": "http://snomed.info/sct",
              "display": "Notifications (procedure)"
            }
          ],
          "text": "Notifications"
        },
        "text": {
          "status": "generated",
          "div": "<div xmlns=\"http://www.w3.org/1999/xhtml\"><table class=\"hl7__ips\"><tr><td>Notifications</td><td><span class=\"nb\">02-Jan-2019</span></td><td>-</td></tr></table></div>"
        },
        "status": "completed",
        "performedDateTime": "2019-01-02",
        "subject": {
          "reference": "urn:uuid:",
          "display": "Magdolna Balog"
        }
      }
    },
    {
      "fullUrl": "urn:uuid:e0d641ce-8891-4410-89a8-cfaf253f2fad",
      "resource": {
        "resourceType": "Procedure",
        "id": "e0d641ce-8891-4410-89a8-cfaf253f2fad",
        "meta": {
          "profile": [
            "http://hl7.org/fhir/uv/ips/StructureDefinition/Procedure-uv-ips"
          ]
        },
        "code": {
          "coding": [
            {
              "code": "310417005",
              "system": "http://snomed.info/sct",
              "display": "Certification procedure (procedure)"
            }
          ],
          "text": "Certification procedure"
        },
        "text": {
          "status": "generated",
          "div": "<div xmlns=\"http://www.w3.org/1999/xhtml\"><table class=\"hl7__ips\"><tr><td>Certification procedure</td><td><span class=\"nb\">02-Jan-2019</span></td><td>-</td></tr></table></div>"
        },
        "status": "completed",
        "performedDateTime": "2019-01-02",
        "subject": {
          "reference": "urn:uuid:",
          "display": "Magdolna Balog"
        }
      }
    },
    {
      "fullUrl": "urn:uuid:e887924a-5921-44e0-b2f0-ad8870e4662f",
      "resource": {
        "resourceType": "Procedure",
        "id": "e887924a-5921-44e0-b2f0-ad8870e4662f",
        "meta": {
          "profile": [
            "http://hl7.org/fhir/uv/ips/StructureDefinition/Procedure-uv-ips"
          ]
        },
        "code": {
          "coding": [
            {
              "code": "315639002",
              "system": "http://snomed.info/sct",
              "display": "Initial patient assessment (procedure)"
            }
          ],
          "text": "Initial patient assessment"
        },
        "text": {
          "status": "generated",
          "div": "<div xmlns=\"http://www.w3.org/1999/xhtml\"><table class=\"hl7__ips\"><tr><td>Initial patient assessment</td><td><span class=\"nb\">02-Jan-2019</span></td><td>-</td></tr></table></div>"
        },
        "status": "completed",
        "performedDateTime": "2019-01-02",
        "subject": {
          "reference": "urn:uuid:",
          "display": "Magdolna Balog"
        }
      }
    },
    {
      "fullUrl": "urn:uuid:78d6c1b1-830c-47b6-880c-726600c91be0",
      "resource": {
        "resourceType": "Procedure",
        "id": "78d6c1b1-830c-47b6-880c-726600c91be0",
        "meta": {
          "profile": [
            "http://hl7.org/fhir/uv/ips/StructureDefinition/Procedure-uv-ips"
          ]
        },
        "code": {
          "coding": [
            {
              "code": "370789001",
              "system": "http://snomed.info/sct",
              "display": "Development of individualized plan of care (procedure)"
            }
          ],
          "text": "Development of individualized plan of care"
        },
        "text": {
          "status": "generated",
          "div": "<div xmlns=\"http://www.w3.org/1999/xhtml\"><table class=\"hl7__ips\"><tr><td>Development of individualized plan of care</td><td><span class=\"nb\">02-Jan-2019</span></td><td>-</td></tr></table></div>"
        },
        "status": "completed",
        "performedDateTime": "2019-01-02",
        "subject": {
          "reference": "urn:uuid:",
          "display": "Magdolna Balog"
        }
      }
    },
    {
      "fullUrl": "urn:uuid:568d78f2-0d33-45a6-875b-50fdd4baf935",
      "resource": {
        "resourceType": "Procedure",
        "id": "568d78f2-0d33-45a6-875b-50fdd4baf935",
        "meta": {
          "profile": [
            "http://hl7.org/fhir/uv/ips/StructureDefinition/Procedure-uv-ips"
          ]
        },
        "code": {
          "coding": [
            {
              "code": "243063003",
              "system": "http://snomed.info/sct",
              "display": "Postoperative procedure education (procedure)"
            }
          ],
          "text": "Postoperative procedure education"
        },
        "reasonCode": [
          {
            "coding": [
              {
                "code": "399261000",
                "system": "http://snomed.info/sct",
                "display": "History of coronary artery bypass grafting (situation)"
              }
            ]
          }
        ],
        "text": {
          "status": "generated",
          "div": "<div xmlns=\"http://www.w3.org/1999/xhtml\"><table class=\"hl7__ips\"><tr><td>Postoperative procedure education</td><td><span class=\"nb\">22-Jun-2017</span></td><td>History of coronary artery bypass grafting (situation)</td></tr></table></div>"
        },
        "status": "completed",
        "performedDateTime": "2017-06-22",
        "subject": {
          "reference": "urn:uuid:",
          "display": "Magdolna Balog"
        }
      }
    },
    {
      "fullUrl": "urn:uuid:8f8e1b4f-e6c6-4a2a-939b-56f9263ad835",
      "resource": {
        "resourceType": "Procedure",
        "id": "8f8e1b4f-e6c6-4a2a-939b-56f9263ad835",
        "meta": {
          "profile": [
            "http://hl7.org/fhir/uv/ips/StructureDefinition/Procedure-uv-ips"
          ]
        },
        "code": {
          "coding": [
            {
              "code": "252482003",
              "system": "http://snomed.info/sct",
              "display": "Stair-climbing test (procedure)"
            }
          ],
          "text": "Stair-climbing test"
        },
        "reasonCode": [
          {
            "coding": [
              {
                "code": "399261000",
                "system": "http://snomed.info/sct",
                "display": "History of coronary artery bypass grafting (situation)"
              }
            ]
          }
        ],
        "text": {
          "status": "generated",
          "div": "<div xmlns=\"http://www.w3.org/1999/xhtml\"><table class=\"hl7__ips\"><tr><td>Stair-climbing test</td><td><span class=\"nb\">22-Jun-2017</span></td><td>History of coronary artery bypass grafting (situation)</td></tr></table></div>"
        },
        "status": "completed",
        "performedDateTime": "2017-06-22",
        "subject": {
          "reference": "urn:uuid:",
          "display": "Magdolna Balog"
        }
      }
    },
    {
      "fullUrl": "urn:uuid:d4a51bc7-fdda-4a9f-a359-d9e8b6eb1b91",
      "resource": {
        "resourceType": "Procedure",
        "id": "d4a51bc7-fdda-4a9f-a359-d9e8b6eb1b91",
        "meta": {
          "profile": [
            "http://hl7.org/fhir/uv/ips/StructureDefinition/Procedure-uv-ips"
          ]
        },
        "code": {
          "coding": [
            {
              "code": "302761001",
              "system": "http://snomed.info/sct",
              "display": "Walking exercise test (procedure)"
            }
          ],
          "text": "Walking exercise test"
        },
        "reasonCode": [
          {
            "coding": [
              {
                "code": "399261000",
                "system": "http://snomed.info/sct",
                "display": "History of coronary artery bypass grafting (situation)"
              }
            ]
          }
        ],
        "text": {
          "status": "generated",
          "div": "<div xmlns=\"http://www.w3.org/1999/xhtml\"><table class=\"hl7__ips\"><tr><td>Walking exercise test</td><td><span class=\"nb\">22-Jun-2017</span></td><td>History of coronary artery bypass grafting (situation)</td></tr></table></div>"
        },
        "status": "completed",
        "performedDateTime": "2017-06-22",
        "subject": {
          "reference": "urn:uuid:",
          "display": "Magdolna Balog"
        }
      }
    },
    {
      "fullUrl": "urn:uuid:d753b21c-40f1-4a58-a6d9-970e641e9c6a",
      "resource": {
        "resourceType": "Procedure",
        "id": "d753b21c-40f1-4a58-a6d9-970e641e9c6a",
        "meta": {
          "profile": [
            "http://hl7.org/fhir/uv/ips/StructureDefinition/Procedure-uv-ips"
          ]
        },
        "code": {
          "coding": [
            {
              "code": "306706006",
              "system": "http://snomed.info/sct",
              "display": "Discharge to ward (procedure)"
            }
          ],
          "text": "Discharge to ward"
        },
        "text": {
          "status": "generated",
          "div": "<div xmlns=\"http://www.w3.org/1999/xhtml\"><table class=\"hl7__ips\"><tr><td>Discharge to ward</td><td><span class=\"nb\">22-Jun-2017</span></td><td>-</td></tr></table></div>"
        },
        "status": "completed",
        "performedDateTime": "2017-06-22",
        "subject": {
          "reference": "urn:uuid:",
          "display": "Magdolna Balog"
        }
      }
    },
    {
      "fullUrl": "urn:uuid:b549102e-fe93-410d-a38e-2577669e19d5",
      "resource": {
        "resourceType": "Procedure",
        "id": "b549102e-fe93-410d-a38e-2577669e19d5",
        "meta": {
          "profile": [
            "http://hl7.org/fhir/uv/ips/StructureDefinition/Procedure-uv-ips"
          ]
        },
        "code": {
          "coding": [
            {
              "code": "308283009",
              "system": "http://snomed.info/sct",
              "display": "Discharge from hospital (procedure)"
            }
          ],
          "text": "Discharge from hospital"
        },
        "reasonCode": [
          {
            "coding": [
              {
                "code": "399261000",
                "system": "http://snomed.info/sct",
                "display": "History of coronary artery bypass grafting (situation)"
              }
            ]
          }
        ],
        "text": {
          "status": "generated",
          "div": "<div xmlns=\"http://www.w3.org/1999/xhtml\"><table class=\"hl7__ips\"><tr><td>Discharge from hospital</td><td><span class=\"nb\">22-Jun-2017</span></td><td>History of coronary artery bypass grafting (situation)</td></tr></table></div>"
        },
        "status": "completed",
        "performedDateTime": "2017-06-22",
        "subject": {
          "reference": "urn:uuid:",
          "display": "Magdolna Balog"
        }
      }
    },
    {
      "fullUrl": "urn:uuid:58d72d94-c097-4a3c-a8be-bc6a342abfa8",
      "resource": {
        "resourceType": "Procedure",
        "id": "58d72d94-c097-4a3c-a8be-bc6a342abfa8",
        "meta": {
          "profile": [
            "http://hl7.org/fhir/uv/ips/StructureDefinition/Procedure-uv-ips"
          ]
        },
        "code": {
          "coding": [
            {
              "code": "29303009",
              "system": "http://snomed.info/sct",
              "display": "Electrocardiographic procedure (procedure)"
            }
          ],
          "text": "Electrocardiographic procedure"
        },
        "text": {
          "status": "generated",
          "div": "<div xmlns=\"http://www.w3.org/1999/xhtml\"><table class=\"hl7__ips\"><tr><td>Electrocardiographic procedure</td><td><span class=\"nb\">21-Jun-2017</span></td><td>-</td></tr></table></div>"
        },
        "status": "completed",
        "performedDateTime": "2017-06-21",
        "subject": {
          "reference": "urn:uuid:",
          "display": "Magdolna Balog"
        }
      }
    },
    {
      "fullUrl": "urn:uuid:ef7ec702-4ef1-4087-89e2-503299031c51",
      "resource": {
        "resourceType": "Procedure",
        "id": "ef7ec702-4ef1-4087-89e2-503299031c51",
        "meta": {
          "profile": [
            "http://hl7.org/fhir/uv/ips/StructureDefinition/Procedure-uv-ips"
          ]
        },
        "code": {
          "coding": [
            {
              "code": "71493000",
              "system": "http://snomed.info/sct",
              "display": "Transfusion of packed red blood cells (procedure)"
            }
          ],
          "text": "Transfusion of packed red blood cells"
        },
        "text": {
          "status": "generated",
          "div": "<div xmlns=\"http://www.w3.org/1999/xhtml\"><table class=\"hl7__ips\"><tr><td>Transfusion of packed red blood cells</td><td><span class=\"nb\">21-Jun-2017</span></td><td>-</td></tr></table></div>"
        },
        "status": "completed",
        "performedDateTime": "2017-06-21",
        "subject": {
          "reference": "urn:uuid:",
          "display": "Magdolna Balog"
        }
      }
    },
    {
      "fullUrl": "urn:uuid:3555ed6e-d2a8-4872-b07d-f7f2377e9a94",
      "resource": {
        "resourceType": "Procedure",
        "id": "3555ed6e-d2a8-4872-b07d-f7f2377e9a94",
        "meta": {
          "profile": [
            "http://hl7.org/fhir/uv/ips/StructureDefinition/Procedure-uv-ips"
          ]
        },
        "code": {
          "coding": [
            {
              "code": "399208008",
              "system": "http://snomed.info/sct",
              "display": "Plain chest X-ray (procedure)"
            }
          ],
          "text": "Plain X-ray of chest"
        },
        "text": {
          "status": "generated",
          "div": "<div xmlns=\"http://www.w3.org/1999/xhtml\"><table class=\"hl7__ips\"><tr><td>Plain X-ray of chest</td><td><span class=\"nb\">21-Jun-2017</span></td><td>-</td></tr></table></div>"
        },
        "status": "completed",
        "performedDateTime": "2017-06-21",
        "subject": {
          "reference": "urn:uuid:",
          "display": "Magdolna Balog"
        }
      }
    },
    {
      "fullUrl": "urn:uuid:0a23f5a7-5a31-4a9c-87c2-bb1db9f62ec4",
      "resource": {
        "resourceType": "Procedure",
        "id": "0a23f5a7-5a31-4a9c-87c2-bb1db9f62ec4",
        "meta": {
          "profile": [
            "http://hl7.org/fhir/uv/ips/StructureDefinition/Procedure-uv-ips"
          ]
        },
        "code": {
          "coding": [
            {
              "code": "271280005",
              "system": "http://snomed.info/sct",
              "display": "Removal of endotracheal tube (procedure)"
            }
          ],
          "text": "Removal of endotracheal tube"
        },
        "text": {
          "status": "generated",
          "div": "<div xmlns=\"http://www.w3.org/1999/xhtml\"><table class=\"hl7__ips\"><tr><td>Removal of endotracheal tube</td><td><span class=\"nb\">18-Jun-2017</span></td><td>-</td></tr></table></div>"
        },
        "status": "completed",
        "performedDateTime": "2017-06-18",
        "subject": {
          "reference": "urn:uuid:",
          "display": "Magdolna Balog"
        }
      }
    },
    {
      "fullUrl": "urn:uuid:72d80a78-b15f-4532-a5e4-63b6a6912200",
      "resource": {
        "resourceType": "AllergyIntolerance",
        "id": "72d80a78-b15f-4532-a5e4-63b6a6912200",
        "meta": {
          "profile": [
            "http://hl7.eu/fhir/eps/StructureDefinition/allergyIntolerance-eu-eps"
          ]
        },
        "code": {
          "text": ""
        },
        "clinicalStatus": {
          "coding": [
            {
              "code": "active",
              "system": "http://terminology.hl7.org/CodeSystem/allergyintolerance-clinical"
            }
          ]
        },
        "text": {
          "status": "generated",
          "div": "<div xmlns=\"http://www.w3.org/1999/xhtml\"><table class=\"hl7__ips\"><tr><th>Allergy/Intolerance</th><th>Onset Date</th><th>Status</th><th>Type</th><th>Reaction</th></tr><tr><td></td><td>?</td><td>active</td><td>?</td><td></td></tr></table></div>"
        },
        "verificationStatus": {
          "coding": [
            {
              "code": "confirmed",
              "system": "http://terminology.hl7.org/CodeSystem/allergyintolerance-verification"
            }
          ]
        },
        "patient": {
          "reference": "urn:uuid:b90f5ea3-924c-4963-9d0b-455120235e02",
          "display": "Magdolna Balog"
        },
        "_onsetDateTime": {
          "extension": [
            {
              "url": "http://hl7.org/fhir/StructureDefinition/data-absent-reason",
              "valueCode": "unknown"
            }
          ]
        }
      }
    },
    {
      "fullUrl": "urn:uuid:19863756-18e6-4032-9547-0a96d14f52aa",
      "resource": {
        "resourceType": "CarePlan",
        "id": "19863756-18e6-4032-9547-0a96d14f52aa",
        "category": [
          {
            "coding": [
              {
                "code": "assess-plan",
                "system": "http://terminology.hl7.org/CodeSystem/care-plan-category",
                "display": "Assessment and Plan"
              }
            ]
          }
        ],
        "activity": [
          {
            "detail": {
              "code": {
                "coding": [
                  {
                    "code": "386257007",
                    "system": "http://snomed.info/sct",
                    "display": "Dementia management (regime/therapy)"
                  }
                ]
              },
              "reasonCode": [
                {
                  "coding": [
                    {
                      "code": "26929004",
                      "system": "http://snomed.info/sct",
                      "display": "Alzheimer&#039;s disease (disorder)"
                    }
                  ]
                }
              ],
              "status": "unknown",
              "description": "Dementia management",
              "kind": "Appointment"
            }
          }
        ],
        "period": {
          "start": "2024-06-19"
        },
        "goal": [
          {
            "reference": "urn:uuid:7d9d9243-e453-4e11-81eb-20fa7b37e6d1"
          },
          {
            "reference": "urn:uuid:2512c8b8-7054-455d-ba1a-375c956cf1a4"
          },
          {
            "reference": "urn:uuid:ef6f3eaa-dd67-4032-b31e-0a1755edc339"
          },
          {
            "reference": "urn:uuid:53ef3901-e380-452f-9df7-b7a2ee0916b5"
          },
          {
            "reference": "urn:uuid:a92f7df4-e858-4f32-bdba-27f3e32b5ef6"
          }
        ],
        "text": {
          "status": "generated",
          "div": "<div xmlns=\"http://www.w3.org/1999/xhtml\"><table class=\"hl7__ips first25\"><tr><th>Active Planned Care / Goals</th><th>Start Date</th><th>Reason</th></tr><tr><td>Dementia management</td><td><span class=\"nb\">19-Jun-2024</span></td><td>Alzheimer's disease (disorder)</td></tr><tr><td><ul><li>Maintain current level of cognitive function as long as possible</li><li>Maintain ability to perform basic activities of daily living (ADLs) with minimal assistance</li><li>Reduce frequency and severity of behavioral and psychological symptoms of dementia</li><li>Ensure adherence to prescribed dementia medications</li><li>Provide support and education to caregiver to reduce burden and improve coping</li></ul></td><td></td><td></td></tr></table></div>"
        },
        "status": "active",
        "intent": "plan",
        "subject": {
          "reference": "urn:uuid:b90f5ea3-924c-4963-9d0b-455120235e02",
          "display": "Magdolna Balog"
        }
      }
    },
    {
      "fullUrl": "urn:uuid:acc8fa21-2d39-4ff4-8b83-64b79850548c",
      "resource": {
        "resourceType": "CarePlan",
        "id": "acc8fa21-2d39-4ff4-8b83-64b79850548c",
        "category": [
          {
            "coding": [
              {
                "code": "assess-plan",
                "system": "http://terminology.hl7.org/CodeSystem/care-plan-category",
                "display": "Assessment and Plan"
              }
            ]
          }
        ],
        "activity": [
          {
            "detail": {
              "code": {
                "coding": [
                  {
                    "code": "698360004",
                    "system": "http://snomed.info/sct",
                    "display": "Diabetes self management plan (qualifier value)"
                  }
                ]
              },
              "reasonCode": [
                {
                  "coding": [
                    {
                      "code": "15777000",
                      "system": "http://snomed.info/sct",
                      "display": "Prediabetes"
                    }
                  ]
                }
              ],
              "status": "unknown",
              "description": "Diabetes self management plan",
              "kind": "Appointment"
            }
          }
        ],
        "period": {
          "start": "1998-01-21"
        },
        "goal": [
          {
            "reference": "urn:uuid:979c4865-9222-425a-9a3a-3b93e2862b96"
          },
          {
            "reference": "urn:uuid:5cc15a8f-f2ef-4f48-8c30-3adf2ca3b581"
          },
          {
            "reference": "urn:uuid:ad2d4228-76f8-4843-ac71-db7d4151faf6"
          }
        ],
        "text": {
          "status": "generated",
          "div": "<div xmlns=\"http://www.w3.org/1999/xhtml\"><table class=\"hl7__ips first25\"><tr><th>Active Planned Care / Goals</th><th>Start Date</th><th>Reason</th></tr><tr><td>Diabetes self management plan</td><td><span class=\"nb\">21-Jan-1998</span></td><td>Prediabetes</td></tr><tr><td><ul><li>Maintain fasting plasma glucose within the prediabetes range through lifestyle modification and self-management.</li><li>Achieve and maintain hemoglobin A1c within the prediabetes target range through self-management strategies.</li><li>Engage in regular physical activity, follow a balanced diet, and monitor blood glucose as part of the diabetes self-management plan.</li></ul></td><td></td><td></td></tr></table></div>"
        },
        "status": "active",
        "intent": "plan",
        "subject": {
          "reference": "urn:uuid:b90f5ea3-924c-4963-9d0b-455120235e02",
          "display": "Magdolna Balog"
        }
      }
    },
    {
      "fullUrl": "urn:uuid:c7febb64-bbca-4e0b-b2c0-bcf50d314269",
      "resource": {
        "resourceType": "ImmunizationRecommendation",
        "id": "c7febb64-bbca-4e0b-b2c0-bcf50d314269",
        "recommendation": [
          {
            "vaccineCode": [
              {
                "coding": [
                  {
                    "code": "1181000221105",
                    "system": "http://snomed.info/sct",
                    "display": "Vaccine product containing only Influenza virus antigen (medicinal product)"
                  }
                ]
              }
            ],
            "dateCriterion": [
              {
                "code": {
                  "coding": [
                    {
                      "code": "30980-7",
                      "system": "http://loinc.org",
                      "display": "Date vaccine due"
                    }
                  ]
                },
                "value": "2025-10-01"
              }
            ],
            "targetDisease": {
              "coding": [
                {
                  "code": "6142004",
                  "system": "http://snomed.info/sct",
                  "display": "Influenza (disorder)"
                }
              ]
            },
            "series": "Annual seasonal influenza vaccination",
            "forecastStatus": {
              "coding": [
                {
                  "code": "due",
                  "system": "http://terminology.hl7.org/CodeSystem/immunization-recommendation-status",
                  "display": "Due"
                }
              ]
            }
          }
        ],
        "text": {
          "status": "generated",
          "div": "<div xmlns=\"http://www.w3.org/1999/xhtml\"><table class=\"hl7__ips\"><tr><td>Vaccine product containing only Influenza virus antigen (medicinal product)</td><td><span class=\"nb\">01-Oct-2025</span></td><td>Annual seasonal influenza vaccination</td></tr></table></div>"
        },
        "date": "2025-10-22",
        "patient": {
          "reference": "urn:uuid:b90f5ea3-924c-4963-9d0b-455120235e02",
          "display": "Magdolna Balog"
        }
      }
    },
    {
      "fullUrl": "urn:uuid:620114b1-becd-4d52-b04b-9f10edabd72b",
      "resource": {
        "resourceType": "Observation",
        "id": "620114b1-becd-4d52-b04b-9f10edabd72b",
        "meta": {
          "profile": [
            "http://hl7.org/fhir/StructureDefinition/vitalsigns"
          ]
        },
        "category": [
          {
            "coding": [
              {
                "system": "http://terminology.hl7.org/CodeSystem/observation-category",
                "code": "vital-signs",
                "display": "Vital Signs"
              }
            ]
          }
        ],
        "valueQuantity": {
          "value": 152,
          "code": "cm",
          "unit": "cm"
        },
        "text": {
          "status": "generated",
          "div": "<div xmlns=\"http://www.w3.org/1999/xhtml\"><table class=\"hl7__ips\"><tr><th>Vital Sign</th><th>Date</th><th>Measurement</th></tr><tr><td>Body Height</td><td>25-Jun-2025</td><td>152 cm</td></tr></table></div>"
        },
        "status": "final",
        "code": {
          "coding": [
            {
              "code": "$8302-2",
              "system": "http://loinc.org",
              "display": "Body Height"
            }
          ]
        },
        "subject": {
          "reference": "urn:uuid:b90f5ea3-924c-4963-9d0b-455120235e02",
          "display": "Magdolna Balog"
        },
        "effectiveDateTime": "2025-06-25"
      }
    },
    {
      "fullUrl": "urn:uuid:8a1442b8-9e20-43ef-a8a3-4064c3c2615e",
      "resource": {
        "resourceType": "Observation",
        "id": "8a1442b8-9e20-43ef-a8a3-4064c3c2615e",
        "meta": {
          "profile": [
            "http://hl7.org/fhir/StructureDefinition/vitalsigns"
          ]
        },
        "category": [
          {
            "coding": [
              {
                "system": "http://terminology.hl7.org/CodeSystem/observation-category",
                "code": "vital-signs",
                "display": "Vital Signs"
              }
            ]
          }
        ],
        "valueQuantity": {
          "value": 3,
          "code": "{score}",
          "unit": "{score}"
        },
        "text": {
          "status": "generated",
          "div": "<div xmlns=\"http://www.w3.org/1999/xhtml\"><table class=\"hl7__ips\"><tr><th>Vital Sign</th><th>Date</th><th>Measurement</th></tr><tr><td>Pain severity - 0-10 verbal numeric rating [Score] - Reported</td><td>25-Jun-2025</td><td>3 {score}</td></tr></table></div>"
        },
        "status": "final",
        "code": {
          "coding": [
            {
              "code": "$72514-3",
              "system": "http://loinc.org",
              "display": "Pain severity - 0-10 verbal numeric rating [Score] - Reported"
            }
          ]
        },
        "subject": {
          "reference": "urn:uuid:b90f5ea3-924c-4963-9d0b-455120235e02",
          "display": "Magdolna Balog"
        },
        "effectiveDateTime": "2025-06-25"
      }
    },
    {
      "fullUrl": "urn:uuid:af61d1c3-ff07-4939-a8c4-0cb7a39c917a",
      "resource": {
        "resourceType": "Observation",
        "id": "af61d1c3-ff07-4939-a8c4-0cb7a39c917a",
        "meta": {
          "profile": [
            "http://hl7.org/fhir/StructureDefinition/vitalsigns"
          ]
        },
        "category": [
          {
            "coding": [
              {
                "system": "http://terminology.hl7.org/CodeSystem/observation-category",
                "code": "vital-signs",
                "display": "Vital Signs"
              }
            ]
          }
        ],
        "valueQuantity": {
          "value": 71,
          "code": "kg",
          "unit": "kg"
        },
        "text": {
          "status": "generated",
          "div": "<div xmlns=\"http://www.w3.org/1999/xhtml\"><table class=\"hl7__ips\"><tr><th>Vital Sign</th><th>Date</th><th>Measurement</th></tr><tr><td>Body Weight</td><td>25-Jun-2025</td><td>71 kg</td></tr></table></div>"
        },
        "status": "final",
        "code": {
          "coding": [
            {
              "code": "$29463-7",
              "system": "http://loinc.org",
              "display": "Body Weight"
            }
          ]
        },
        "subject": {
          "reference": "urn:uuid:b90f5ea3-924c-4963-9d0b-455120235e02",
          "display": "Magdolna Balog"
        },
        "effectiveDateTime": "2025-06-25"
      }
    },
    {
      "fullUrl": "urn:uuid:57d9c91f-5970-473e-ba6f-89bde8638962",
      "resource": {
        "resourceType": "Observation",
        "id": "57d9c91f-5970-473e-ba6f-89bde8638962",
        "meta": {
          "profile": [
            "http://hl7.org/fhir/StructureDefinition/vitalsigns"
          ]
        },
        "category": [
          {
            "coding": [
              {
                "system": "http://terminology.hl7.org/CodeSystem/observation-category",
                "code": "vital-signs",
                "display": "Vital Signs"
              }
            ]
          }
        ],
        "valueQuantity": {
          "value": 30.7,
          "code": "kg/m2",
          "unit": "kg/m2"
        },
        "text": {
          "status": "generated",
          "div": "<div xmlns=\"http://www.w3.org/1999/xhtml\"><table class=\"hl7__ips\"><tr><th>Vital Sign</th><th>Date</th><th>Measurement</th></tr><tr><td>Body mass index (BMI) [Ratio]</td><td>25-Jun-2025</td><td>30.7 kg/m2</td></tr></table></div>"
        },
        "status": "final",
        "code": {
          "coding": [
            {
              "code": "$39156-5",
              "system": "http://loinc.org",
              "display": "Body mass index (BMI) [Ratio]"
            }
          ]
        },
        "subject": {
          "reference": "urn:uuid:b90f5ea3-924c-4963-9d0b-455120235e02",
          "display": "Magdolna Balog"
        },
        "effectiveDateTime": "2025-06-25"
      }
    },
    {
      "fullUrl": "urn:uuid:020212fa-671e-4716-a326-9192e44a05c5",
      "resource": {
        "resourceType": "Observation",
        "id": "020212fa-671e-4716-a326-9192e44a05c5",
        "meta": {
          "profile": [
            "http://hl7.org/fhir/StructureDefinition/vitalsigns"
          ]
        },
        "category": [
          {
            "coding": [
              {
                "system": "http://terminology.hl7.org/CodeSystem/observation-category",
                "code": "vital-signs",
                "display": "Vital Signs"
              }
            ]
          }
        ],
        "valueQuantity": {
          "value": 62,
          "code": "mm[Hg]",
          "unit": "mm[Hg]"
        },
        "text": {
          "status": "generated",
          "div": "<div xmlns=\"http://www.w3.org/1999/xhtml\"><table class=\"hl7__ips\"><tr><th>Vital Sign</th><th>Date</th><th>Measurement</th></tr><tr><td>Diastolic Blood Pressure</td><td>25-Jun-2025</td><td>62 mm[Hg]</td></tr></table></div>"
        },
        "status": "final",
        "code": {
          "coding": [
            {
              "code": "$8462-4",
              "system": "http://loinc.org",
              "display": "Diastolic Blood Pressure"
            }
          ]
        },
        "subject": {
          "reference": "urn:uuid:b90f5ea3-924c-4963-9d0b-455120235e02",
          "display": "Magdolna Balog"
        },
        "effectiveDateTime": "2025-06-25"
      }
    },
    {
      "fullUrl": "urn:uuid:b854fc49-766a-4074-bd64-9f53df207bb2",
      "resource": {
        "resourceType": "Observation",
        "id": "b854fc49-766a-4074-bd64-9f53df207bb2",
        "meta": {
          "profile": [
            "http://hl7.org/fhir/StructureDefinition/vitalsigns"
          ]
        },
        "category": [
          {
            "coding": [
              {
                "system": "http://terminology.hl7.org/CodeSystem/observation-category",
                "code": "vital-signs",
                "display": "Vital Signs"
              }
            ]
          }
        ],
        "valueQuantity": {
          "value": 77,
          "code": "mm[Hg]",
          "unit": "mm[Hg]"
        },
        "text": {
          "status": "generated",
          "div": "<div xmlns=\"http://www.w3.org/1999/xhtml\"><table class=\"hl7__ips\"><tr><th>Vital Sign</th><th>Date</th><th>Measurement</th></tr><tr><td>Systolic Blood Pressure</td><td>25-Jun-2025</td><td>77 mm[Hg]</td></tr></table></div>"
        },
        "status": "final",
        "code": {
          "coding": [
            {
              "code": "$8480-6",
              "system": "http://loinc.org",
              "display": "Systolic Blood Pressure"
            }
          ]
        },
        "subject": {
          "reference": "urn:uuid:b90f5ea3-924c-4963-9d0b-455120235e02",
          "display": "Magdolna Balog"
        },
        "effectiveDateTime": "2025-06-25"
      }
    },
    {
      "fullUrl": "urn:uuid:6050dd9c-ec41-42d2-803e-7916ee277742",
      "resource": {
        "resourceType": "Observation",
        "id": "6050dd9c-ec41-42d2-803e-7916ee277742",
        "meta": {
          "profile": [
            "http://hl7.org/fhir/StructureDefinition/vitalsigns"
          ]
        },
        "category": [
          {
            "coding": [
              {
                "system": "http://terminology.hl7.org/CodeSystem/observation-category",
                "code": "vital-signs",
                "display": "Vital Signs"
              }
            ]
          }
        ],
        "valueQuantity": {
          "value": 66,
          "code": "/min",
          "unit": "/min"
        },
        "text": {
          "status": "generated",
          "div": "<div xmlns=\"http://www.w3.org/1999/xhtml\"><table class=\"hl7__ips\"><tr><th>Vital Sign</th><th>Date</th><th>Measurement</th></tr><tr><td>Heart rate</td><td>25-Jun-2025</td><td>66 /min</td></tr></table></div>"
        },
        "status": "final",
        "code": {
          "coding": [
            {
              "code": "$8867-4",
              "system": "http://loinc.org",
              "display": "Heart rate"
            }
          ]
        },
        "subject": {
          "reference": "urn:uuid:b90f5ea3-924c-4963-9d0b-455120235e02",
          "display": "Magdolna Balog"
        },
        "effectiveDateTime": "2025-06-25"
      }
    },
    {
      "fullUrl": "urn:uuid:32790940-1383-4930-a885-5524ec2f404b",
      "resource": {
        "resourceType": "Observation",
        "id": "32790940-1383-4930-a885-5524ec2f404b",
        "meta": {
          "profile": [
            "http://hl7.org/fhir/StructureDefinition/vitalsigns"
          ]
        },
        "category": [
          {
            "coding": [
              {
                "system": "http://terminology.hl7.org/CodeSystem/observation-category",
                "code": "vital-signs",
                "display": "Vital Signs"
              }
            ]
          }
        ],
        "valueQuantity": {
          "value": 14,
          "code": "/min",
          "unit": "/min"
        },
        "text": {
          "status": "generated",
          "div": "<div xmlns=\"http://www.w3.org/1999/xhtml\"><table class=\"hl7__ips\"><tr><th>Vital Sign</th><th>Date</th><th>Measurement</th></tr><tr><td>Respiratory rate</td><td>25-Jun-2025</td><td>14 /min</td></tr></table></div>"
        },
        "status": "final",
        "code": {
          "coding": [
            {
              "code": "$9279-1",
              "system": "http://loinc.org",
              "display": "Respiratory rate"
            }
          ]
        },
        "subject": {
          "reference": "urn:uuid:b90f5ea3-924c-4963-9d0b-455120235e02",
          "display": "Magdolna Balog"
        },
        "effectiveDateTime": "2025-06-25"
      }
    },
    {
      "fullUrl": "urn:uuid:2e634676-bdec-4d73-b06a-85a0094aca60",
      "resource": {
        "resourceType": "Observation",
        "id": "2e634676-bdec-4d73-b06a-85a0094aca60",
        "meta": {
          "profile": [
            "http://hl7.org/fhir/StructureDefinition/vitalsigns"
          ]
        },
        "category": [
          {
            "coding": [
              {
                "system": "http://terminology.hl7.org/CodeSystem/observation-category",
                "code": "vital-signs",
                "display": "Vital Signs"
              }
            ]
          }
        ],
        "valueQuantity": {
          "value": 152,
          "code": "cm",
          "unit": "cm"
        },
        "text": {
          "status": "generated",
          "div": "<div xmlns=\"http://www.w3.org/1999/xhtml\"><table class=\"hl7__ips\"><tr><th>Vital Sign</th><th>Date</th><th>Measurement</th></tr><tr><td>Body Height</td><td>05-Feb-2025</td><td>152 cm</td></tr></table></div>"
        },
        "status": "final",
        "code": {
          "coding": [
            {
              "code": "$8302-2",
              "system": "http://loinc.org",
              "display": "Body Height"
            }
          ]
        },
        "subject": {
          "reference": "urn:uuid:b90f5ea3-924c-4963-9d0b-455120235e02",
          "display": "Magdolna Balog"
        },
        "effectiveDateTime": "2025-02-05"
      }
    },
    {
      "fullUrl": "urn:uuid:0b2e9978-f7f7-4960-b151-047e3c4dab88",
      "resource": {
        "resourceType": "Observation",
        "id": "0b2e9978-f7f7-4960-b151-047e3c4dab88",
        "meta": {
          "profile": [
            "http://hl7.org/fhir/StructureDefinition/vitalsigns"
          ]
        },
        "category": [
          {
            "coding": [
              {
                "system": "http://terminology.hl7.org/CodeSystem/observation-category",
                "code": "vital-signs",
                "display": "Vital Signs"
              }
            ]
          }
        ],
        "valueQuantity": {
          "value": 1,
          "code": "{score}",
          "unit": "{score}"
        },
        "text": {
          "status": "generated",
          "div": "<div xmlns=\"http://www.w3.org/1999/xhtml\"><table class=\"hl7__ips\"><tr><th>Vital Sign</th><th>Date</th><th>Measurement</th></tr><tr><td>Pain severity - 0-10 verbal numeric rating [Score] - Reported</td><td>05-Feb-2025</td><td>1 {score}</td></tr></table></div>"
        },
        "status": "final",
        "code": {
          "coding": [
            {
              "code": "$72514-3",
              "system": "http://loinc.org",
              "display": "Pain severity - 0-10 verbal numeric rating [Score] - Reported"
            }
          ]
        },
        "subject": {
          "reference": "urn:uuid:b90f5ea3-924c-4963-9d0b-455120235e02",
          "display": "Magdolna Balog"
        },
        "effectiveDateTime": "2025-02-05"
      }
    },
    {
      "fullUrl": "urn:uuid:7305b378-1051-47e3-a158-868d79b60895",
      "resource": {
        "resourceType": "Observation",
        "id": "7305b378-1051-47e3-a158-868d79b60895",
        "meta": {
          "profile": [
            "http://hl7.org/fhir/StructureDefinition/vitalsigns"
          ]
        },
        "category": [
          {
            "coding": [
              {
                "system": "http://terminology.hl7.org/CodeSystem/observation-category",
                "code": "vital-signs",
                "display": "Vital Signs"
              }
            ]
          }
        ],
        "valueQuantity": {
          "value": 71,
          "code": "kg",
          "unit": "kg"
        },
        "text": {
          "status": "generated",
          "div": "<div xmlns=\"http://www.w3.org/1999/xhtml\"><table class=\"hl7__ips\"><tr><th>Vital Sign</th><th>Date</th><th>Measurement</th></tr><tr><td>Body Weight</td><td>05-Feb-2025</td><td>71 kg</td></tr></table></div>"
        },
        "status": "final",
        "code": {
          "coding": [
            {
              "code": "$29463-7",
              "system": "http://loinc.org",
              "display": "Body Weight"
            }
          ]
        },
        "subject": {
          "reference": "urn:uuid:b90f5ea3-924c-4963-9d0b-455120235e02",
          "display": "Magdolna Balog"
        },
        "effectiveDateTime": "2025-02-05"
      }
    },
    {
      "fullUrl": "urn:uuid:2a0d274f-0c9a-4611-89e0-b20ec498b4dc",
      "resource": {
        "resourceType": "Observation",
        "id": "2a0d274f-0c9a-4611-89e0-b20ec498b4dc",
        "meta": {
          "profile": [
            "http://hl7.org/fhir/StructureDefinition/vitalsigns"
          ]
        },
        "category": [
          {
            "coding": [
              {
                "system": "http://terminology.hl7.org/CodeSystem/observation-category",
                "code": "vital-signs",
                "display": "Vital Signs"
              }
            ]
          }
        ],
        "valueQuantity": {
          "value": 30.7,
          "code": "kg/m2",
          "unit": "kg/m2"
        },
        "text": {
          "status": "generated",
          "div": "<div xmlns=\"http://www.w3.org/1999/xhtml\"><table class=\"hl7__ips\"><tr><th>Vital Sign</th><th>Date</th><th>Measurement</th></tr><tr><td>Body mass index (BMI) [Ratio]</td><td>05-Feb-2025</td><td>30.7 kg/m2</td></tr></table></div>"
        },
        "status": "final",
        "code": {
          "coding": [
            {
              "code": "$39156-5",
              "system": "http://loinc.org",
              "display": "Body mass index (BMI) [Ratio]"
            }
          ]
        },
        "subject": {
          "reference": "urn:uuid:b90f5ea3-924c-4963-9d0b-455120235e02",
          "display": "Magdolna Balog"
        },
        "effectiveDateTime": "2025-02-05"
      }
    },
    {
      "fullUrl": "urn:uuid:771711f1-fd19-40c7-b301-9c7fddfe71ad",
      "resource": {
        "resourceType": "Observation",
        "id": "771711f1-fd19-40c7-b301-9c7fddfe71ad",
        "meta": {
          "profile": [
            "http://hl7.org/fhir/StructureDefinition/vitalsigns"
          ]
        },
        "category": [
          {
            "coding": [
              {
                "system": "http://terminology.hl7.org/CodeSystem/observation-category",
                "code": "vital-signs",
                "display": "Vital Signs"
              }
            ]
          }
        ],
        "valueQuantity": {
          "value": 56,
          "code": "mm[Hg]",
          "unit": "mm[Hg]"
        },
        "text": {
          "status": "generated",
          "div": "<div xmlns=\"http://www.w3.org/1999/xhtml\"><table class=\"hl7__ips\"><tr><th>Vital Sign</th><th>Date</th><th>Measurement</th></tr><tr><td>Diastolic Blood Pressure</td><td>05-Feb-2025</td><td>56 mm[Hg]</td></tr></table></div>"
        },
        "status": "final",
        "code": {
          "coding": [
            {
              "code": "$8462-4",
              "system": "http://loinc.org",
              "display": "Diastolic Blood Pressure"
            }
          ]
        },
        "subject": {
          "reference": "urn:uuid:b90f5ea3-924c-4963-9d0b-455120235e02",
          "display": "Magdolna Balog"
        },
        "effectiveDateTime": "2025-02-05"
      }
    },
    {
      "fullUrl": "urn:uuid:e0747f17-a07f-4646-acc8-053c63d0d13a",
      "resource": {
        "resourceType": "Observation",
        "id": "e0747f17-a07f-4646-acc8-053c63d0d13a",
        "meta": {
          "profile": [
            "http://hl7.org/fhir/StructureDefinition/vitalsigns"
          ]
        },
        "category": [
          {
            "coding": [
              {
                "system": "http://terminology.hl7.org/CodeSystem/observation-category",
                "code": "vital-signs",
                "display": "Vital Signs"
              }
            ]
          }
        ],
        "valueQuantity": {
          "value": 77,
          "code": "mm[Hg]",
          "unit": "mm[Hg]"
        },
        "text": {
          "status": "generated",
          "div": "<div xmlns=\"http://www.w3.org/1999/xhtml\"><table class=\"hl7__ips\"><tr><th>Vital Sign</th><th>Date</th><th>Measurement</th></tr><tr><td>Systolic Blood Pressure</td><td>05-Feb-2025</td><td>77 mm[Hg]</td></tr></table></div>"
        },
        "status": "final",
        "code": {
          "coding": [
            {
              "code": "$8480-6",
              "system": "http://loinc.org",
              "display": "Systolic Blood Pressure"
            }
          ]
        },
        "subject": {
          "reference": "urn:uuid:b90f5ea3-924c-4963-9d0b-455120235e02",
          "display": "Magdolna Balog"
        },
        "effectiveDateTime": "2025-02-05"
      }
    },
    {
      "fullUrl": "urn:uuid:da795312-7518-4c44-9ac2-c5eb4d49afb9",
      "resource": {
        "resourceType": "Observation",
        "id": "da795312-7518-4c44-9ac2-c5eb4d49afb9",
        "meta": {
          "profile": [
            "http://hl7.org/fhir/StructureDefinition/vitalsigns"
          ]
        },
        "category": [
          {
            "coding": [
              {
                "system": "http://terminology.hl7.org/CodeSystem/observation-category",
                "code": "vital-signs",
                "display": "Vital Signs"
              }
            ]
          }
        ],
        "valueQuantity": {
          "value": 75,
          "code": "/min",
          "unit": "/min"
        },
        "text": {
          "status": "generated",
          "div": "<div xmlns=\"http://www.w3.org/1999/xhtml\"><table class=\"hl7__ips\"><tr><th>Vital Sign</th><th>Date</th><th>Measurement</th></tr><tr><td>Heart rate</td><td>05-Feb-2025</td><td>75 /min</td></tr></table></div>"
        },
        "status": "final",
        "code": {
          "coding": [
            {
              "code": "$8867-4",
              "system": "http://loinc.org",
              "display": "Heart rate"
            }
          ]
        },
        "subject": {
          "reference": "urn:uuid:b90f5ea3-924c-4963-9d0b-455120235e02",
          "display": "Magdolna Balog"
        },
        "effectiveDateTime": "2025-02-05"
      }
    },
    {
      "fullUrl": "urn:uuid:db91d89c-74ec-44b2-9526-574fca53043f",
      "resource": {
        "resourceType": "Observation",
        "id": "db91d89c-74ec-44b2-9526-574fca53043f",
        "meta": {
          "profile": [
            "http://hl7.org/fhir/StructureDefinition/vitalsigns"
          ]
        },
        "category": [
          {
            "coding": [
              {
                "system": "http://terminology.hl7.org/CodeSystem/observation-category",
                "code": "vital-signs",
                "display": "Vital Signs"
              }
            ]
          }
        ],
        "valueQuantity": {
          "value": 14,
          "code": "/min",
          "unit": "/min"
        },
        "text": {
          "status": "generated",
          "div": "<div xmlns=\"http://www.w3.org/1999/xhtml\"><table class=\"hl7__ips\"><tr><th>Vital Sign</th><th>Date</th><th>Measurement</th></tr><tr><td>Respiratory rate</td><td>05-Feb-2025</td><td>14 /min</td></tr></table></div>"
        },
        "status": "final",
        "code": {
          "coding": [
            {
              "code": "$9279-1",
              "system": "http://loinc.org",
              "display": "Respiratory rate"
            }
          ]
        },
        "subject": {
          "reference": "urn:uuid:b90f5ea3-924c-4963-9d0b-455120235e02",
          "display": "Magdolna Balog"
        },
        "effectiveDateTime": "2025-02-05"
      }
    },
    {
      "fullUrl": "urn:uuid:45cd7471-c725-4b5b-b9f7-ce68018426db",
      "resource": {
        "resourceType": "Observation",
        "id": "45cd7471-c725-4b5b-b9f7-ce68018426db",
        "meta": {
          "profile": [
            "http://hl7.eu/fhir/laboratory/StructureDefinition/Observation-resultslab-eu-lab"
          ]
        },
        "performer": [
          {
            "display": "The Central European Lab"
          }
        ],
        "category": [
          {
            "coding": [
              {
                "system": "http://terminology.hl7.org/CodeSystem/observation-category",
                "code": "laboratory"
              }
            ]
          }
        ],
        "code": {
          "coding": [
            {
              "code": "4548-4",
              "system": "http://loinc.org",
              "display": "Hemoglobin A1c/Hemoglobin.total in Blood"
            }
          ],
          "text": "Hemoglobin A1c/Hemoglobin.total in Blood"
        },
        "valueQuantity": {
          "system": "http://unitsofmeasure.org",
          "value": 5.9,
          "unit": "%",
          "code": "%"
        },
        "referenceRange": [
          {
            "low": {
              "value": 4.5,
              "code": "%",
              "system": "http://unitsofmeasure.org"
            }
          },
          {
            "high": {
              "value": 6.4,
              "code": "%",
              "system": "http://unitsofmeasure.org"
            }
          }
        ],
        "text": {
          "status": "generated",
          "div": "<div xmlns=\"http://www.w3.org/1999/xhtml\"><table class=\"hl7__eu__lab__report\"><tr><th>Test</th><th>25-Jun-2025</th><th>Reference&#xA0;Range</th><th>Unit</th></tr><tr><td>Hemoglobin A1c/Hemoglobin.total in Blood</td><td>5.9</td><td>4.5 - 6.4</td><td></td><td>%</td></tr></table></div>"
        },
        "status": "final",
        "subject": {
          "reference": "urn:uuid:b90f5ea3-924c-4963-9d0b-455120235e02",
          "display": "Magdolna Balog"
        },
        "effectiveDateTime": "2025-06-25T13:34:16Z"
      }
    },
    {
      "fullUrl": "urn:uuid:ab52b37d-4d40-4db2-8393-896ffa9df9f3",
      "resource": {
        "resourceType": "Observation",
        "id": "ab52b37d-4d40-4db2-8393-896ffa9df9f3",
        "meta": {
          "profile": [
            "http://hl7.eu/fhir/laboratory/StructureDefinition/Observation-resultslab-eu-lab"
          ]
        },
        "performer": [
          {
            "display": "The Central European Lab"
          }
        ],
        "category": [
          {
            "coding": [
              {
                "system": "http://terminology.hl7.org/CodeSystem/observation-category",
                "code": "laboratory"
              }
            ]
          }
        ],
        "code": {
          "coding": [
            {
              "code": "2339-0",
              "system": "http://loinc.org",
              "display": "Glucose [Mass/volume] in Blood"
            }
          ],
          "text": "Glucose [Mass/volume] in Blood"
        },
        "valueQuantity": {
          "system": "http://unitsofmeasure.org",
          "value": 85.6,
          "unit": "mg/dL",
          "code": "mg/dL"
        },
        "referenceRange": [
          {
            "low": {
              "value": 70,
              "code": "mg/dL",
              "system": "http://unitsofmeasure.org"
            }
          },
          {
            "high": {
              "value": 140,
              "code": "mg/dL",
              "system": "http://unitsofmeasure.org"
            }
          }
        ],
        "text": {
          "status": "generated",
          "div": "<div xmlns=\"http://www.w3.org/1999/xhtml\"><table class=\"hl7__eu__lab__report\"><tr><th>Test</th><th>25-Jun-2025</th><th>Reference&#xA0;Range</th><th>Unit</th></tr><tr><td>Glucose [Mass/volume] in Blood</td><td>85.6</td><td>70 - 140</td><td></td><td>mg/dL</td></tr></table></div>"
        },
        "status": "final",
        "subject": {
          "reference": "urn:uuid:b90f5ea3-924c-4963-9d0b-455120235e02",
          "display": "Magdolna Balog"
        },
        "effectiveDateTime": "2025-06-25T13:34:16Z"
      }
    },
    {
      "fullUrl": "urn:uuid:1a39a3e0-691a-426f-bd89-b50369ba9996",
      "resource": {
        "resourceType": "Observation",
        "id": "1a39a3e0-691a-426f-bd89-b50369ba9996",
        "meta": {
          "profile": [
            "http://hl7.eu/fhir/laboratory/StructureDefinition/Observation-resultslab-eu-lab"
          ]
        },
        "performer": [
          {
            "display": "The Central European Lab"
          }
        ],
        "category": [
          {
            "coding": [
              {
                "system": "http://terminology.hl7.org/CodeSystem/observation-category",
                "code": "laboratory"
              }
            ]
          }
        ],
        "code": {
          "coding": [
            {
              "code": "6299-2",
              "system": "http://loinc.org",
              "display": "Urea nitrogen [Mass/volume] in Blood"
            }
          ],
          "text": "Urea nitrogen [Mass/volume] in Blood"
        },
        "valueQuantity": {
          "system": "http://unitsofmeasure.org",
          "value": 14,
          "unit": "mg/dL",
          "code": "mg/dL"
        },
        "referenceRange": [
          {
            "low": {
              "value": 7,
              "code": "mg/dL",
              "system": "http://unitsofmeasure.org"
            }
          },
          {
            "high": {
              "value": 20,
              "code": "mg/dL",
              "system": "http://unitsofmeasure.org"
            }
          }
        ],
        "text": {
          "status": "generated",
          "div": "<div xmlns=\"http://www.w3.org/1999/xhtml\"><table class=\"hl7__eu__lab__report\"><tr><th>Test</th><th>25-Jun-2025</th><th>Reference&#xA0;Range</th><th>Unit</th></tr><tr><td>Urea nitrogen [Mass/volume] in Blood</td><td>14.0</td><td>7 - 20</td><td></td><td>mg/dL</td></tr></table></div>"
        },
        "status": "final",
        "subject": {
          "reference": "urn:uuid:b90f5ea3-924c-4963-9d0b-455120235e02",
          "display": "Magdolna Balog"
        },
        "effectiveDateTime": "2025-06-25T13:34:16Z"
      }
    },
    {
      "fullUrl": "urn:uuid:e99979ad-4477-4e6e-958b-51f69dd69f90",
      "resource": {
        "resourceType": "Observation",
        "id": "e99979ad-4477-4e6e-958b-51f69dd69f90",
        "meta": {
          "profile": [
            "http://hl7.eu/fhir/laboratory/StructureDefinition/Observation-resultslab-eu-lab"
          ]
        },
        "performer": [
          {
            "display": "The Central European Lab"
          }
        ],
        "category": [
          {
            "coding": [
              {
                "system": "http://terminology.hl7.org/CodeSystem/observation-category",
                "code": "laboratory"
              }
            ]
          }
        ],
        "code": {
          "coding": [
            {
              "code": "38483-4",
              "system": "http://loinc.org",
              "display": "Creatinine [Mass/volume] in Blood"
            }
          ],
          "text": "Creatinine [Mass/volume] in Blood"
        },
        "valueQuantity": {
          "system": "http://unitsofmeasure.org",
          "value": 0.7,
          "unit": "mg/dL",
          "code": "mg/dL"
        },
        "referenceRange": [
          {
            "low": {
              "value": 0.6,
              "code": "mg/dL",
              "system": "http://unitsofmeasure.org"
            }
          },
          {
            "high": {
              "value": 1.1,
              "code": "mg/dL",
              "system": "http://unitsofmeasure.org"
            }
          }
        ],
        "text": {
          "status": "generated",
          "div": "<div xmlns=\"http://www.w3.org/1999/xhtml\"><table class=\"hl7__eu__lab__report\"><tr><th>Test</th><th>25-Jun-2025</th><th>Reference&#xA0;Range</th><th>Unit</th></tr><tr><td>Creatinine [Mass/volume] in Blood</td><td>0.7</td><td>0.6 - 1.1</td><td></td><td>mg/dL</td></tr></table></div>"
        },
        "status": "final",
        "subject": {
          "reference": "urn:uuid:b90f5ea3-924c-4963-9d0b-455120235e02",
          "display": "Magdolna Balog"
        },
        "effectiveDateTime": "2025-06-25T13:34:16Z"
      }
    },
    {
      "fullUrl": "urn:uuid:c7e72b27-66cb-4291-9e8d-5e3b815ca6fa",
      "resource": {
        "resourceType": "Observation",
        "id": "c7e72b27-66cb-4291-9e8d-5e3b815ca6fa",
        "meta": {
          "profile": [
            "http://hl7.eu/fhir/laboratory/StructureDefinition/Observation-resultslab-eu-lab"
          ]
        },
        "performer": [
          {
            "display": "The Central European Lab"
          }
        ],
        "category": [
          {
            "coding": [
              {
                "system": "http://terminology.hl7.org/CodeSystem/observation-category",
                "code": "laboratory"
              }
            ]
          }
        ],
        "code": {
          "coding": [
            {
              "code": "49765-1",
              "system": "http://loinc.org",
              "display": "Calcium [Mass/volume] in Blood"
            }
          ],
          "text": "Calcium [Mass/volume] in Blood"
        },
        "valueQuantity": {
          "system": "http://unitsofmeasure.org",
          "value": 9.6,
          "unit": "mg/dL",
          "code": "mg/dL"
        },
        "referenceRange": [
          {
            "low": {
              "value": 8.5,
              "code": "mg/dL",
              "system": "http://unitsofmeasure.org"
            }
          },
          {
            "high": {
              "value": 10.4,
              "code": "mg/dL",
              "system": "http://unitsofmeasure.org"
            }
          }
        ],
        "text": {
          "status": "generated",
          "div": "<div xmlns=\"http://www.w3.org/1999/xhtml\"><table class=\"hl7__eu__lab__report\"><tr><th>Test</th><th>25-Jun-2025</th><th>Reference&#xA0;Range</th><th>Unit</th></tr><tr><td>Calcium [Mass/volume] in Blood</td><td>9.6</td><td>8.5 - 10.4</td><td></td><td>mg/dL</td></tr></table></div>"
        },
        "status": "final",
        "subject": {
          "reference": "urn:uuid:b90f5ea3-924c-4963-9d0b-455120235e02",
          "display": "Magdolna Balog"
        },
        "effectiveDateTime": "2025-06-25T13:34:16Z"
      }
    },
    {
      "fullUrl": "urn:uuid:b4e81aae-326a-428b-8752-8601d11aee04",
      "resource": {
        "resourceType": "Observation",
        "id": "b4e81aae-326a-428b-8752-8601d11aee04",
        "meta": {
          "profile": [
            "http://hl7.eu/fhir/laboratory/StructureDefinition/Observation-resultslab-eu-lab"
          ]
        },
        "performer": [
          {
            "display": "The Central European Lab"
          }
        ],
        "category": [
          {
            "coding": [
              {
                "system": "http://terminology.hl7.org/CodeSystem/observation-category",
                "code": "laboratory"
              }
            ]
          }
        ],
        "code": {
          "coding": [
            {
              "code": "2947-0",
              "system": "http://loinc.org",
              "display": "Sodium [Moles/volume] in Blood"
            }
          ],
          "text": "Sodium [Moles/volume] in Blood"
        },
        "valueQuantity": {
          "system": "http://unitsofmeasure.org",
          "value": 140.3,
          "unit": "mmol/L",
          "code": "mmol/L"
        },
        "referenceRange": [
          {
            "low": {
              "value": 135,
              "code": "mmol/L",
              "system": "http://unitsofmeasure.org"
            }
          },
          {
            "high": {
              "value": 145,
              "code": "mmol/L",
              "system": "http://unitsofmeasure.org"
            }
          }
        ],
        "text": {
          "status": "generated",
          "div": "<div xmlns=\"http://www.w3.org/1999/xhtml\"><table class=\"hl7__eu__lab__report\"><tr><th>Test</th><th>25-Jun-2025</th><th>Reference&#xA0;Range</th><th>Unit</th></tr><tr><td>Sodium [Moles/volume] in Blood</td><td>140.3</td><td>135 - 145</td><td></td><td>mmol/L</td></tr></table></div>"
        },
        "status": "final",
        "subject": {
          "reference": "urn:uuid:b90f5ea3-924c-4963-9d0b-455120235e02",
          "display": "Magdolna Balog"
        },
        "effectiveDateTime": "2025-06-25T13:34:16Z"
      }
    },
    {
      "fullUrl": "urn:uuid:8f6eb305-73db-4b7c-aee8-a8c68bf251d3",
      "resource": {
        "resourceType": "Observation",
        "id": "8f6eb305-73db-4b7c-aee8-a8c68bf251d3",
        "meta": {
          "profile": [
            "http://hl7.eu/fhir/laboratory/StructureDefinition/Observation-resultslab-eu-lab"
          ]
        },
        "performer": [
          {
            "display": "The Central European Lab"
          }
        ],
        "category": [
          {
            "coding": [
              {
                "system": "http://terminology.hl7.org/CodeSystem/observation-category",
                "code": "laboratory"
              }
            ]
          }
        ],
        "code": {
          "coding": [
            {
              "code": "6298-4",
              "system": "http://loinc.org",
              "display": "Potassium [Moles/volume] in Blood"
            }
          ],
          "text": "Potassium [Moles/volume] in Blood"
        },
        "valueQuantity": {
          "system": "http://unitsofmeasure.org",
          "value": 4.1,
          "unit": "mmol/L",
          "code": "mmol/L"
        },
        "referenceRange": [
          {
            "low": {
              "value": 3.5,
              "code": "mmol/L",
              "system": "http://unitsofmeasure.org"
            }
          },
          {
            "high": {
              "value": 5.1,
              "code": "mmol/L",
              "system": "http://unitsofmeasure.org"
            }
          }
        ],
        "text": {
          "status": "generated",
          "div": "<div xmlns=\"http://www.w3.org/1999/xhtml\"><table class=\"hl7__eu__lab__report\"><tr><th>Test</th><th>25-Jun-2025</th><th>Reference&#xA0;Range</th><th>Unit</th></tr><tr><td>Potassium [Moles/volume] in Blood</td><td>4.1</td><td>3.5 - 5.1</td><td></td><td>mmol/L</td></tr></table></div>"
        },
        "status": "final",
        "subject": {
          "reference": "urn:uuid:b90f5ea3-924c-4963-9d0b-455120235e02",
          "display": "Magdolna Balog"
        },
        "effectiveDateTime": "2025-06-25T13:34:16Z"
      }
    },
    {
      "fullUrl": "urn:uuid:1e562e01-0a96-412c-9122-3232499786be",
      "resource": {
        "resourceType": "Observation",
        "id": "1e562e01-0a96-412c-9122-3232499786be",
        "meta": {
          "profile": [
            "http://hl7.eu/fhir/laboratory/StructureDefinition/Observation-resultslab-eu-lab"
          ]
        },
        "performer": [
          {
            "display": "The Central European Lab"
          }
        ],
        "category": [
          {
            "coding": [
              {
                "system": "http://terminology.hl7.org/CodeSystem/observation-category",
                "code": "laboratory"
              }
            ]
          }
        ],
        "code": {
          "coding": [
            {
              "code": "2069-3",
              "system": "http://loinc.org",
              "display": "Chloride [Moles/volume] in Blood"
            }
          ],
          "text": "Chloride [Moles/volume] in Blood"
        },
        "valueQuantity": {
          "system": "http://unitsofmeasure.org",
          "value": 102.6,
          "unit": "mmol/L",
          "code": "mmol/L"
        },
        "referenceRange": [
          {
            "low": {
              "value": 98,
              "code": "mmol/L",
              "system": "http://unitsofmeasure.org"
            }
          },
          {
            "high": {
              "value": 107,
              "code": "mmol/L",
              "system": "http://unitsofmeasure.org"
            }
          }
        ],
        "text": {
          "status": "generated",
          "div": "<div xmlns=\"http://www.w3.org/1999/xhtml\"><table class=\"hl7__eu__lab__report\"><tr><th>Test</th><th>25-Jun-2025</th><th>Reference&#xA0;Range</th><th>Unit</th></tr><tr><td>Chloride [Moles/volume] in Blood</td><td>102.6</td><td>98 - 107</td><td></td><td>mmol/L</td></tr></table></div>"
        },
        "status": "final",
        "subject": {
          "reference": "urn:uuid:b90f5ea3-924c-4963-9d0b-455120235e02",
          "display": "Magdolna Balog"
        },
        "effectiveDateTime": "2025-06-25T13:34:16Z"
      }
    },
    {
      "fullUrl": "urn:uuid:9d3cff2a-5a5d-4f74-905e-31ad8cb7f9fa",
      "resource": {
        "resourceType": "Observation",
        "id": "9d3cff2a-5a5d-4f74-905e-31ad8cb7f9fa",
        "meta": {
          "profile": [
            "http://hl7.eu/fhir/laboratory/StructureDefinition/Observation-resultslab-eu-lab"
          ]
        },
        "performer": [
          {
            "display": "The Central European Lab"
          }
        ],
        "category": [
          {
            "coding": [
              {
                "system": "http://terminology.hl7.org/CodeSystem/observation-category",
                "code": "laboratory"
              }
            ]
          }
        ],
        "code": {
          "coding": [
            {
              "code": "20565-8",
              "system": "http://loinc.org",
              "display": "Carbon dioxide, total [Moles/volume] in Blood"
            }
          ],
          "text": "Carbon dioxide, total [Moles/volume] in Blood"
        },
        "valueQuantity": {
          "system": "http://unitsofmeasure.org",
          "value": 24.5,
          "unit": "mmol/L",
          "code": "mmol/L"
        },
        "referenceRange": [
          {
            "low": {
              "value": 22,
              "code": "mmol/L",
              "system": "http://unitsofmeasure.org"
            }
          },
          {
            "high": {
              "value": 29,
              "code": "mmol/L",
              "system": "http://unitsofmeasure.org"
            }
          }
        ],
        "text": {
          "status": "generated",
          "div": "<div xmlns=\"http://www.w3.org/1999/xhtml\"><table class=\"hl7__eu__lab__report\"><tr><th>Test</th><th>25-Jun-2025</th><th>Reference&#xA0;Range</th><th>Unit</th></tr><tr><td>Carbon dioxide, total [Moles/volume] in Blood</td><td>24.5</td><td>22 - 29</td><td></td><td>mmol/L</td></tr></table></div>"
        },
        "status": "final",
        "subject": {
          "reference": "urn:uuid:b90f5ea3-924c-4963-9d0b-455120235e02",
          "display": "Magdolna Balog"
        },
        "effectiveDateTime": "2025-06-25T13:34:16Z"
      }
    },
    {
      "fullUrl": "urn:uuid:7c39a449-6f8d-47c1-81e7-b7f9f61cd4bd",
      "resource": {
        "resourceType": "DeviceUseStatement",
        "id": "7c39a449-6f8d-47c1-81e7-b7f9f61cd4bd",
        "meta": {
          "profile": [
            "http://hl7.eu/fhir/eps/StructureDefinition/deviceUseStatement-eu-eps"
          ]
        },
        "timingPeriod": {
          "start": "1998-01-21"
        },
        "text": {
          "status": "generated",
          "div": "<div xmlns=\"http://www.w3.org/1999/xhtml\"><table class=\"hl7__ips\"><tr><td>Blood glucose meter (physical object)</td><td><span class=\"nb\">21-Jan-1998</span></td></tr></table></div>"
        },
        "status": "active",
        "device": {
          "reference": "urn:uuid:7a0aecc0-40ce-4203-8ac9-fc9d232549f0",
          "display": "Blood glucose meter (physical object)"
        },
        "subject": {
          "reference": "urn:uuid:b90f5ea3-924c-4963-9d0b-455120235e02",
          "display": "Magdolna Balog"
        }
      }
    },
    {
      "fullUrl": "urn:uuid:7a0aecc0-40ce-4203-8ac9-fc9d232549f0",
      "resource": {
        "resourceType": "Device",
        "id": "7a0aecc0-40ce-4203-8ac9-fc9d232549f0",
        "meta": {
          "profile": [
            "http://hl7.eu/fhir/eps/StructureDefinition/device-eu-eps"
          ]
        },
        "udiCarrier": [
          {
            "id": "(01)65697228048874(11)981231(17)230115(10)64556440051(21)23081083542762"
          }
        ],
        "status": "active",
        "patient": {
          "reference": "urn:uuid:b90f5ea3-924c-4963-9d0b-455120235e02",
          "display": "Magdolna Balog"
        },
        "type": {
          "coding": [
            {
              "code": "337414009",
              "system": "http://snomed.info/sct",
              "display": "Blood glucose meter (physical object)"
            }
          ]
        }
      }
    },
    {
      "fullUrl": "urn:uuid:2c2980cf-dc27-4771-85d4-e55e299aa11b",
      "resource": {
        "resourceType": "Device",
        "id": "2c2980cf-dc27-4771-85d4-e55e299aa11b",
        "deviceName": [
          {
            "name": "SYNDERAI Synthetic Generator",
            "type": "manufacturer-name"
          }
        ],
        "version": [
          {
            "value": "5.0"
          }
        ],
        "text": {
          "status": "generated",
          "div": "<div xmlns=\"http://www.w3.org/1999/xhtml\">SYNDERAI Synthetic Generator v5.0</div>"
        },
        "status": "active\"",
        "distinctIdentifier": "synderai-generator-50",
        "manufacturer": "SYNDERAI Project"
      }
    },
    {
      "fullUrl": "urn:uuid:4f0dc153-1d44-46f8-b7d4-598d2f291668",
      "resource": {
        "resourceType": "Provenance",
        "id": "4f0dc153-1d44-46f8-b7d4-598d2f291668",
        "target": [
          {
            "reference": "Patient/b90f5ea3-924c-4963-9d0b-455120235e02"
          },
          {
            "reference": "Bundle/4059f02d-9b86-42a0-b001-1ae013b53189"
          },
          {
            "reference": "Composition/4b4708c4-6555-4a6b-b8a5-19b12adb669e"
          },
          {
            "reference": "PractitionerRole/ed3b4c86-c6eb-4261-b80b-5b49508a8d04"
          },
          {
            "reference": "Organization/c343fe05-98f4-43f9-9ca8-55cc1b2a8992"
          },
          {
            "reference": "Practitioner/b1a89815-3dcd-4d2c-ac1a-bbf398802346"
          }
        ],
        "activity": {
          "text": "Synthetic Example Data Generation"
        },
        "policy": [
          "https://synderai.net/synderai-synthetic-data-policy"
        ],
        "agent": [
          {
            "type": {
              "text": "author"
            },
            "who": {
              "reference": "Device/2c2980cf-dc27-4771-85d4-e55e299aa11b"
            }
          }
        ],
        "reason": [
          {
            "text": "Interoperability Testing and Training (non-clinical use)"
          }
        ],
        "text": {
          "status": "generated",
          "div": "<div xmlns=\"http://www.w3.org/1999/xhtml\">Provenance for SYNDERAI Synthetic Example Data Resource</div>"
        },
        "recorded": "2025-06-25T13:34:16Z"
      }
    }
  ],
  "type": "document",
  "timestamp": "2025-06-25T13:34:16Z"
}
