{
  "resourceType": "Bundle",
  "id": "ccc0ae97-a953-4f89-9330-57a53f82597b",
  "meta": {
    "profile": [
      "http://hl7.eu/fhir/eps/StructureDefinition/bundle-eu-eps"
    ]
  },
  "identifier": {
    "assigner": {
      "display": "HL7 Europe"
    },
    "system": "urn:oid:2.16.840.1.113883.2.51.999",
    "value": "cb3084a9-a206-4ab8-bbd2-4423af331c43"
  },
  "entry": [
    {
      "fullUrl": "urn:uuid:8a0194c2-3a8e-44d2-ace8-685d4bc9571c",
      "resource": {
        "resourceType": "Composition",
        "id": "8a0194c2-3a8e-44d2-ace8-685d4bc9571c",
        "meta": {
          "security": [
            {
              "system": "http://terminology.hl7.org/CodeSystem/v3-ActReason",
              "code": "HTEST"
            },
            {
              "system": "http://terminology.hl7.org/CodeSystem/v3-ActReason",
              "code": "TRAIN"
            }
          ],
          "tag": [
            {
              "system": "https://synderai.net/fhir/CodeSystem/tags",
              "code": "synthetic",
              "display": "SYNDERAI Synthetic data"
            }
          ],
          "profile": [
            "http://hl7.eu/fhir/eps/StructureDefinition/composition-eu-eps"
          ]
        },
        "identifier": {
          "assigner": {
            "display": "HL7 Europe"
          },
          "system": "urn:oid:2.16.840.1.113883.2.51.999",
          "value": "bc5689d2-a2bf-47f8-986e-0643fd4c5883"
        },
        "type": {
          "coding": [
            {
              "system": "http://loinc.org",
              "code": "60591-5",
              "display": "Patient summary Document"
            }
          ],
          "text": "Patient summary Document"
        },
        "author": [
          {
            "reference": "urn:uuid:c6766212-3e52-4724-8f9d-b992d74a9ba3"
          }
        ],
        "section": [
          {
            "text": {
              "status": "generated",
              "div": "<div xmlns=\"http://www.w3.org/1999/xhtml\"><table class=\"hl7__ips\"><tr><th>Condition</th><th>Onset Date</th><th>Status</th></tr><tr><td>Essential hypertension</td><td><span class=\"nb\">25-Jan-2016</span></td><td>active</td></tr><tr><td>Metabolic syndrome X</td><td><span class=\"nb\">25-Jan-2016</span></td><td>active</td></tr><tr><td>Prediabetes</td><td><span class=\"nb\">20-Jan-2014</span></td><td>active</td></tr></table></div>"
            },
            "entry": [
              {
                "reference": "urn:uuid:ceee2acf-7f7f-49e3-9bbb-79f548a9ede8"
              },
              {
                "reference": "urn:uuid:aa12ceb1-7899-4aea-9e51-3ccee4ed243f"
              },
              {
                "reference": "urn:uuid:3a8b620d-818e-42dc-9318-34a4ad532448"
              }
            ],
            "code": {
              "coding": [
                {
                  "system": "http://loinc.org",
                  "code": "11450-4",
                  "display": "Problem list - Reported"
                }
              ]
            },
            "title": "Problem list"
          },
          {
            "text": {
              "status": "generated",
              "div": "<div xmlns=\"http://www.w3.org/1999/xhtml\"><table class=\"hl7__ips\"><tr><th>Medication</th><th>Since</th><th>Form</th><th>Dosage</th><th>Reason</th></tr><tr><td>Lisinopril 10 mg oral tablet</td><td><span class=\"nb\">2025-03-17</span></td><td>-</td><td>1 tablet (10 mg) by mouth once daily</td><td>Essential hypertension (disorder)</td></tr></table></div>"
            },
            "entry": [
              {
                "reference": "urn:uuid:6bcc33c4-d098-4993-94e4-807139b8359e"
              }
            ],
            "code": {
              "coding": [
                {
                  "system": "http://loinc.org",
                  "code": "10160-0",
                  "display": "History of Medication use Narrative"
                }
              ]
            },
            "title": "Medication list"
          },
          {
            "text": {
              "status": "generated",
              "div": "<div xmlns=\"http://www.w3.org/1999/xhtml\"><table class=\"hl7__ips\"><tr><th>Vaccine</th><th>Date</th></tr><tr><td>Influenza virus antigen only vaccine product</td><td><span class=\"nb\">17-Mar-2025</span></td></tr><tr><td>SARS-CoV-2 mRNA vaccine</td><td><span class=\"nb\">05-Jul-2021</span></td></tr><tr><td>Clostridium tetani toxoid antigen adsorbed only vaccine product</td><td><span class=\"nb\">11-Feb-2019</span></td></tr><tr><td>Live attenuated Human alphaherpesvirus 3 only vaccine product</td><td><span class=\"nb\">11-Feb-2019</span></td></tr></table></div>"
            },
            "entry": [
              {
                "reference": "urn:uuid:3574259e-25c5-459f-b794-9fab0303b711"
              },
              {
                "reference": "urn:uuid:61ae5f8b-c036-4602-99dc-847606cde90b"
              },
              {
                "reference": "urn:uuid:f2bb4175-d821-4412-95be-2e655cf784b0"
              },
              {
                "reference": "urn:uuid:e6771a92-a7ab-448c-80f8-71cdeff0213e"
              }
            ],
            "code": {
              "coding": [
                {
                  "system": "http://loinc.org",
                  "code": "11369-6",
                  "display": "History of Immunization note"
                }
              ]
            },
            "title": "Immunizations list"
          },
          {
            "text": {
              "status": "generated",
              "div": "<div xmlns=\"http://www.w3.org/1999/xhtml\"><table class=\"hl7__ips\"><tr><th>Procedure</th><th>Date</th><th>Reason</th></tr><tr><td>Pre-discharge assessment</td><td><span class=\"nb\">22-Aug-2016</span></td><td>-</td></tr><tr><td>Discharge from skilled nursing facility (procedure)</td><td><span class=\"nb\">22-Aug-2016</span></td><td>-</td></tr><tr><td>Professional / ancillary services care</td><td><span class=\"nb\">21-Aug-2016</span></td><td>-</td></tr><tr><td>Nursing care/supplementary surveillance</td><td><span class=\"nb\">21-Aug-2016</span></td><td>-</td></tr><tr><td>History AND physical examination</td><td><span class=\"nb\">16-Aug-2016</span></td><td>-</td></tr><tr><td>Initial patient assessment</td><td><span class=\"nb\">16-Aug-2016</span></td><td>-</td></tr><tr><td>Development of individualized plan of care</td><td><span class=\"nb\">16-Aug-2016</span></td><td>-</td></tr></table></div>"
            },
            "entry": [
              {
                "reference": "urn:uuid:0ae40f5c-6c3e-4fb0-839c-54f4665cef10"
              },
              {
                "reference": "urn:uuid:fed7babf-dceb-4043-abac-31d6d7e5bf98"
              },
              {
                "reference": "urn:uuid:525bf771-2cd0-4094-9a8a-e71debd2c473"
              },
              {
                "reference": "urn:uuid:7e6a6a96-33cd-46af-8bf5-3a2abd7740c1"
              },
              {
                "reference": "urn:uuid:e837ecaa-eb0b-4cb0-8b27-6c6d8e3fd9c9"
              },
              {
                "reference": "urn:uuid:555e6dc9-54b7-4363-a649-4e4e4bc41885"
              },
              {
                "reference": "urn:uuid:f864ba96-6578-45f8-9a34-2a4c3f0d2ace"
              }
            ],
            "code": {
              "coding": [
                {
                  "system": "http://loinc.org",
                  "code": "47519-4",
                  "display": "History of Procedures Document"
                }
              ]
            },
            "title": "Procedure History list"
          },
          {
            "text": {
              "status": "generated",
              "div": "<div xmlns=\"http://www.w3.org/1999/xhtml\"><table class=\"hl7__ips\"><tr><th>Allergy/Intolerance</th><th>Onset Date</th><th>Status</th><th>Type</th><th>Reaction</th></tr><tr><td></td><td>?</td><td>active</td><td>?</td><td></td></tr></table></div>"
            },
            "entry": [
              {
                "reference": "urn:uuid:a2e958de-54dd-4060-983a-4fb4b2fb9a64"
              }
            ],
            "code": {
              "coding": [
                {
                  "system": "http://loinc.org",
                  "code": "48765-2",
                  "display": "Allergies and adverse reactions Document"
                }
              ]
            },
            "title": "Allergies and Intolerances"
          },
          {
            "text": {
              "status": "generated",
              "div": "<div xmlns=\"http://www.w3.org/1999/xhtml\"><table class=\"hl7__ips\"><tr><th>Active Planned Care / Goals</th><th>Start Date</th><th>Reason</th></tr><tr><td>Lifestyle education regarding hypertension</td><td><span class=\"nb\">25-Jan-2016</span></td><td>Essential hypertension (disorder)</td></tr><tr><td><ul><li>Maintain blood pressure below 130/80 mmHg</li><li>Achieve at least 5% reduction in body weight</li><li>Engage in at least 150 minutes of moderate-intensity exercise per week</li></ul></td><td></td><td></td></tr><tr><td>Diabetes self management plan</td><td><span class=\"nb\">20-Jan-2014</span></td><td>Prediabetes</td></tr><tr><td><ul><li>Achieve and maintain HbA1c below 5.7% through diabetes self-management.</li><li>Achieve and maintain a weight reduction of at least 5% from baseline to reduce diabetes risk.</li><li>Engage in at least 150 minutes of moderate-intensity physical activity per week.</li></ul></td><td></td><td></td></tr></table></div>"
            },
            "entry": [
              {
                "reference": "urn:uuid:e3bd2444-0be8-454a-b7f7-a689709e01cf"
              },
              {
                "reference": "urn:uuid:f8d8376b-a3c7-4852-80d5-9d9538dbe739"
              }
            ],
            "code": {
              "coding": [
                {
                  "system": "http://loinc.org",
                  "code": "18776-5",
                  "display": "Plan of care note"
                }
              ]
            },
            "title": "Care Plan"
          },
          {
            "text": {
              "status": "generated",
              "div": "<div xmlns=\"http://www.w3.org/1999/xhtml\"><table class=\"hl7__ips\"><tr><th>Vital Signs</th><th>2025-03-17</th><th>2024-03-11</th></tr><tr><td>Body Height</td><td>178.3 cm</td><td>178.3 cm</td></tr><tr><td>Pain severity - 0-10 verbal numeric rating [Score] - Reported</td><td>2 {score}</td><td>3 {score}</td></tr><tr><td>Body Weight</td><td>95.1 kg</td><td>96 kg</td></tr><tr><td>Body mass index (BMI) [Ratio]</td><td>29.9 kg/m2</td><td>30.2 kg/m2</td></tr><tr><td>Diastolic Blood Pressure</td><td>84 mm[Hg]</td><td>90 mm[Hg]</td></tr><tr><td>Systolic Blood Pressure</td><td>145 mm[Hg]</td><td>141 mm[Hg]</td></tr><tr><td>Heart rate</td><td>86 /min</td><td>61 /min</td></tr><tr><td>Respiratory rate</td><td>14 /min</td><td>15 /min</td></tr></table></div>"
            },
            "entry": [
              {
                "reference": "urn:uuid:7190a6a3-5166-4e20-a41c-2357499612d1"
              },
              {
                "reference": "urn:uuid:b20652cd-e54e-4efd-9aed-063f53e7c29f"
              },
              {
                "reference": "urn:uuid:002a9597-e224-4ead-8d3a-9f29715a672a"
              },
              {
                "reference": "urn:uuid:e839441c-1135-4c12-944d-8a015a92208f"
              },
              {
                "reference": "urn:uuid:b06dd9d5-afcb-4923-bacc-65293febef4b"
              },
              {
                "reference": "urn:uuid:25d7a463-4711-4ebe-a805-0662f8b5403e"
              },
              {
                "reference": "urn:uuid:a5db46f1-56e2-439f-bb6e-e331f5bb73d3"
              },
              {
                "reference": "urn:uuid:dc63464c-640a-4b17-b135-1e3b95a9628c"
              },
              {
                "reference": "urn:uuid:c4744b2c-69f3-4f2b-9372-2d29d2ba6873"
              },
              {
                "reference": "urn:uuid:f814f01f-6231-445a-83bb-58dbf3d8a499"
              },
              {
                "reference": "urn:uuid:00c8f3c7-9cc7-44d1-8a73-7aad7bbeb22d"
              },
              {
                "reference": "urn:uuid:83b49ee3-e04f-4517-8692-d3d92b7a82c8"
              },
              {
                "reference": "urn:uuid:f5f02257-e2fa-4c34-8c0b-6408d6fa3aef"
              },
              {
                "reference": "urn:uuid:0533b08d-553f-4b73-b9bf-555f88452042"
              },
              {
                "reference": "urn:uuid:b782215f-bd8c-4d7e-bf89-da9354d4934b"
              },
              {
                "reference": "urn:uuid:582ada1c-469d-4ee7-87e2-f2fa034e5b96"
              }
            ],
            "code": {
              "coding": [
                {
                  "system": "http://loinc.org",
                  "code": "8716-3",
                  "display": "Vital signs note"
                }
              ]
            },
            "title": "Vital Signs"
          },
          {
            "text": {
              "status": "generated",
              "div": "<div xmlns=\"http://www.w3.org/1999/xhtml\"><table class=\"hl7__ips\"><table class=\"hl7__ips\"><thead><tr><th>Recent Lab Observations</th><th>17-MAR-2025</th><th>Reference&#xA0;Range</th><th>Unit</th></tr></thead><tbody><tr><td>Hemoglobin A1c/Hemoglobin.total in Blood</td><td><strong>6.3 H</strong></td><td>4.8 - 5.7</td><td>%</td></tr><tr><td>Glucose [Mass/volume] in Blood</td><td><strong>99.8 H</strong></td><td>70 - 99</td><td>mg/dL</td></tr><tr><td>Urea nitrogen [Mass/volume] in Blood</td><td>17.4</td><td>7 - 20</td><td>mg/dL</td></tr><tr><td>Creatinine [Mass/volume] in Blood</td><td>1.0</td><td>0.6 - 1.1</td><td>mg/dL</td></tr><tr><td>Calcium [Mass/volume] in Blood</td><td>9.3</td><td>8.5 - 10.5</td><td>mg/dL</td></tr><tr><td>Sodium [Moles/volume] in Blood</td><td>137.4</td><td>135 - 145</td><td>mmol/L</td></tr><tr><td>Potassium [Moles/volume] in Blood</td><td>4.5</td><td>3.5 - 5.3</td><td>mmol/L</td></tr><tr><td>Chloride [Moles/volume] in Blood</td><td>103.5</td><td>98 - 114</td><td>mmol/L</td></tr><tr><td>Carbon dioxide, total [Moles/volume] in Blood</td><td>22.7</td><td>22 - 29</td><td>mmol/L</td></tr></tbody></table></table></div>"
            },
            "entry": [
              {
                "reference": "urn:uuid:6f33ecd4-c418-4e1b-8457-8766a7905d14"
              },
              {
                "reference": "urn:uuid:ea12ca7e-8fae-42c0-985e-7d0d2eb707ca"
              },
              {
                "reference": "urn:uuid:fba2c804-1960-4515-94cc-98fe440f8137"
              },
              {
                "reference": "urn:uuid:950b8757-5c86-45bb-9d3e-08778b775d89"
              },
              {
                "reference": "urn:uuid:b49f8279-6022-4442-8ec6-694a453d3d2e"
              },
              {
                "reference": "urn:uuid:37daea92-be43-4d4a-8509-fdf9593c8932"
              },
              {
                "reference": "urn:uuid:512f5a91-8a09-4e13-a27a-330c653ec94f"
              },
              {
                "reference": "urn:uuid:8fb76fdc-4ba5-41d6-905f-49627cdf087b"
              },
              {
                "reference": "urn:uuid:1bb628bf-2edc-4ea2-88af-0317e767fbdc"
              }
            ],
            "code": {
              "coding": [
                {
                  "system": "http://loinc.org",
                  "code": "30954-2",
                  "display": "Relevant diagnostic tests/laboratory data note"
                }
              ]
            },
            "title": "Relevant diagnostic tests/laboratory data"
          },
          {
            "text": {
              "status": "generated",
              "div": "<div xmlns=\"http://www.w3.org/1999/xhtml\"><table class=\"hl7__ips\"><tr><th>Device</th><th>Date (since)</th></tr><tr><td>Blood glucose meter (physical object)</td><td><span class=\"nb\">20-Jan-2014</span></td></tr></table></div>"
            },
            "entry": [
              {
                "reference": "urn:uuid:49406aed-63bd-4e52-a41d-2995c8868819"
              }
            ],
            "code": {
              "coding": [
                {
                  "system": "http://loinc.org",
                  "code": "46264-8",
                  "display": "History of medical device use"
                }
              ]
            },
            "title": "Device Use"
          }
        ],
        "title": "European Patient Summary",
        "status": "final",
        "subject": {
          "reference": "urn:uuid:803f1be8-8afe-417a-b928-3719031bbcd7",
          "display": "Pauline Grenier"
        },
        "custodian": {
          "reference": "urn:uuid:79c40847-eb00-49a7-9cae-8d37737a621a"
        },
        "date": "2025-03-17",
        "confidentiality": "N"
      }
    },
    {
      "fullUrl": "urn:uuid:803f1be8-8afe-417a-b928-3719031bbcd7",
      "resource": {
        "resourceType": "Patient",
        "id": "803f1be8-8afe-417a-b928-3719031bbcd7",
        "meta": {
          "security": [
            {
              "system": "http://terminology.hl7.org/CodeSystem/v3-ActReason",
              "code": "HTEST"
            },
            {
              "system": "http://terminology.hl7.org/CodeSystem/v3-ActReason",
              "code": "TRAIN"
            }
          ],
          "tag": [
            {
              "system": "https://synderai.net/fhir/CodeSystem/tags",
              "code": "synthetic",
              "display": "SYNDERAI Synthetic data"
            }
          ],
          "profile": [
            "http://hl7.eu/fhir/eps/StructureDefinition/patient-eu-eps"
          ]
        },
        "identifier": [
          {
            "type": {
              "coding": [
                {
                  "code": "PT",
                  "system": "http://terminology.hl7.org/CodeSystem/v2-0203"
                }
              ]
            },
            "system": "http://ec.europa.eu/identifier/eci",
            "value": "6776-872657-1"
          },
          {
            "type": {
              "coding": [
                {
                  "code": "MR",
                  "system": "http://terminology.hl7.org/CodeSystem/v2-0203"
                }
              ]
            },
            "system": "http://local.setting.eu/identifier",
            "value": "a90ff566-3092-3af0-91f2-c0514ba66d35"
          }
        ],
        "name": [
          {
            "family": "Grenier"
          },
          {
            "given": [
              "Pauline"
            ]
          },
          {
            "text": "Pauline Grenier"
          }
        ],
        "address": [
          {
            "line": [
              "114, avenue Georges"
            ],
            "use": "home",
            "type": "physical",
            "postalCode": "71110",
            "city": "Caron",
            "country": "France"
          }
        ],
        "telecom": [
          {
            "system": "phone",
            "value": "+33 4 26 27 51 56"
          }
        ],
        "extension": [
          {
            "url": "http://hl7.org/fhir/StructureDefinition/patient-nationality",
            "valueCodeableConcept": {
              "coding": [
                {
                  "code": "FR",
                  "system": "http://hl7.org/fhir/ValueSet/country"
                }
              ]
            }
          }
        ],
        "text": {
          "status": "generated",
          "div": "<div xmlns=\"http://www.w3.org/1999/xhtml\"><table class=\"hl7__ips\"><tr><td>Pauline Grenier</td><td>female</td><td>03-May-1971</td></tr></table></div>"
        },
        "gender": "female",
        "birthDate": "1971-05-03"
      }
    },
    {
      "fullUrl": "urn:uuid:c6766212-3e52-4724-8f9d-b992d74a9ba3",
      "resource": {
        "resourceType": "PractitionerRole",
        "id": "c6766212-3e52-4724-8f9d-b992d74a9ba3",
        "meta": {
          "profile": [
            "http://hl7.eu/fhir/base/StructureDefinition/practitionerRole-eu"
          ]
        },
        "text": {
          "status": "generated",
          "div": "<div xmlns=\"http://www.w3.org/1999/xhtml\"><table class=\"hl7__ips\">Provider Role Id c6766212-3e52-4724-8f9d-b992d74a9ba3</table></div>"
        },
        "practitioner": {
          "reference": "urn:uuid:ee8f333c-8ec3-4cb3-83e5-d802b0216276"
        },
        "organization": {
          "reference": "urn:uuid:79c40847-eb00-49a7-9cae-8d37737a621a"
        }
      }
    },
    {
      "fullUrl": "urn:uuid:ee8f333c-8ec3-4cb3-83e5-d802b0216276",
      "resource": {
        "resourceType": "Practitioner",
        "id": "ee8f333c-8ec3-4cb3-83e5-d802b0216276",
        "meta": {
          "profile": [
            "http://hl7.eu/fhir/base/StructureDefinition/practitioner-eu"
          ]
        },
        "name": [
          {
            "prefix": [
              "Dr."
            ],
            "given": [
              "Hel"
            ],
            "family": "Ping"
          }
        ],
        "text": {
          "status": "generated",
          "div": "<div xmlns=\"http://www.w3.org/1999/xhtml\"><table class=\"hl7__ips\">Dr. Hel Ping</table></div>"
        }
      }
    },
    {
      "fullUrl": "urn:uuid:79c40847-eb00-49a7-9cae-8d37737a621a",
      "resource": {
        "resourceType": "Organization",
        "id": "79c40847-eb00-49a7-9cae-8d37737a621a",
        "meta": {
          "profile": [
            "http://hl7.eu/fhir/base/StructureDefinition/organization-eu"
          ]
        },
        "identifier": [
          {
            "assigner": {
              "display": "HL7 Europe"
            },
            "system": "urn:oid:2.16.840.1.113883.2.51.999",
            "value": "3a779442-0531-4046-9a98-cacadeeaeda5"
          }
        ],
        "address": [
          {
            "city": "Le Creusot",
            "postalCode": "71200",
            "country": "France"
          }
        ],
        "text": {
          "status": "generated",
          "div": "<div xmlns=\"http://www.w3.org/1999/xhtml\"><table class=\"hl7__ips\">Hôpital du Creusot - Site Foch</table></div>"
        },
        "name": "Hôpital du Creusot - Site Foch"
      }
    },
    {
      "fullUrl": "urn:uuid:ceee2acf-7f7f-49e3-9bbb-79f548a9ede8",
      "resource": {
        "resourceType": "Condition",
        "id": "ceee2acf-7f7f-49e3-9bbb-79f548a9ede8",
        "meta": {
          "profile": [
            "http://hl7.org/fhir/uv/ips/StructureDefinition/Condition-uv-ips"
          ]
        },
        "category": [
          {
            "coding": [
              {
                "code": "problem-list-item",
                "system": "http://terminology.hl7.org/CodeSystem/condition-category",
                "display": "Problem List Item"
              }
            ]
          }
        ],
        "code": {
          "coding": [
            {
              "code": "59621000",
              "system": "http://snomed.info/sct",
              "display": "Essential hypertension (disorder)"
            }
          ],
          "text": "Essential hypertension"
        },
        "text": {
          "status": "generated",
          "div": "<div xmlns=\"http://www.w3.org/1999/xhtml\"><table class=\"hl7__ips\"><tr><td>Essential hypertension</td><td><span class=\"nb\">25-Jan-2016</span></td><td>active</td></tr></table></div>"
        },
        "onsetDateTime": "2016-01-25",
        "subject": {
          "reference": "urn:uuid:",
          "display": "Pauline Grenier"
        },
        "asserter": {
          "reference": "urn:uuid:",
          "display": "Hôpital du Creusot - Site Foch"
        }
      }
    },
    {
      "fullUrl": "urn:uuid:aa12ceb1-7899-4aea-9e51-3ccee4ed243f",
      "resource": {
        "resourceType": "Condition",
        "id": "aa12ceb1-7899-4aea-9e51-3ccee4ed243f",
        "meta": {
          "profile": [
            "http://hl7.org/fhir/uv/ips/StructureDefinition/Condition-uv-ips"
          ]
        },
        "category": [
          {
            "coding": [
              {
                "code": "problem-list-item",
                "system": "http://terminology.hl7.org/CodeSystem/condition-category",
                "display": "Problem List Item"
              }
            ]
          }
        ],
        "code": {
          "coding": [
            {
              "code": "237602007",
              "system": "http://snomed.info/sct",
              "display": "Metabolic syndrome X (disorder)"
            }
          ],
          "text": "Metabolic syndrome X"
        },
        "text": {
          "status": "generated",
          "div": "<div xmlns=\"http://www.w3.org/1999/xhtml\"><table class=\"hl7__ips\"><tr><td>Metabolic syndrome X</td><td><span class=\"nb\">25-Jan-2016</span></td><td>active</td></tr></table></div>"
        },
        "onsetDateTime": "2016-01-25",
        "subject": {
          "reference": "urn:uuid:",
          "display": "Pauline Grenier"
        },
        "asserter": {
          "reference": "urn:uuid:",
          "display": "Hôpital du Creusot - Site Foch"
        }
      }
    },
    {
      "fullUrl": "urn:uuid:3a8b620d-818e-42dc-9318-34a4ad532448",
      "resource": {
        "resourceType": "Condition",
        "id": "3a8b620d-818e-42dc-9318-34a4ad532448",
        "meta": {
          "profile": [
            "http://hl7.org/fhir/uv/ips/StructureDefinition/Condition-uv-ips"
          ]
        },
        "category": [
          {
            "coding": [
              {
                "code": "problem-list-item",
                "system": "http://terminology.hl7.org/CodeSystem/condition-category",
                "display": "Problem List Item"
              }
            ]
          }
        ],
        "code": {
          "coding": [
            {
              "code": "15777000",
              "system": "http://snomed.info/sct",
              "display": "Prediabetes (disorder)"
            }
          ],
          "text": "Prediabetes"
        },
        "text": {
          "status": "generated",
          "div": "<div xmlns=\"http://www.w3.org/1999/xhtml\"><table class=\"hl7__ips\"><tr><td>Prediabetes</td><td><span class=\"nb\">20-Jan-2014</span></td><td>active</td></tr></table></div>"
        },
        "onsetDateTime": "2014-01-20",
        "subject": {
          "reference": "urn:uuid:",
          "display": "Pauline Grenier"
        },
        "asserter": {
          "reference": "urn:uuid:",
          "display": "Hôpital du Creusot - Site Foch"
        }
      }
    },
    {
      "fullUrl": "urn:uuid:169192aa-7f70-4d5a-9379-7aa30c6f9cb7",
      "resource": {
        "resourceType": "Condition",
        "id": "169192aa-7f70-4d5a-9379-7aa30c6f9cb7",
        "meta": {
          "profile": [
            "http://hl7.org/fhir/uv/ips/StructureDefinition/Condition-uv-ips"
          ]
        },
        "category": [
          {
            "coding": [
              {
                "code": "problem-list-item",
                "system": "http://terminology.hl7.org/CodeSystem/condition-category",
                "display": "Problem List Item"
              }
            ]
          }
        ],
        "code": {
          "coding": [
            {
              "code": "444814009",
              "system": "http://snomed.info/sct",
              "display": "Viral sinusitis (disorder)"
            }
          ],
          "text": "Viral sinusitis"
        },
        "text": {
          "status": "generated",
          "div": "<div xmlns=\"http://www.w3.org/1999/xhtml\"><table class=\"hl7__ips\"><tr><td><span class=\"grayedout\">Viral sinusitis</span></td><td><span class=\"nb\">17-Aug-2021 - 30-Aug-2021</span></td><td><span class=\"grayedout\">inactive</span></td></tr></table></div>"
        },
        "onsetDateTime": "2021-08-17",
        "abatementDateTime": "2021-08-30",
        "subject": {
          "reference": "urn:uuid:",
          "display": "Pauline Grenier"
        },
        "asserter": {
          "reference": "urn:uuid:",
          "display": "Hôpital du Creusot - Site Foch"
        }
      }
    },
    {
      "fullUrl": "urn:uuid:84221fdb-76bd-4071-b215-8466e42004dd",
      "resource": {
        "resourceType": "Condition",
        "id": "84221fdb-76bd-4071-b215-8466e42004dd",
        "meta": {
          "profile": [
            "http://hl7.org/fhir/uv/ips/StructureDefinition/Condition-uv-ips"
          ]
        },
        "category": [
          {
            "coding": [
              {
                "code": "problem-list-item",
                "system": "http://terminology.hl7.org/CodeSystem/condition-category",
                "display": "Problem List Item"
              }
            ]
          }
        ],
        "code": {
          "coding": [
            {
              "code": "10509002",
              "system": "http://snomed.info/sct",
              "display": "Acute bronchitis (disorder)"
            }
          ],
          "text": "Acute bronchitis"
        },
        "text": {
          "status": "generated",
          "div": "<div xmlns=\"http://www.w3.org/1999/xhtml\"><table class=\"hl7__ips\"><tr><td><span class=\"grayedout\">Acute bronchitis</span></td><td><span class=\"nb\">13-Feb-2021 - 04-Mar-2021</span></td><td><span class=\"grayedout\">inactive</span></td></tr></table></div>"
        },
        "onsetDateTime": "2021-02-13",
        "abatementDateTime": "2021-03-04",
        "subject": {
          "reference": "urn:uuid:",
          "display": "Pauline Grenier"
        },
        "asserter": {
          "reference": "urn:uuid:",
          "display": "Hôpital du Creusot - Site Foch"
        }
      }
    },
    {
      "fullUrl": "urn:uuid:5d27b087-50c0-4a17-bd62-6bef9d5db546",
      "resource": {
        "resourceType": "Condition",
        "id": "5d27b087-50c0-4a17-bd62-6bef9d5db546",
        "meta": {
          "profile": [
            "http://hl7.org/fhir/uv/ips/StructureDefinition/Condition-uv-ips"
          ]
        },
        "category": [
          {
            "coding": [
              {
                "code": "problem-list-item",
                "system": "http://terminology.hl7.org/CodeSystem/condition-category",
                "display": "Problem List Item"
              }
            ]
          }
        ],
        "code": {
          "coding": [
            {
              "code": "39848009",
              "system": "http://snomed.info/sct",
              "display": "Whiplash injury to neck (disorder)"
            }
          ],
          "text": "Whiplash injury to neck"
        },
        "text": {
          "status": "generated",
          "div": "<div xmlns=\"http://www.w3.org/1999/xhtml\"><table class=\"hl7__ips\"><tr><td><span class=\"grayedout\">Whiplash injury to neck</span></td><td><span class=\"nb\">16-Aug-2016 - 14-Sep-2016</span></td><td><span class=\"grayedout\">inactive</span></td></tr></table></div>"
        },
        "onsetDateTime": "2016-08-16",
        "abatementDateTime": "2016-09-14",
        "subject": {
          "reference": "urn:uuid:",
          "display": "Pauline Grenier"
        },
        "asserter": {
          "reference": "urn:uuid:",
          "display": "Hôpital du Creusot - Site Foch"
        }
      }
    },
    {
      "fullUrl": "urn:uuid:f85c5ae1-bf50-48b2-80ff-27fd9dbf8b16",
      "resource": {
        "resourceType": "Condition",
        "id": "f85c5ae1-bf50-48b2-80ff-27fd9dbf8b16",
        "meta": {
          "profile": [
            "http://hl7.org/fhir/uv/ips/StructureDefinition/Condition-uv-ips"
          ]
        },
        "category": [
          {
            "coding": [
              {
                "code": "problem-list-item",
                "system": "http://terminology.hl7.org/CodeSystem/condition-category",
                "display": "Problem List Item"
              }
            ]
          }
        ],
        "code": {
          "coding": [
            {
              "code": "90460009",
              "system": "http://snomed.info/sct",
              "display": "Injury of neck (disorder)"
            }
          ],
          "text": "Injury of neck"
        },
        "text": {
          "status": "generated",
          "div": "<div xmlns=\"http://www.w3.org/1999/xhtml\"><table class=\"hl7__ips\"><tr><td><span class=\"grayedout\">Injury of neck</span></td><td><span class=\"nb\">16-Aug-2016 - 14-Sep-2016</span></td><td><span class=\"grayedout\">inactive</span></td></tr></table></div>"
        },
        "onsetDateTime": "2016-08-16",
        "abatementDateTime": "2016-09-14",
        "subject": {
          "reference": "urn:uuid:",
          "display": "Pauline Grenier"
        },
        "asserter": {
          "reference": "urn:uuid:",
          "display": "Hôpital du Creusot - Site Foch"
        }
      }
    },
    {
      "fullUrl": "urn:uuid:18eb117d-3aa2-4aa0-8c47-498ae85b49d8",
      "resource": {
        "resourceType": "Medication",
        "id": "18eb117d-3aa2-4aa0-8c47-498ae85b49d8",
        "meta": {
          "profile": [
            "http://hl7.eu/fhir/eps/StructureDefinition/Medication-eu-eps"
          ]
        },
        "code": {
          "coding": [
            {
              "code": "318859000",
              "system": "http://snomed.info/sct",
              "display": "Lisinopril 10 mg oral tablet"
            }
          ],
          "text": "Lisinopril 10 mg oral tablet"
        },
        "text": {
          "status": "generated",
          "div": "<div xmlns=\"http://www.w3.org/1999/xhtml\">Lisinopril 10 mg oral tablet</div>"
        }
      }
    },
    {
      "fullUrl": "urn:uuid:6bcc33c4-d098-4993-94e4-807139b8359e",
      "resource": {
        "resourceType": "MedicationStatement",
        "id": "6bcc33c4-d098-4993-94e4-807139b8359e",
        "meta": {
          "profile": [
            "http://hl7.eu/fhir/eps/StructureDefinition/MedicationStatement-eu-eps"
          ]
        },
        "effectivePeriod": {
          "start": "2025-03-17"
        },
        "dosage": [
          {
            "doseAndRate": [
              {
                "doseQuantity": {
                  "value": 1,
                  "unit": "{tbl}",
                  "code": "{tbl}"
                }
              }
            ],
            "timing": {
              "repeat": {
                "frequency": 1,
                "period": 1,
                "periodUnit": "d"
              }
            },
            "text": "1 tablet (10 mg) by mouth once daily",
            "asNeededBoolean": false
          }
        ],
        "reasonCode": [
          {
            "coding": [
              {
                "code": "59621000",
                "system": "http://snomed.info/sct",
                "display": "Essential hypertension (disorder)"
              }
            ]
          }
        ],
        "text": {
          "status": "generated",
          "div": "<div xmlns=\"http://www.w3.org/1999/xhtml\"><table class=\"hl7__ips first25\"><tr><th>Medication</th><th>Since</th><th>Form</th><th>Dosage</th><th>Reason</th></tr><tr><td>Lisinopril 10 mg oral tablet</td><td><span class=\"nb\">2025-03-17</span></td><td>-</td><td>1 tablet (10 mg) by mouth once daily</td><td>Essential hypertension (disorder)</td></tr></table></div>"
        },
        "status": "active",
        "medicationReference": {
          "reference": "urn:uuid:18eb117d-3aa2-4aa0-8c47-498ae85b49d8",
          "display": "Lisinopril 10 mg oral tablet"
        },
        "subject": {
          "reference": "urn:uuid:803f1be8-8afe-417a-b928-3719031bbcd7",
          "display": "Pauline Grenier"
        }
      }
    },
    {
      "fullUrl": "urn:uuid:3574259e-25c5-459f-b794-9fab0303b711",
      "resource": {
        "resourceType": "Immunization",
        "id": "3574259e-25c5-459f-b794-9fab0303b711",
        "meta": {
          "profile": [
            "http://hl7.org/fhir/uv/ips/StructureDefinition/Immunization-uv-ips"
          ]
        },
        "vaccineCode": {
          "coding": [
            {
              "code": "1181000221105",
              "system": "http://snomed.info/sct",
              "display": "Vaccine product containing Influenza virus antigen"
            },
            {
              "code": "J07BB02",
              "system": "http://www.whocc.no/atc",
              "display": "Influenza, inactivated, split virus"
            }
          ],
          "text": "Influenza virus antigen only vaccine product"
        },
        "site": {
          "coding": [
            {
              "code": "244979005",
              "system": "http://snomed.info/sct",
              "display": "Entire muscle of upper arm"
            }
          ],
          "text": "Entire muscle of upper arm"
        },
        "route": {
          "coding": [
            {
              "code": "78421000",
              "system": "http://snomed.info/sct",
              "display": "Intramuscular route"
            }
          ],
          "text": "Intramuscular route"
        },
        "text": {
          "status": "generated",
          "div": "<div xmlns=\"http://www.w3.org/1999/xhtml\"><table class=\"hl7__ips\"><tr><td>Influenza virus antigen only vaccine product</td><td><span class=\"nb\">17-Mar-2025</span></td></tr></table></div>"
        },
        "status": "completed",
        "patient": {
          "reference": "urn:uuid:803f1be8-8afe-417a-b928-3719031bbcd7",
          "display": "Pauline Grenier"
        },
        "occurrenceDateTime": "2025-03-17",
        "lotNumber": "LK-ZYKBrB",
        "expirationDate": "2026-03-09"
      }
    },
    {
      "fullUrl": "urn:uuid:61ae5f8b-c036-4602-99dc-847606cde90b",
      "resource": {
        "resourceType": "Immunization",
        "id": "61ae5f8b-c036-4602-99dc-847606cde90b",
        "meta": {
          "profile": [
            "http://hl7.org/fhir/uv/ips/StructureDefinition/Immunization-uv-ips"
          ]
        },
        "vaccineCode": {
          "coding": [
            {
              "code": "1119349007",
              "system": "http://snomed.info/sct",
              "display": "Vaccine product containing SARS-CoV-2 mRNA"
            },
            {
              "code": "J07BX03",
              "system": "http://www.whocc.no/atc",
              "display": "COVID-19 mRNA vaccines"
            }
          ],
          "text": "SARS-CoV-2 mRNA vaccine"
        },
        "site": {
          "coding": [
            {
              "code": "244979005",
              "system": "http://snomed.info/sct",
              "display": "Entire muscle of upper arm"
            }
          ],
          "text": "Entire muscle of upper arm"
        },
        "route": {
          "coding": [
            {
              "code": "78421000",
              "system": "http://snomed.info/sct",
              "display": "Intramuscular route"
            }
          ],
          "text": "Intramuscular route"
        },
        "text": {
          "status": "generated",
          "div": "<div xmlns=\"http://www.w3.org/1999/xhtml\"><table class=\"hl7__ips\"><tr><td>SARS-CoV-2 mRNA vaccine</td><td><span class=\"nb\">05-Jul-2021</span></td></tr></table></div>"
        },
        "status": "completed",
        "patient": {
          "reference": "urn:uuid:803f1be8-8afe-417a-b928-3719031bbcd7",
          "display": "Pauline Grenier"
        },
        "occurrenceDateTime": "2021-07-05",
        "lotNumber": "SH-yztI7U5H",
        "expirationDate": "2022-06-11"
      }
    },
    {
      "fullUrl": "urn:uuid:f2bb4175-d821-4412-95be-2e655cf784b0",
      "resource": {
        "resourceType": "Immunization",
        "id": "f2bb4175-d821-4412-95be-2e655cf784b0",
        "meta": {
          "profile": [
            "http://hl7.org/fhir/uv/ips/StructureDefinition/Immunization-uv-ips"
          ]
        },
        "vaccineCode": {
          "coding": [
            {
              "code": "777725002",
              "system": "http://snomed.info/sct",
              "display": "Vaccine product containing only Clostridium tetani toxoid antigen adsorbed"
            },
            {
              "code": "J07AM51",
              "system": "http://www.whocc.no/atc",
              "display": "Diphtheria-tetanus vaccines, adult type"
            }
          ],
          "text": "Clostridium tetani toxoid antigen adsorbed only vaccine product"
        },
        "site": {
          "coding": [
            {
              "code": "244979005",
              "system": "http://snomed.info/sct",
              "display": "Entire muscle of upper arm"
            }
          ],
          "text": "Entire muscle of upper arm"
        },
        "route": {
          "coding": [
            {
              "code": "78421000",
              "system": "http://snomed.info/sct",
              "display": "Intramuscular route"
            }
          ],
          "text": "Intramuscular route"
        },
        "text": {
          "status": "generated",
          "div": "<div xmlns=\"http://www.w3.org/1999/xhtml\"><table class=\"hl7__ips\"><tr><td>Clostridium tetani toxoid antigen adsorbed only vaccine product</td><td><span class=\"nb\">11-Feb-2019</span></td></tr></table></div>"
        },
        "status": "completed",
        "patient": {
          "reference": "urn:uuid:803f1be8-8afe-417a-b928-3719031bbcd7",
          "display": "Pauline Grenier"
        },
        "occurrenceDateTime": "2019-02-11",
        "lotNumber": "SW-7ewoR0i",
        "expirationDate": "2020-01-06"
      }
    },
    {
      "fullUrl": "urn:uuid:e6771a92-a7ab-448c-80f8-71cdeff0213e",
      "resource": {
        "resourceType": "Immunization",
        "id": "e6771a92-a7ab-448c-80f8-71cdeff0213e",
        "meta": {
          "profile": [
            "http://hl7.org/fhir/uv/ips/StructureDefinition/Immunization-uv-ips"
          ]
        },
        "vaccineCode": {
          "coding": [
            {
              "code": "2221000221107",
              "system": "http://snomed.info/sct",
              "display": "Live attenuated Varicella-zoster vaccine"
            },
            {
              "code": "J07BK02",
              "system": "http://www.whocc.no/atc",
              "display": "Varicella-zoster vaccines"
            }
          ],
          "text": "Live attenuated Human alphaherpesvirus 3 only vaccine product"
        },
        "site": {
          "coding": [
            {
              "code": "368208006",
              "system": "http://snomed.info/sct",
              "display": "Left upper arm structure"
            }
          ],
          "text": "Left upper arm structure"
        },
        "route": {
          "coding": [
            {
              "code": "34206005",
              "system": "http://snomed.info/sct",
              "display": "Subcutaneous route"
            }
          ],
          "text": "Subcutaneous route"
        },
        "text": {
          "status": "generated",
          "div": "<div xmlns=\"http://www.w3.org/1999/xhtml\"><table class=\"hl7__ips\"><tr><td>Live attenuated Human alphaherpesvirus 3 only vaccine product</td><td><span class=\"nb\">11-Feb-2019</span></td></tr></table></div>"
        },
        "status": "completed",
        "patient": {
          "reference": "urn:uuid:803f1be8-8afe-417a-b928-3719031bbcd7",
          "display": "Pauline Grenier"
        },
        "occurrenceDateTime": "2019-02-11",
        "lotNumber": "CZ-vSb0",
        "expirationDate": "2019-10-20"
      }
    },
    {
      "fullUrl": "urn:uuid:0ae40f5c-6c3e-4fb0-839c-54f4665cef10",
      "resource": {
        "resourceType": "Procedure",
        "id": "0ae40f5c-6c3e-4fb0-839c-54f4665cef10",
        "meta": {
          "profile": [
            "http://hl7.org/fhir/uv/ips/StructureDefinition/Procedure-uv-ips"
          ]
        },
        "code": {
          "coding": [
            {
              "code": "225386006",
              "system": "http://snomed.info/sct",
              "display": "Pre-discharge assessment (procedure)"
            }
          ],
          "text": "Pre-discharge assessment"
        },
        "text": {
          "status": "generated",
          "div": "<div xmlns=\"http://www.w3.org/1999/xhtml\"><table class=\"hl7__ips\"><tr><td>Pre-discharge assessment</td><td><span class=\"nb\">22-Aug-2016</span></td><td>-</td></tr></table></div>"
        },
        "status": "completed",
        "performedDateTime": "2016-08-22",
        "subject": {
          "reference": "urn:uuid:",
          "display": "Pauline Grenier"
        }
      }
    },
    {
      "fullUrl": "urn:uuid:fed7babf-dceb-4043-abac-31d6d7e5bf98",
      "resource": {
        "resourceType": "Procedure",
        "id": "fed7babf-dceb-4043-abac-31d6d7e5bf98",
        "meta": {
          "profile": [
            "http://hl7.org/fhir/uv/ips/StructureDefinition/Procedure-uv-ips"
          ]
        },
        "code": {
          "coding": [
            {
              "code": "449381000124108",
              "system": "http://snomed.info/sct",
              "display": "Discharge from skilled nursing facility (procedure)"
            }
          ]
        },
        "text": {
          "status": "generated",
          "div": "<div xmlns=\"http://www.w3.org/1999/xhtml\"><table class=\"hl7__ips\"><tr><td>Discharge from skilled nursing facility (procedure)</td><td><span class=\"nb\">22-Aug-2016</span></td><td>-</td></tr></table></div>"
        },
        "status": "completed",
        "performedDateTime": "2016-08-22",
        "subject": {
          "reference": "urn:uuid:",
          "display": "Pauline Grenier"
        }
      }
    },
    {
      "fullUrl": "urn:uuid:525bf771-2cd0-4094-9a8a-e71debd2c473",
      "resource": {
        "resourceType": "Procedure",
        "id": "525bf771-2cd0-4094-9a8a-e71debd2c473",
        "meta": {
          "profile": [
            "http://hl7.org/fhir/uv/ips/StructureDefinition/Procedure-uv-ips"
          ]
        },
        "code": {
          "coding": [
            {
              "code": "409023009",
              "system": "http://snomed.info/sct",
              "display": "Professional / ancillary services care (regime/therapy)"
            }
          ],
          "text": "Professional / ancillary services care"
        },
        "text": {
          "status": "generated",
          "div": "<div xmlns=\"http://www.w3.org/1999/xhtml\"><table class=\"hl7__ips\"><tr><td>Professional / ancillary services care</td><td><span class=\"nb\">21-Aug-2016</span></td><td>-</td></tr></table></div>"
        },
        "status": "completed",
        "performedDateTime": "2016-08-21",
        "subject": {
          "reference": "urn:uuid:",
          "display": "Pauline Grenier"
        }
      }
    },
    {
      "fullUrl": "urn:uuid:7e6a6a96-33cd-46af-8bf5-3a2abd7740c1",
      "resource": {
        "resourceType": "Procedure",
        "id": "7e6a6a96-33cd-46af-8bf5-3a2abd7740c1",
        "meta": {
          "profile": [
            "http://hl7.org/fhir/uv/ips/StructureDefinition/Procedure-uv-ips"
          ]
        },
        "code": {
          "coding": [
            {
              "code": "410401003",
              "system": "http://snomed.info/sct",
              "display": "Nursing care/supplementary surveillance (regime/therapy)"
            }
          ],
          "text": "Nursing care/supplementary surveillance"
        },
        "text": {
          "status": "generated",
          "div": "<div xmlns=\"http://www.w3.org/1999/xhtml\"><table class=\"hl7__ips\"><tr><td>Nursing care/supplementary surveillance</td><td><span class=\"nb\">21-Aug-2016</span></td><td>-</td></tr></table></div>"
        },
        "status": "completed",
        "performedDateTime": "2016-08-21",
        "subject": {
          "reference": "urn:uuid:",
          "display": "Pauline Grenier"
        }
      }
    },
    {
      "fullUrl": "urn:uuid:e837ecaa-eb0b-4cb0-8b27-6c6d8e3fd9c9",
      "resource": {
        "resourceType": "Procedure",
        "id": "e837ecaa-eb0b-4cb0-8b27-6c6d8e3fd9c9",
        "meta": {
          "profile": [
            "http://hl7.org/fhir/uv/ips/StructureDefinition/Procedure-uv-ips"
          ]
        },
        "code": {
          "coding": [
            {
              "code": "63332003",
              "system": "http://snomed.info/sct",
              "display": "History AND physical examination (procedure)"
            }
          ],
          "text": "History AND physical examination"
        },
        "text": {
          "status": "generated",
          "div": "<div xmlns=\"http://www.w3.org/1999/xhtml\"><table class=\"hl7__ips\"><tr><td>History AND physical examination</td><td><span class=\"nb\">16-Aug-2016</span></td><td>-</td></tr></table></div>"
        },
        "status": "completed",
        "performedDateTime": "2016-08-16",
        "subject": {
          "reference": "urn:uuid:",
          "display": "Pauline Grenier"
        }
      }
    },
    {
      "fullUrl": "urn:uuid:555e6dc9-54b7-4363-a649-4e4e4bc41885",
      "resource": {
        "resourceType": "Procedure",
        "id": "555e6dc9-54b7-4363-a649-4e4e4bc41885",
        "meta": {
          "profile": [
            "http://hl7.org/fhir/uv/ips/StructureDefinition/Procedure-uv-ips"
          ]
        },
        "code": {
          "coding": [
            {
              "code": "315639002",
              "system": "http://snomed.info/sct",
              "display": "Initial patient assessment (procedure)"
            }
          ],
          "text": "Initial patient assessment"
        },
        "text": {
          "status": "generated",
          "div": "<div xmlns=\"http://www.w3.org/1999/xhtml\"><table class=\"hl7__ips\"><tr><td>Initial patient assessment</td><td><span class=\"nb\">16-Aug-2016</span></td><td>-</td></tr></table></div>"
        },
        "status": "completed",
        "performedDateTime": "2016-08-16",
        "subject": {
          "reference": "urn:uuid:",
          "display": "Pauline Grenier"
        }
      }
    },
    {
      "fullUrl": "urn:uuid:f864ba96-6578-45f8-9a34-2a4c3f0d2ace",
      "resource": {
        "resourceType": "Procedure",
        "id": "f864ba96-6578-45f8-9a34-2a4c3f0d2ace",
        "meta": {
          "profile": [
            "http://hl7.org/fhir/uv/ips/StructureDefinition/Procedure-uv-ips"
          ]
        },
        "code": {
          "coding": [
            {
              "code": "370789001",
              "system": "http://snomed.info/sct",
              "display": "Development of individualized plan of care (procedure)"
            }
          ],
          "text": "Development of individualized plan of care"
        },
        "text": {
          "status": "generated",
          "div": "<div xmlns=\"http://www.w3.org/1999/xhtml\"><table class=\"hl7__ips\"><tr><td>Development of individualized plan of care</td><td><span class=\"nb\">16-Aug-2016</span></td><td>-</td></tr></table></div>"
        },
        "status": "completed",
        "performedDateTime": "2016-08-16",
        "subject": {
          "reference": "urn:uuid:",
          "display": "Pauline Grenier"
        }
      }
    },
    {
      "fullUrl": "urn:uuid:a2e958de-54dd-4060-983a-4fb4b2fb9a64",
      "resource": {
        "resourceType": "AllergyIntolerance",
        "id": "a2e958de-54dd-4060-983a-4fb4b2fb9a64",
        "meta": {
          "profile": [
            "http://hl7.eu/fhir/eps/StructureDefinition/allergyIntolerance-eu-eps"
          ]
        },
        "code": {
          "text": ""
        },
        "clinicalStatus": {
          "coding": [
            {
              "code": "active",
              "system": "http://terminology.hl7.org/CodeSystem/allergyintolerance-clinical"
            }
          ]
        },
        "text": {
          "status": "generated",
          "div": "<div xmlns=\"http://www.w3.org/1999/xhtml\"><table class=\"hl7__ips\"><tr><th>Allergy/Intolerance</th><th>Onset Date</th><th>Status</th><th>Type</th><th>Reaction</th></tr><tr><td></td><td>?</td><td>active</td><td>?</td><td></td></tr></table></div>"
        },
        "verificationStatus": {
          "coding": [
            {
              "code": "confirmed",
              "system": "http://terminology.hl7.org/CodeSystem/allergyintolerance-verification"
            }
          ]
        },
        "patient": {
          "reference": "urn:uuid:803f1be8-8afe-417a-b928-3719031bbcd7",
          "display": "Pauline Grenier"
        },
        "_onsetDateTime": {
          "extension": [
            {
              "url": "http://hl7.org/fhir/StructureDefinition/data-absent-reason",
              "valueCode": "unknown"
            }
          ]
        }
      }
    },
    {
      "fullUrl": "urn:uuid:e3bd2444-0be8-454a-b7f7-a689709e01cf",
      "resource": {
        "resourceType": "CarePlan",
        "id": "e3bd2444-0be8-454a-b7f7-a689709e01cf",
        "category": [
          {
            "coding": [
              {
                "code": "assess-plan",
                "system": "http://terminology.hl7.org/CodeSystem/care-plan-category",
                "display": "Assessment and Plan"
              }
            ]
          }
        ],
        "activity": [
          {
            "detail": {
              "code": {
                "coding": [
                  {
                    "code": "443402002",
                    "system": "http://snomed.info/sct",
                    "display": "Lifestyle education regarding hypertension (procedure)"
                  }
                ]
              },
              "reasonCode": [
                {
                  "coding": [
                    {
                      "code": "59621000",
                      "system": "http://snomed.info/sct",
                      "display": "Essential hypertension (disorder)"
                    }
                  ]
                }
              ],
              "status": "unknown",
              "description": "Lifestyle education regarding hypertension",
              "kind": "Appointment"
            }
          }
        ],
        "period": {
          "start": "2016-01-25"
        },
        "goal": [
          {
            "reference": "urn:uuid:7259c288-f0a9-436e-bd3e-71f2c55a799f"
          },
          {
            "reference": "urn:uuid:e52a7bcb-84a2-440b-b8a7-93c93d31f82e"
          },
          {
            "reference": "urn:uuid:fa516960-0c4a-48ba-a1a7-b6bc77241a47"
          }
        ],
        "text": {
          "status": "generated",
          "div": "<div xmlns=\"http://www.w3.org/1999/xhtml\"><table class=\"hl7__ips first25\"><tr><th>Active Planned Care / Goals</th><th>Start Date</th><th>Reason</th></tr><tr><td>Lifestyle education regarding hypertension</td><td><span class=\"nb\">25-Jan-2016</span></td><td>Essential hypertension (disorder)</td></tr><tr><td><ul><li>Maintain blood pressure below 130/80 mmHg</li><li>Achieve at least 5% reduction in body weight</li><li>Engage in at least 150 minutes of moderate-intensity exercise per week</li></ul></td><td></td><td></td></tr></table></div>"
        },
        "status": "active",
        "intent": "plan",
        "subject": {
          "reference": "urn:uuid:803f1be8-8afe-417a-b928-3719031bbcd7",
          "display": "Pauline Grenier"
        }
      }
    },
    {
      "fullUrl": "urn:uuid:f8d8376b-a3c7-4852-80d5-9d9538dbe739",
      "resource": {
        "resourceType": "CarePlan",
        "id": "f8d8376b-a3c7-4852-80d5-9d9538dbe739",
        "category": [
          {
            "coding": [
              {
                "code": "assess-plan",
                "system": "http://terminology.hl7.org/CodeSystem/care-plan-category",
                "display": "Assessment and Plan"
              }
            ]
          }
        ],
        "activity": [
          {
            "detail": {
              "code": {
                "coding": [
                  {
                    "code": "698360004",
                    "system": "http://snomed.info/sct",
                    "display": "Diabetes self management plan (qualifier value)"
                  }
                ]
              },
              "reasonCode": [
                {
                  "coding": [
                    {
                      "code": "15777000",
                      "system": "http://snomed.info/sct",
                      "display": "Prediabetes"
                    }
                  ]
                }
              ],
              "status": "unknown",
              "description": "Diabetes self management plan",
              "kind": "Appointment"
            }
          }
        ],
        "period": {
          "start": "2014-01-20"
        },
        "goal": [
          {
            "reference": "urn:uuid:4c3a0805-f189-4ca3-90a2-393a19779a64"
          },
          {
            "reference": "urn:uuid:290f8e0b-8b91-4006-ac2d-0463d333a91e"
          },
          {
            "reference": "urn:uuid:a2344675-847f-4be1-b71a-f35cc35b369b"
          }
        ],
        "text": {
          "status": "generated",
          "div": "<div xmlns=\"http://www.w3.org/1999/xhtml\"><table class=\"hl7__ips first25\"><tr><th>Active Planned Care / Goals</th><th>Start Date</th><th>Reason</th></tr><tr><td>Diabetes self management plan</td><td><span class=\"nb\">20-Jan-2014</span></td><td>Prediabetes</td></tr><tr><td><ul><li>Achieve and maintain HbA1c below 5.7% through diabetes self-management.</li><li>Achieve and maintain a weight reduction of at least 5% from baseline to reduce diabetes risk.</li><li>Engage in at least 150 minutes of moderate-intensity physical activity per week.</li></ul></td><td></td><td></td></tr></table></div>"
        },
        "status": "active",
        "intent": "plan",
        "subject": {
          "reference": "urn:uuid:803f1be8-8afe-417a-b928-3719031bbcd7",
          "display": "Pauline Grenier"
        }
      }
    },
    {
      "fullUrl": "urn:uuid:7190a6a3-5166-4e20-a41c-2357499612d1",
      "resource": {
        "resourceType": "Observation",
        "id": "7190a6a3-5166-4e20-a41c-2357499612d1",
        "meta": {
          "profile": [
            "http://hl7.org/fhir/StructureDefinition/vitalsigns"
          ]
        },
        "category": [
          {
            "coding": [
              {
                "system": "http://terminology.hl7.org/CodeSystem/observation-category",
                "code": "vital-signs",
                "display": "Vital Signs"
              }
            ]
          }
        ],
        "valueQuantity": {
          "value": 178.3,
          "code": "cm",
          "unit": "cm"
        },
        "text": {
          "status": "generated",
          "div": "<div xmlns=\"http://www.w3.org/1999/xhtml\"><table class=\"hl7__ips\"><tr><th>Vital Sign</th><th>Date</th><th>Measurement</th></tr><tr><td>Body Height</td><td>17-Mar-2025</td><td>178.3 cm</td></tr></table></div>"
        },
        "status": "final",
        "code": {
          "coding": [
            {
              "code": "$8302-2",
              "system": "http://loinc.org",
              "display": "Body Height"
            }
          ]
        },
        "subject": {
          "reference": "urn:uuid:803f1be8-8afe-417a-b928-3719031bbcd7",
          "display": "Pauline Grenier"
        },
        "effectiveDateTime": "2025-03-17"
      }
    },
    {
      "fullUrl": "urn:uuid:b20652cd-e54e-4efd-9aed-063f53e7c29f",
      "resource": {
        "resourceType": "Observation",
        "id": "b20652cd-e54e-4efd-9aed-063f53e7c29f",
        "meta": {
          "profile": [
            "http://hl7.org/fhir/StructureDefinition/vitalsigns"
          ]
        },
        "category": [
          {
            "coding": [
              {
                "system": "http://terminology.hl7.org/CodeSystem/observation-category",
                "code": "vital-signs",
                "display": "Vital Signs"
              }
            ]
          }
        ],
        "valueQuantity": {
          "value": 2,
          "code": "{score}",
          "unit": "{score}"
        },
        "text": {
          "status": "generated",
          "div": "<div xmlns=\"http://www.w3.org/1999/xhtml\"><table class=\"hl7__ips\"><tr><th>Vital Sign</th><th>Date</th><th>Measurement</th></tr><tr><td>Pain severity - 0-10 verbal numeric rating [Score] - Reported</td><td>17-Mar-2025</td><td>2 {score}</td></tr></table></div>"
        },
        "status": "final",
        "code": {
          "coding": [
            {
              "code": "$72514-3",
              "system": "http://loinc.org",
              "display": "Pain severity - 0-10 verbal numeric rating [Score] - Reported"
            }
          ]
        },
        "subject": {
          "reference": "urn:uuid:803f1be8-8afe-417a-b928-3719031bbcd7",
          "display": "Pauline Grenier"
        },
        "effectiveDateTime": "2025-03-17"
      }
    },
    {
      "fullUrl": "urn:uuid:002a9597-e224-4ead-8d3a-9f29715a672a",
      "resource": {
        "resourceType": "Observation",
        "id": "002a9597-e224-4ead-8d3a-9f29715a672a",
        "meta": {
          "profile": [
            "http://hl7.org/fhir/StructureDefinition/vitalsigns"
          ]
        },
        "category": [
          {
            "coding": [
              {
                "system": "http://terminology.hl7.org/CodeSystem/observation-category",
                "code": "vital-signs",
                "display": "Vital Signs"
              }
            ]
          }
        ],
        "valueQuantity": {
          "value": 95.1,
          "code": "kg",
          "unit": "kg"
        },
        "text": {
          "status": "generated",
          "div": "<div xmlns=\"http://www.w3.org/1999/xhtml\"><table class=\"hl7__ips\"><tr><th>Vital Sign</th><th>Date</th><th>Measurement</th></tr><tr><td>Body Weight</td><td>17-Mar-2025</td><td>95.1 kg</td></tr></table></div>"
        },
        "status": "final",
        "code": {
          "coding": [
            {
              "code": "$29463-7",
              "system": "http://loinc.org",
              "display": "Body Weight"
            }
          ]
        },
        "subject": {
          "reference": "urn:uuid:803f1be8-8afe-417a-b928-3719031bbcd7",
          "display": "Pauline Grenier"
        },
        "effectiveDateTime": "2025-03-17"
      }
    },
    {
      "fullUrl": "urn:uuid:e839441c-1135-4c12-944d-8a015a92208f",
      "resource": {
        "resourceType": "Observation",
        "id": "e839441c-1135-4c12-944d-8a015a92208f",
        "meta": {
          "profile": [
            "http://hl7.org/fhir/StructureDefinition/vitalsigns"
          ]
        },
        "category": [
          {
            "coding": [
              {
                "system": "http://terminology.hl7.org/CodeSystem/observation-category",
                "code": "vital-signs",
                "display": "Vital Signs"
              }
            ]
          }
        ],
        "valueQuantity": {
          "value": 29.9,
          "code": "kg/m2",
          "unit": "kg/m2"
        },
        "text": {
          "status": "generated",
          "div": "<div xmlns=\"http://www.w3.org/1999/xhtml\"><table class=\"hl7__ips\"><tr><th>Vital Sign</th><th>Date</th><th>Measurement</th></tr><tr><td>Body mass index (BMI) [Ratio]</td><td>17-Mar-2025</td><td>29.9 kg/m2</td></tr></table></div>"
        },
        "status": "final",
        "code": {
          "coding": [
            {
              "code": "$39156-5",
              "system": "http://loinc.org",
              "display": "Body mass index (BMI) [Ratio]"
            }
          ]
        },
        "subject": {
          "reference": "urn:uuid:803f1be8-8afe-417a-b928-3719031bbcd7",
          "display": "Pauline Grenier"
        },
        "effectiveDateTime": "2025-03-17"
      }
    },
    {
      "fullUrl": "urn:uuid:b06dd9d5-afcb-4923-bacc-65293febef4b",
      "resource": {
        "resourceType": "Observation",
        "id": "b06dd9d5-afcb-4923-bacc-65293febef4b",
        "meta": {
          "profile": [
            "http://hl7.org/fhir/StructureDefinition/vitalsigns"
          ]
        },
        "category": [
          {
            "coding": [
              {
                "system": "http://terminology.hl7.org/CodeSystem/observation-category",
                "code": "vital-signs",
                "display": "Vital Signs"
              }
            ]
          }
        ],
        "valueQuantity": {
          "value": 84,
          "code": "mm[Hg]",
          "unit": "mm[Hg]"
        },
        "text": {
          "status": "generated",
          "div": "<div xmlns=\"http://www.w3.org/1999/xhtml\"><table class=\"hl7__ips\"><tr><th>Vital Sign</th><th>Date</th><th>Measurement</th></tr><tr><td>Diastolic Blood Pressure</td><td>17-Mar-2025</td><td>84 mm[Hg]</td></tr></table></div>"
        },
        "status": "final",
        "code": {
          "coding": [
            {
              "code": "$8462-4",
              "system": "http://loinc.org",
              "display": "Diastolic Blood Pressure"
            }
          ]
        },
        "subject": {
          "reference": "urn:uuid:803f1be8-8afe-417a-b928-3719031bbcd7",
          "display": "Pauline Grenier"
        },
        "effectiveDateTime": "2025-03-17"
      }
    },
    {
      "fullUrl": "urn:uuid:25d7a463-4711-4ebe-a805-0662f8b5403e",
      "resource": {
        "resourceType": "Observation",
        "id": "25d7a463-4711-4ebe-a805-0662f8b5403e",
        "meta": {
          "profile": [
            "http://hl7.org/fhir/StructureDefinition/vitalsigns"
          ]
        },
        "category": [
          {
            "coding": [
              {
                "system": "http://terminology.hl7.org/CodeSystem/observation-category",
                "code": "vital-signs",
                "display": "Vital Signs"
              }
            ]
          }
        ],
        "valueQuantity": {
          "value": 145,
          "code": "mm[Hg]",
          "unit": "mm[Hg]"
        },
        "text": {
          "status": "generated",
          "div": "<div xmlns=\"http://www.w3.org/1999/xhtml\"><table class=\"hl7__ips\"><tr><th>Vital Sign</th><th>Date</th><th>Measurement</th></tr><tr><td>Systolic Blood Pressure</td><td>17-Mar-2025</td><td>145 mm[Hg]</td></tr></table></div>"
        },
        "status": "final",
        "code": {
          "coding": [
            {
              "code": "$8480-6",
              "system": "http://loinc.org",
              "display": "Systolic Blood Pressure"
            }
          ]
        },
        "subject": {
          "reference": "urn:uuid:803f1be8-8afe-417a-b928-3719031bbcd7",
          "display": "Pauline Grenier"
        },
        "effectiveDateTime": "2025-03-17"
      }
    },
    {
      "fullUrl": "urn:uuid:a5db46f1-56e2-439f-bb6e-e331f5bb73d3",
      "resource": {
        "resourceType": "Observation",
        "id": "a5db46f1-56e2-439f-bb6e-e331f5bb73d3",
        "meta": {
          "profile": [
            "http://hl7.org/fhir/StructureDefinition/vitalsigns"
          ]
        },
        "category": [
          {
            "coding": [
              {
                "system": "http://terminology.hl7.org/CodeSystem/observation-category",
                "code": "vital-signs",
                "display": "Vital Signs"
              }
            ]
          }
        ],
        "valueQuantity": {
          "value": 86,
          "code": "/min",
          "unit": "/min"
        },
        "text": {
          "status": "generated",
          "div": "<div xmlns=\"http://www.w3.org/1999/xhtml\"><table class=\"hl7__ips\"><tr><th>Vital Sign</th><th>Date</th><th>Measurement</th></tr><tr><td>Heart rate</td><td>17-Mar-2025</td><td>86 /min</td></tr></table></div>"
        },
        "status": "final",
        "code": {
          "coding": [
            {
              "code": "$8867-4",
              "system": "http://loinc.org",
              "display": "Heart rate"
            }
          ]
        },
        "subject": {
          "reference": "urn:uuid:803f1be8-8afe-417a-b928-3719031bbcd7",
          "display": "Pauline Grenier"
        },
        "effectiveDateTime": "2025-03-17"
      }
    },
    {
      "fullUrl": "urn:uuid:dc63464c-640a-4b17-b135-1e3b95a9628c",
      "resource": {
        "resourceType": "Observation",
        "id": "dc63464c-640a-4b17-b135-1e3b95a9628c",
        "meta": {
          "profile": [
            "http://hl7.org/fhir/StructureDefinition/vitalsigns"
          ]
        },
        "category": [
          {
            "coding": [
              {
                "system": "http://terminology.hl7.org/CodeSystem/observation-category",
                "code": "vital-signs",
                "display": "Vital Signs"
              }
            ]
          }
        ],
        "valueQuantity": {
          "value": 14,
          "code": "/min",
          "unit": "/min"
        },
        "text": {
          "status": "generated",
          "div": "<div xmlns=\"http://www.w3.org/1999/xhtml\"><table class=\"hl7__ips\"><tr><th>Vital Sign</th><th>Date</th><th>Measurement</th></tr><tr><td>Respiratory rate</td><td>17-Mar-2025</td><td>14 /min</td></tr></table></div>"
        },
        "status": "final",
        "code": {
          "coding": [
            {
              "code": "$9279-1",
              "system": "http://loinc.org",
              "display": "Respiratory rate"
            }
          ]
        },
        "subject": {
          "reference": "urn:uuid:803f1be8-8afe-417a-b928-3719031bbcd7",
          "display": "Pauline Grenier"
        },
        "effectiveDateTime": "2025-03-17"
      }
    },
    {
      "fullUrl": "urn:uuid:c4744b2c-69f3-4f2b-9372-2d29d2ba6873",
      "resource": {
        "resourceType": "Observation",
        "id": "c4744b2c-69f3-4f2b-9372-2d29d2ba6873",
        "meta": {
          "profile": [
            "http://hl7.org/fhir/StructureDefinition/vitalsigns"
          ]
        },
        "category": [
          {
            "coding": [
              {
                "system": "http://terminology.hl7.org/CodeSystem/observation-category",
                "code": "vital-signs",
                "display": "Vital Signs"
              }
            ]
          }
        ],
        "valueQuantity": {
          "value": 178.3,
          "code": "cm",
          "unit": "cm"
        },
        "text": {
          "status": "generated",
          "div": "<div xmlns=\"http://www.w3.org/1999/xhtml\"><table class=\"hl7__ips\"><tr><th>Vital Sign</th><th>Date</th><th>Measurement</th></tr><tr><td>Body Height</td><td>11-Mar-2024</td><td>178.3 cm</td></tr></table></div>"
        },
        "status": "final",
        "code": {
          "coding": [
            {
              "code": "$8302-2",
              "system": "http://loinc.org",
              "display": "Body Height"
            }
          ]
        },
        "subject": {
          "reference": "urn:uuid:803f1be8-8afe-417a-b928-3719031bbcd7",
          "display": "Pauline Grenier"
        },
        "effectiveDateTime": "2024-03-11"
      }
    },
    {
      "fullUrl": "urn:uuid:f814f01f-6231-445a-83bb-58dbf3d8a499",
      "resource": {
        "resourceType": "Observation",
        "id": "f814f01f-6231-445a-83bb-58dbf3d8a499",
        "meta": {
          "profile": [
            "http://hl7.org/fhir/StructureDefinition/vitalsigns"
          ]
        },
        "category": [
          {
            "coding": [
              {
                "system": "http://terminology.hl7.org/CodeSystem/observation-category",
                "code": "vital-signs",
                "display": "Vital Signs"
              }
            ]
          }
        ],
        "valueQuantity": {
          "value": 3,
          "code": "{score}",
          "unit": "{score}"
        },
        "text": {
          "status": "generated",
          "div": "<div xmlns=\"http://www.w3.org/1999/xhtml\"><table class=\"hl7__ips\"><tr><th>Vital Sign</th><th>Date</th><th>Measurement</th></tr><tr><td>Pain severity - 0-10 verbal numeric rating [Score] - Reported</td><td>11-Mar-2024</td><td>3 {score}</td></tr></table></div>"
        },
        "status": "final",
        "code": {
          "coding": [
            {
              "code": "$72514-3",
              "system": "http://loinc.org",
              "display": "Pain severity - 0-10 verbal numeric rating [Score] - Reported"
            }
          ]
        },
        "subject": {
          "reference": "urn:uuid:803f1be8-8afe-417a-b928-3719031bbcd7",
          "display": "Pauline Grenier"
        },
        "effectiveDateTime": "2024-03-11"
      }
    },
    {
      "fullUrl": "urn:uuid:00c8f3c7-9cc7-44d1-8a73-7aad7bbeb22d",
      "resource": {
        "resourceType": "Observation",
        "id": "00c8f3c7-9cc7-44d1-8a73-7aad7bbeb22d",
        "meta": {
          "profile": [
            "http://hl7.org/fhir/StructureDefinition/vitalsigns"
          ]
        },
        "category": [
          {
            "coding": [
              {
                "system": "http://terminology.hl7.org/CodeSystem/observation-category",
                "code": "vital-signs",
                "display": "Vital Signs"
              }
            ]
          }
        ],
        "valueQuantity": {
          "value": 96,
          "code": "kg",
          "unit": "kg"
        },
        "text": {
          "status": "generated",
          "div": "<div xmlns=\"http://www.w3.org/1999/xhtml\"><table class=\"hl7__ips\"><tr><th>Vital Sign</th><th>Date</th><th>Measurement</th></tr><tr><td>Body Weight</td><td>11-Mar-2024</td><td>96 kg</td></tr></table></div>"
        },
        "status": "final",
        "code": {
          "coding": [
            {
              "code": "$29463-7",
              "system": "http://loinc.org",
              "display": "Body Weight"
            }
          ]
        },
        "subject": {
          "reference": "urn:uuid:803f1be8-8afe-417a-b928-3719031bbcd7",
          "display": "Pauline Grenier"
        },
        "effectiveDateTime": "2024-03-11"
      }
    },
    {
      "fullUrl": "urn:uuid:83b49ee3-e04f-4517-8692-d3d92b7a82c8",
      "resource": {
        "resourceType": "Observation",
        "id": "83b49ee3-e04f-4517-8692-d3d92b7a82c8",
        "meta": {
          "profile": [
            "http://hl7.org/fhir/StructureDefinition/vitalsigns"
          ]
        },
        "category": [
          {
            "coding": [
              {
                "system": "http://terminology.hl7.org/CodeSystem/observation-category",
                "code": "vital-signs",
                "display": "Vital Signs"
              }
            ]
          }
        ],
        "valueQuantity": {
          "value": 30.2,
          "code": "kg/m2",
          "unit": "kg/m2"
        },
        "text": {
          "status": "generated",
          "div": "<div xmlns=\"http://www.w3.org/1999/xhtml\"><table class=\"hl7__ips\"><tr><th>Vital Sign</th><th>Date</th><th>Measurement</th></tr><tr><td>Body mass index (BMI) [Ratio]</td><td>11-Mar-2024</td><td>30.2 kg/m2</td></tr></table></div>"
        },
        "status": "final",
        "code": {
          "coding": [
            {
              "code": "$39156-5",
              "system": "http://loinc.org",
              "display": "Body mass index (BMI) [Ratio]"
            }
          ]
        },
        "subject": {
          "reference": "urn:uuid:803f1be8-8afe-417a-b928-3719031bbcd7",
          "display": "Pauline Grenier"
        },
        "effectiveDateTime": "2024-03-11"
      }
    },
    {
      "fullUrl": "urn:uuid:f5f02257-e2fa-4c34-8c0b-6408d6fa3aef",
      "resource": {
        "resourceType": "Observation",
        "id": "f5f02257-e2fa-4c34-8c0b-6408d6fa3aef",
        "meta": {
          "profile": [
            "http://hl7.org/fhir/StructureDefinition/vitalsigns"
          ]
        },
        "category": [
          {
            "coding": [
              {
                "system": "http://terminology.hl7.org/CodeSystem/observation-category",
                "code": "vital-signs",
                "display": "Vital Signs"
              }
            ]
          }
        ],
        "valueQuantity": {
          "value": 90,
          "code": "mm[Hg]",
          "unit": "mm[Hg]"
        },
        "text": {
          "status": "generated",
          "div": "<div xmlns=\"http://www.w3.org/1999/xhtml\"><table class=\"hl7__ips\"><tr><th>Vital Sign</th><th>Date</th><th>Measurement</th></tr><tr><td>Diastolic Blood Pressure</td><td>11-Mar-2024</td><td>90 mm[Hg]</td></tr></table></div>"
        },
        "status": "final",
        "code": {
          "coding": [
            {
              "code": "$8462-4",
              "system": "http://loinc.org",
              "display": "Diastolic Blood Pressure"
            }
          ]
        },
        "subject": {
          "reference": "urn:uuid:803f1be8-8afe-417a-b928-3719031bbcd7",
          "display": "Pauline Grenier"
        },
        "effectiveDateTime": "2024-03-11"
      }
    },
    {
      "fullUrl": "urn:uuid:0533b08d-553f-4b73-b9bf-555f88452042",
      "resource": {
        "resourceType": "Observation",
        "id": "0533b08d-553f-4b73-b9bf-555f88452042",
        "meta": {
          "profile": [
            "http://hl7.org/fhir/StructureDefinition/vitalsigns"
          ]
        },
        "category": [
          {
            "coding": [
              {
                "system": "http://terminology.hl7.org/CodeSystem/observation-category",
                "code": "vital-signs",
                "display": "Vital Signs"
              }
            ]
          }
        ],
        "valueQuantity": {
          "value": 141,
          "code": "mm[Hg]",
          "unit": "mm[Hg]"
        },
        "text": {
          "status": "generated",
          "div": "<div xmlns=\"http://www.w3.org/1999/xhtml\"><table class=\"hl7__ips\"><tr><th>Vital Sign</th><th>Date</th><th>Measurement</th></tr><tr><td>Systolic Blood Pressure</td><td>11-Mar-2024</td><td>141 mm[Hg]</td></tr></table></div>"
        },
        "status": "final",
        "code": {
          "coding": [
            {
              "code": "$8480-6",
              "system": "http://loinc.org",
              "display": "Systolic Blood Pressure"
            }
          ]
        },
        "subject": {
          "reference": "urn:uuid:803f1be8-8afe-417a-b928-3719031bbcd7",
          "display": "Pauline Grenier"
        },
        "effectiveDateTime": "2024-03-11"
      }
    },
    {
      "fullUrl": "urn:uuid:b782215f-bd8c-4d7e-bf89-da9354d4934b",
      "resource": {
        "resourceType": "Observation",
        "id": "b782215f-bd8c-4d7e-bf89-da9354d4934b",
        "meta": {
          "profile": [
            "http://hl7.org/fhir/StructureDefinition/vitalsigns"
          ]
        },
        "category": [
          {
            "coding": [
              {
                "system": "http://terminology.hl7.org/CodeSystem/observation-category",
                "code": "vital-signs",
                "display": "Vital Signs"
              }
            ]
          }
        ],
        "valueQuantity": {
          "value": 61,
          "code": "/min",
          "unit": "/min"
        },
        "text": {
          "status": "generated",
          "div": "<div xmlns=\"http://www.w3.org/1999/xhtml\"><table class=\"hl7__ips\"><tr><th>Vital Sign</th><th>Date</th><th>Measurement</th></tr><tr><td>Heart rate</td><td>11-Mar-2024</td><td>61 /min</td></tr></table></div>"
        },
        "status": "final",
        "code": {
          "coding": [
            {
              "code": "$8867-4",
              "system": "http://loinc.org",
              "display": "Heart rate"
            }
          ]
        },
        "subject": {
          "reference": "urn:uuid:803f1be8-8afe-417a-b928-3719031bbcd7",
          "display": "Pauline Grenier"
        },
        "effectiveDateTime": "2024-03-11"
      }
    },
    {
      "fullUrl": "urn:uuid:582ada1c-469d-4ee7-87e2-f2fa034e5b96",
      "resource": {
        "resourceType": "Observation",
        "id": "582ada1c-469d-4ee7-87e2-f2fa034e5b96",
        "meta": {
          "profile": [
            "http://hl7.org/fhir/StructureDefinition/vitalsigns"
          ]
        },
        "category": [
          {
            "coding": [
              {
                "system": "http://terminology.hl7.org/CodeSystem/observation-category",
                "code": "vital-signs",
                "display": "Vital Signs"
              }
            ]
          }
        ],
        "valueQuantity": {
          "value": 15,
          "code": "/min",
          "unit": "/min"
        },
        "text": {
          "status": "generated",
          "div": "<div xmlns=\"http://www.w3.org/1999/xhtml\"><table class=\"hl7__ips\"><tr><th>Vital Sign</th><th>Date</th><th>Measurement</th></tr><tr><td>Respiratory rate</td><td>11-Mar-2024</td><td>15 /min</td></tr></table></div>"
        },
        "status": "final",
        "code": {
          "coding": [
            {
              "code": "$9279-1",
              "system": "http://loinc.org",
              "display": "Respiratory rate"
            }
          ]
        },
        "subject": {
          "reference": "urn:uuid:803f1be8-8afe-417a-b928-3719031bbcd7",
          "display": "Pauline Grenier"
        },
        "effectiveDateTime": "2024-03-11"
      }
    },
    {
      "fullUrl": "urn:uuid:6f33ecd4-c418-4e1b-8457-8766a7905d14",
      "resource": {
        "resourceType": "Observation",
        "id": "6f33ecd4-c418-4e1b-8457-8766a7905d14",
        "meta": {
          "profile": [
            "http://hl7.eu/fhir/laboratory/StructureDefinition/Observation-resultslab-eu-lab"
          ]
        },
        "performer": [
          {
            "display": "The Central European Lab"
          }
        ],
        "category": [
          {
            "coding": [
              {
                "system": "http://terminology.hl7.org/CodeSystem/observation-category",
                "code": "laboratory"
              }
            ]
          }
        ],
        "code": {
          "coding": [
            {
              "code": "4548-4",
              "system": "http://loinc.org",
              "display": "Hemoglobin A1c/Hemoglobin.total in Blood"
            }
          ],
          "text": "Hemoglobin A1c/Hemoglobin.total in Blood"
        },
        "valueQuantity": {
          "system": "http://unitsofmeasure.org",
          "value": 6.3,
          "unit": "%",
          "code": "%"
        },
        "referenceRange": [
          {
            "low": {
              "value": 4.8,
              "code": "%",
              "system": "http://unitsofmeasure.org"
            }
          },
          {
            "high": {
              "value": 5.7,
              "code": "%",
              "system": "http://unitsofmeasure.org"
            }
          }
        ],
        "interpretation": [
          {
            "coding": [
              {
                "code": "H",
                "system": "http://terminology.hl7.org/CodeSystem/v3-ObservationInterpretation",
                "display": "High"
              }
            ]
          }
        ],
        "text": {
          "status": "generated",
          "div": "<div xmlns=\"http://www.w3.org/1999/xhtml\"><table class=\"hl7__eu__lab__report\"><tr><th>Test</th><th>17-Mar-2025</th><th>Reference&#xA0;Range</th><th>Unit</th></tr><tr><td>Hemoglobin A1c/Hemoglobin.total in Blood</td><td>6.3</td><td>4.8 - 5.7</td><td>H</td><td>%</td></tr></table></div>"
        },
        "status": "final",
        "subject": {
          "reference": "urn:uuid:803f1be8-8afe-417a-b928-3719031bbcd7",
          "display": "Pauline Grenier"
        },
        "effectiveDateTime": "2025-03-17T11:54:46Z"
      }
    },
    {
      "fullUrl": "urn:uuid:ea12ca7e-8fae-42c0-985e-7d0d2eb707ca",
      "resource": {
        "resourceType": "Observation",
        "id": "ea12ca7e-8fae-42c0-985e-7d0d2eb707ca",
        "meta": {
          "profile": [
            "http://hl7.eu/fhir/laboratory/StructureDefinition/Observation-resultslab-eu-lab"
          ]
        },
        "performer": [
          {
            "display": "The Central European Lab"
          }
        ],
        "category": [
          {
            "coding": [
              {
                "system": "http://terminology.hl7.org/CodeSystem/observation-category",
                "code": "laboratory"
              }
            ]
          }
        ],
        "code": {
          "coding": [
            {
              "code": "2339-0",
              "system": "http://loinc.org",
              "display": "Glucose [Mass/volume] in Blood"
            }
          ],
          "text": "Glucose [Mass/volume] in Blood"
        },
        "valueQuantity": {
          "system": "http://unitsofmeasure.org",
          "value": 99.8,
          "unit": "mg/dL",
          "code": "mg/dL"
        },
        "referenceRange": [
          {
            "low": {
              "value": 70,
              "code": "mg/dL",
              "system": "http://unitsofmeasure.org"
            }
          },
          {
            "high": {
              "value": 99,
              "code": "mg/dL",
              "system": "http://unitsofmeasure.org"
            }
          }
        ],
        "interpretation": [
          {
            "coding": [
              {
                "code": "H",
                "system": "http://terminology.hl7.org/CodeSystem/v3-ObservationInterpretation",
                "display": "High"
              }
            ]
          }
        ],
        "text": {
          "status": "generated",
          "div": "<div xmlns=\"http://www.w3.org/1999/xhtml\"><table class=\"hl7__eu__lab__report\"><tr><th>Test</th><th>17-Mar-2025</th><th>Reference&#xA0;Range</th><th>Unit</th></tr><tr><td>Glucose [Mass/volume] in Blood</td><td>99.8</td><td>70 - 99</td><td>H</td><td>mg/dL</td></tr></table></div>"
        },
        "status": "final",
        "subject": {
          "reference": "urn:uuid:803f1be8-8afe-417a-b928-3719031bbcd7",
          "display": "Pauline Grenier"
        },
        "effectiveDateTime": "2025-03-17T11:54:46Z"
      }
    },
    {
      "fullUrl": "urn:uuid:fba2c804-1960-4515-94cc-98fe440f8137",
      "resource": {
        "resourceType": "Observation",
        "id": "fba2c804-1960-4515-94cc-98fe440f8137",
        "meta": {
          "profile": [
            "http://hl7.eu/fhir/laboratory/StructureDefinition/Observation-resultslab-eu-lab"
          ]
        },
        "performer": [
          {
            "display": "The Central European Lab"
          }
        ],
        "category": [
          {
            "coding": [
              {
                "system": "http://terminology.hl7.org/CodeSystem/observation-category",
                "code": "laboratory"
              }
            ]
          }
        ],
        "code": {
          "coding": [
            {
              "code": "6299-2",
              "system": "http://loinc.org",
              "display": "Urea nitrogen [Mass/volume] in Blood"
            }
          ],
          "text": "Urea nitrogen [Mass/volume] in Blood"
        },
        "valueQuantity": {
          "system": "http://unitsofmeasure.org",
          "value": 17.4,
          "unit": "mg/dL",
          "code": "mg/dL"
        },
        "referenceRange": [
          {
            "low": {
              "value": 7,
              "code": "mg/dL",
              "system": "http://unitsofmeasure.org"
            }
          },
          {
            "high": {
              "value": 20,
              "code": "mg/dL",
              "system": "http://unitsofmeasure.org"
            }
          }
        ],
        "text": {
          "status": "generated",
          "div": "<div xmlns=\"http://www.w3.org/1999/xhtml\"><table class=\"hl7__eu__lab__report\"><tr><th>Test</th><th>17-Mar-2025</th><th>Reference&#xA0;Range</th><th>Unit</th></tr><tr><td>Urea nitrogen [Mass/volume] in Blood</td><td>17.4</td><td>7 - 20</td><td></td><td>mg/dL</td></tr></table></div>"
        },
        "status": "final",
        "subject": {
          "reference": "urn:uuid:803f1be8-8afe-417a-b928-3719031bbcd7",
          "display": "Pauline Grenier"
        },
        "effectiveDateTime": "2025-03-17T11:54:46Z"
      }
    },
    {
      "fullUrl": "urn:uuid:950b8757-5c86-45bb-9d3e-08778b775d89",
      "resource": {
        "resourceType": "Observation",
        "id": "950b8757-5c86-45bb-9d3e-08778b775d89",
        "meta": {
          "profile": [
            "http://hl7.eu/fhir/laboratory/StructureDefinition/Observation-resultslab-eu-lab"
          ]
        },
        "performer": [
          {
            "display": "The Central European Lab"
          }
        ],
        "category": [
          {
            "coding": [
              {
                "system": "http://terminology.hl7.org/CodeSystem/observation-category",
                "code": "laboratory"
              }
            ]
          }
        ],
        "code": {
          "coding": [
            {
              "code": "38483-4",
              "system": "http://loinc.org",
              "display": "Creatinine [Mass/volume] in Blood"
            }
          ],
          "text": "Creatinine [Mass/volume] in Blood"
        },
        "valueQuantity": {
          "system": "http://unitsofmeasure.org",
          "value": 1,
          "unit": "mg/dL",
          "code": "mg/dL"
        },
        "referenceRange": [
          {
            "low": {
              "value": 0.6,
              "code": "mg/dL",
              "system": "http://unitsofmeasure.org"
            }
          },
          {
            "high": {
              "value": 1.1,
              "code": "mg/dL",
              "system": "http://unitsofmeasure.org"
            }
          }
        ],
        "text": {
          "status": "generated",
          "div": "<div xmlns=\"http://www.w3.org/1999/xhtml\"><table class=\"hl7__eu__lab__report\"><tr><th>Test</th><th>17-Mar-2025</th><th>Reference&#xA0;Range</th><th>Unit</th></tr><tr><td>Creatinine [Mass/volume] in Blood</td><td>1.0</td><td>0.6 - 1.1</td><td></td><td>mg/dL</td></tr></table></div>"
        },
        "status": "final",
        "subject": {
          "reference": "urn:uuid:803f1be8-8afe-417a-b928-3719031bbcd7",
          "display": "Pauline Grenier"
        },
        "effectiveDateTime": "2025-03-17T11:54:46Z"
      }
    },
    {
      "fullUrl": "urn:uuid:b49f8279-6022-4442-8ec6-694a453d3d2e",
      "resource": {
        "resourceType": "Observation",
        "id": "b49f8279-6022-4442-8ec6-694a453d3d2e",
        "meta": {
          "profile": [
            "http://hl7.eu/fhir/laboratory/StructureDefinition/Observation-resultslab-eu-lab"
          ]
        },
        "performer": [
          {
            "display": "The Central European Lab"
          }
        ],
        "category": [
          {
            "coding": [
              {
                "system": "http://terminology.hl7.org/CodeSystem/observation-category",
                "code": "laboratory"
              }
            ]
          }
        ],
        "code": {
          "coding": [
            {
              "code": "49765-1",
              "system": "http://loinc.org",
              "display": "Calcium [Mass/volume] in Blood"
            }
          ],
          "text": "Calcium [Mass/volume] in Blood"
        },
        "valueQuantity": {
          "system": "http://unitsofmeasure.org",
          "value": 9.3,
          "unit": "mg/dL",
          "code": "mg/dL"
        },
        "referenceRange": [
          {
            "low": {
              "value": 8.5,
              "code": "mg/dL",
              "system": "http://unitsofmeasure.org"
            }
          },
          {
            "high": {
              "value": 10.5,
              "code": "mg/dL",
              "system": "http://unitsofmeasure.org"
            }
          }
        ],
        "text": {
          "status": "generated",
          "div": "<div xmlns=\"http://www.w3.org/1999/xhtml\"><table class=\"hl7__eu__lab__report\"><tr><th>Test</th><th>17-Mar-2025</th><th>Reference&#xA0;Range</th><th>Unit</th></tr><tr><td>Calcium [Mass/volume] in Blood</td><td>9.3</td><td>8.5 - 10.5</td><td></td><td>mg/dL</td></tr></table></div>"
        },
        "status": "final",
        "subject": {
          "reference": "urn:uuid:803f1be8-8afe-417a-b928-3719031bbcd7",
          "display": "Pauline Grenier"
        },
        "effectiveDateTime": "2025-03-17T11:54:46Z"
      }
    },
    {
      "fullUrl": "urn:uuid:37daea92-be43-4d4a-8509-fdf9593c8932",
      "resource": {
        "resourceType": "Observation",
        "id": "37daea92-be43-4d4a-8509-fdf9593c8932",
        "meta": {
          "profile": [
            "http://hl7.eu/fhir/laboratory/StructureDefinition/Observation-resultslab-eu-lab"
          ]
        },
        "performer": [
          {
            "display": "The Central European Lab"
          }
        ],
        "category": [
          {
            "coding": [
              {
                "system": "http://terminology.hl7.org/CodeSystem/observation-category",
                "code": "laboratory"
              }
            ]
          }
        ],
        "code": {
          "coding": [
            {
              "code": "2947-0",
              "system": "http://loinc.org",
              "display": "Sodium [Moles/volume] in Blood"
            }
          ],
          "text": "Sodium [Moles/volume] in Blood"
        },
        "valueQuantity": {
          "system": "http://unitsofmeasure.org",
          "value": 137.4,
          "unit": "mmol/L",
          "code": "mmol/L"
        },
        "referenceRange": [
          {
            "low": {
              "value": 135,
              "code": "mmol/L",
              "system": "http://unitsofmeasure.org"
            }
          },
          {
            "high": {
              "value": 145,
              "code": "mmol/L",
              "system": "http://unitsofmeasure.org"
            }
          }
        ],
        "text": {
          "status": "generated",
          "div": "<div xmlns=\"http://www.w3.org/1999/xhtml\"><table class=\"hl7__eu__lab__report\"><tr><th>Test</th><th>17-Mar-2025</th><th>Reference&#xA0;Range</th><th>Unit</th></tr><tr><td>Sodium [Moles/volume] in Blood</td><td>137.4</td><td>135 - 145</td><td></td><td>mmol/L</td></tr></table></div>"
        },
        "status": "final",
        "subject": {
          "reference": "urn:uuid:803f1be8-8afe-417a-b928-3719031bbcd7",
          "display": "Pauline Grenier"
        },
        "effectiveDateTime": "2025-03-17T11:54:46Z"
      }
    },
    {
      "fullUrl": "urn:uuid:512f5a91-8a09-4e13-a27a-330c653ec94f",
      "resource": {
        "resourceType": "Observation",
        "id": "512f5a91-8a09-4e13-a27a-330c653ec94f",
        "meta": {
          "profile": [
            "http://hl7.eu/fhir/laboratory/StructureDefinition/Observation-resultslab-eu-lab"
          ]
        },
        "performer": [
          {
            "display": "The Central European Lab"
          }
        ],
        "category": [
          {
            "coding": [
              {
                "system": "http://terminology.hl7.org/CodeSystem/observation-category",
                "code": "laboratory"
              }
            ]
          }
        ],
        "code": {
          "coding": [
            {
              "code": "6298-4",
              "system": "http://loinc.org",
              "display": "Potassium [Moles/volume] in Blood"
            }
          ],
          "text": "Potassium [Moles/volume] in Blood"
        },
        "valueQuantity": {
          "system": "http://unitsofmeasure.org",
          "value": 4.5,
          "unit": "mmol/L",
          "code": "mmol/L"
        },
        "referenceRange": [
          {
            "low": {
              "value": 3.5,
              "code": "mmol/L",
              "system": "http://unitsofmeasure.org"
            }
          },
          {
            "high": {
              "value": 5.3,
              "code": "mmol/L",
              "system": "http://unitsofmeasure.org"
            }
          }
        ],
        "text": {
          "status": "generated",
          "div": "<div xmlns=\"http://www.w3.org/1999/xhtml\"><table class=\"hl7__eu__lab__report\"><tr><th>Test</th><th>17-Mar-2025</th><th>Reference&#xA0;Range</th><th>Unit</th></tr><tr><td>Potassium [Moles/volume] in Blood</td><td>4.5</td><td>3.5 - 5.3</td><td></td><td>mmol/L</td></tr></table></div>"
        },
        "status": "final",
        "subject": {
          "reference": "urn:uuid:803f1be8-8afe-417a-b928-3719031bbcd7",
          "display": "Pauline Grenier"
        },
        "effectiveDateTime": "2025-03-17T11:54:46Z"
      }
    },
    {
      "fullUrl": "urn:uuid:8fb76fdc-4ba5-41d6-905f-49627cdf087b",
      "resource": {
        "resourceType": "Observation",
        "id": "8fb76fdc-4ba5-41d6-905f-49627cdf087b",
        "meta": {
          "profile": [
            "http://hl7.eu/fhir/laboratory/StructureDefinition/Observation-resultslab-eu-lab"
          ]
        },
        "performer": [
          {
            "display": "The Central European Lab"
          }
        ],
        "category": [
          {
            "coding": [
              {
                "system": "http://terminology.hl7.org/CodeSystem/observation-category",
                "code": "laboratory"
              }
            ]
          }
        ],
        "code": {
          "coding": [
            {
              "code": "2069-3",
              "system": "http://loinc.org",
              "display": "Chloride [Moles/volume] in Blood"
            }
          ],
          "text": "Chloride [Moles/volume] in Blood"
        },
        "valueQuantity": {
          "system": "http://unitsofmeasure.org",
          "value": 103.5,
          "unit": "mmol/L",
          "code": "mmol/L"
        },
        "referenceRange": [
          {
            "low": {
              "value": 98,
              "code": "mmol/L",
              "system": "http://unitsofmeasure.org"
            }
          },
          {
            "high": {
              "value": 114,
              "code": "mmol/L",
              "system": "http://unitsofmeasure.org"
            }
          }
        ],
        "text": {
          "status": "generated",
          "div": "<div xmlns=\"http://www.w3.org/1999/xhtml\"><table class=\"hl7__eu__lab__report\"><tr><th>Test</th><th>17-Mar-2025</th><th>Reference&#xA0;Range</th><th>Unit</th></tr><tr><td>Chloride [Moles/volume] in Blood</td><td>103.5</td><td>98 - 114</td><td></td><td>mmol/L</td></tr></table></div>"
        },
        "status": "final",
        "subject": {
          "reference": "urn:uuid:803f1be8-8afe-417a-b928-3719031bbcd7",
          "display": "Pauline Grenier"
        },
        "effectiveDateTime": "2025-03-17T11:54:46Z"
      }
    },
    {
      "fullUrl": "urn:uuid:1bb628bf-2edc-4ea2-88af-0317e767fbdc",
      "resource": {
        "resourceType": "Observation",
        "id": "1bb628bf-2edc-4ea2-88af-0317e767fbdc",
        "meta": {
          "profile": [
            "http://hl7.eu/fhir/laboratory/StructureDefinition/Observation-resultslab-eu-lab"
          ]
        },
        "performer": [
          {
            "display": "The Central European Lab"
          }
        ],
        "category": [
          {
            "coding": [
              {
                "system": "http://terminology.hl7.org/CodeSystem/observation-category",
                "code": "laboratory"
              }
            ]
          }
        ],
        "code": {
          "coding": [
            {
              "code": "20565-8",
              "system": "http://loinc.org",
              "display": "Carbon dioxide, total [Moles/volume] in Blood"
            }
          ],
          "text": "Carbon dioxide, total [Moles/volume] in Blood"
        },
        "valueQuantity": {
          "system": "http://unitsofmeasure.org",
          "value": 22.7,
          "unit": "mmol/L",
          "code": "mmol/L"
        },
        "referenceRange": [
          {
            "low": {
              "value": 22,
              "code": "mmol/L",
              "system": "http://unitsofmeasure.org"
            }
          },
          {
            "high": {
              "value": 29,
              "code": "mmol/L",
              "system": "http://unitsofmeasure.org"
            }
          }
        ],
        "text": {
          "status": "generated",
          "div": "<div xmlns=\"http://www.w3.org/1999/xhtml\"><table class=\"hl7__eu__lab__report\"><tr><th>Test</th><th>17-Mar-2025</th><th>Reference&#xA0;Range</th><th>Unit</th></tr><tr><td>Carbon dioxide, total [Moles/volume] in Blood</td><td>22.7</td><td>22 - 29</td><td></td><td>mmol/L</td></tr></table></div>"
        },
        "status": "final",
        "subject": {
          "reference": "urn:uuid:803f1be8-8afe-417a-b928-3719031bbcd7",
          "display": "Pauline Grenier"
        },
        "effectiveDateTime": "2025-03-17T11:54:46Z"
      }
    },
    {
      "fullUrl": "urn:uuid:49406aed-63bd-4e52-a41d-2995c8868819",
      "resource": {
        "resourceType": "DeviceUseStatement",
        "id": "49406aed-63bd-4e52-a41d-2995c8868819",
        "meta": {
          "profile": [
            "http://hl7.eu/fhir/eps/StructureDefinition/deviceUseStatement-eu-eps"
          ]
        },
        "timingPeriod": {
          "start": "2014-01-20"
        },
        "text": {
          "status": "generated",
          "div": "<div xmlns=\"http://www.w3.org/1999/xhtml\"><table class=\"hl7__ips\"><tr><td>Blood glucose meter (physical object)</td><td><span class=\"nb\">20-Jan-2014</span></td></tr></table></div>"
        },
        "status": "active",
        "device": {
          "reference": "urn:uuid:9ec8ccc6-2793-4f16-9d21-37349fda796a",
          "display": "Blood glucose meter (physical object)"
        },
        "subject": {
          "reference": "urn:uuid:803f1be8-8afe-417a-b928-3719031bbcd7",
          "display": "Pauline Grenier"
        }
      }
    },
    {
      "fullUrl": "urn:uuid:9ec8ccc6-2793-4f16-9d21-37349fda796a",
      "resource": {
        "resourceType": "Device",
        "id": "9ec8ccc6-2793-4f16-9d21-37349fda796a",
        "meta": {
          "profile": [
            "http://hl7.eu/fhir/eps/StructureDefinition/device-eu-eps"
          ]
        },
        "udiCarrier": [
          {
            "id": "(01)34013050500058(11)141230(17)390114(10)751011777494047674(21)698444470925"
          }
        ],
        "status": "active",
        "patient": {
          "reference": "urn:uuid:803f1be8-8afe-417a-b928-3719031bbcd7",
          "display": "Pauline Grenier"
        },
        "type": {
          "coding": [
            {
              "code": "337414009",
              "system": "http://snomed.info/sct",
              "display": "Blood glucose meter (physical object)"
            }
          ]
        }
      }
    },
    {
      "fullUrl": "urn:uuid:5706a061-cded-4a87-9c41-e0e4ae08ad9c",
      "resource": {
        "resourceType": "Device",
        "id": "5706a061-cded-4a87-9c41-e0e4ae08ad9c",
        "deviceName": [
          {
            "name": "SYNDERAI Synthetic Generator",
            "type": "manufacturer-name"
          }
        ],
        "version": [
          {
            "value": "5.0"
          }
        ],
        "text": {
          "status": "generated",
          "div": "<div xmlns=\"http://www.w3.org/1999/xhtml\">SYNDERAI Synthetic Generator v5.0</div>"
        },
        "status": "active\"",
        "distinctIdentifier": "synderai-generator-50",
        "manufacturer": "SYNDERAI Project"
      }
    },
    {
      "fullUrl": "urn:uuid:48aa73cb-165e-40ec-8179-684b21b18d3d",
      "resource": {
        "resourceType": "Provenance",
        "id": "48aa73cb-165e-40ec-8179-684b21b18d3d",
        "target": [
          {
            "reference": "Patient/803f1be8-8afe-417a-b928-3719031bbcd7"
          },
          {
            "reference": "Bundle/ccc0ae97-a953-4f89-9330-57a53f82597b"
          },
          {
            "reference": "Composition/8a0194c2-3a8e-44d2-ace8-685d4bc9571c"
          },
          {
            "reference": "PractitionerRole/c6766212-3e52-4724-8f9d-b992d74a9ba3"
          },
          {
            "reference": "Organization/79c40847-eb00-49a7-9cae-8d37737a621a"
          },
          {
            "reference": "Practitioner/ee8f333c-8ec3-4cb3-83e5-d802b0216276"
          }
        ],
        "activity": {
          "text": "Synthetic Example Data Generation"
        },
        "policy": [
          "https://synderai.net/synderai-synthetic-data-policy"
        ],
        "agent": [
          {
            "type": {
              "text": "author"
            },
            "who": {
              "reference": "Device/5706a061-cded-4a87-9c41-e0e4ae08ad9c"
            }
          }
        ],
        "reason": [
          {
            "text": "Interoperability Testing and Training (non-clinical use)"
          }
        ],
        "text": {
          "status": "generated",
          "div": "<div xmlns=\"http://www.w3.org/1999/xhtml\">Provenance for SYNDERAI Synthetic Example Data Resource</div>"
        },
        "recorded": "2025-03-17T11:54:46Z"
      }
    }
  ],
  "type": "document",
  "timestamp": "2025-03-17T11:54:46Z"
}
