<Bundle xmlns="http://hl7.org/fhir">
   <id value="4059f02d-9b86-42a0-b001-1ae013b53189"/>
   <meta>
      <profile value="http://hl7.eu/fhir/eps/StructureDefinition/bundle-eu-eps"/>
   </meta>
   <identifier>
      <system value="urn:oid:2.16.840.1.113883.2.51.999"/>
      <value value="922b1333-9870-4156-b5f1-294fac6d6bcd"/>
      <assigner>
         <display value="HL7 Europe"/>
      </assigner>
   </identifier>
   <type value="document"/>
   <timestamp value="2025-06-25T13:34:16Z"/>
   <entry>
      <fullUrl value="urn:uuid:4b4708c4-6555-4a6b-b8a5-19b12adb669e"/>
      <resource>
         <Composition>
            <id value="4b4708c4-6555-4a6b-b8a5-19b12adb669e"/>
            <meta>
               <profile value="http://hl7.eu/fhir/eps/StructureDefinition/composition-eu-eps"/>
               <security>
                  <system value="http://terminology.hl7.org/CodeSystem/v3-ActReason"/>
                  <code value="HTEST"/>
               </security>
               <security>
                  <system value="http://terminology.hl7.org/CodeSystem/v3-ActReason"/>
                  <code value="TRAIN"/>
               </security>
               <tag>
                  <system value="https://synderai.net/fhir/CodeSystem/tags"/>
                  <code value="synthetic"/>
                  <display value="SYNDERAI Synthetic data"/>
               </tag>
            </meta>
            <identifier>
               <system value="urn:oid:2.16.840.1.113883.2.51.999"/>
               <value value="4e1e14de-219d-4405-802e-d62a37d6c3fb"/>
               <assigner>
                  <display value="HL7 Europe"/>
               </assigner>
            </identifier>
            <status value="final"/>
            <type>
               <coding>
                  <system value="http://loinc.org"/>
                  <code value="60591-5"/>
                  <display value="Patient summary Document"/>
               </coding>
               <text value="Patient summary Document"/>
            </type>
            <subject>
               <reference value="urn:uuid:b90f5ea3-924c-4963-9d0b-455120235e02"/>
               <display value="Magdolna Balog"/>
            </subject>
            <date value="2025-06-25"/>
            <author>
               <reference value="urn:uuid:ed3b4c86-c6eb-4261-b80b-5b49508a8d04"/>
            </author>
            <title value="European Patient Summary"/>
            <confidentiality value="N"/>
            <custodian>
               <reference value="urn:uuid:c343fe05-98f4-43f9-9ca8-55cc1b2a8992"/>
            </custodian>
            <section>
               <title value="Problem list"/>
               <code>
                  <coding>
                     <system value="http://loinc.org"/>
                     <code value="11450-4"/>
                     <display value="Problem list - Reported"/>
                  </coding>
               </code>
               <text>
                  <status value="generated"/>
                  <div xmlns="http://www.w3.org/1999/xhtml">
                     <table class="hl7__ips">
                        <tr>
                           <th>Condition</th>
                           <th>Onset Date</th>
                           <th>Status</th>
                        </tr>
                        <tr>
                           <td>Alzheimer's disease</td>
                           <td>
                              <span class="nb">19-Jun-2024</span>
                           </td>
                           <td>active</td>
                        </tr>
                        <tr>
                           <td>Ischemic heart disease</td>
                           <td>
                              <span class="nb">10-May-2017</span>
                           </td>
                           <td>active</td>
                        </tr>
                        <tr>
                           <td>Atrial fibrillation</td>
                           <td>
                              <span class="nb">29-Apr-2015</span>
                           </td>
                           <td>active</td>
                        </tr>
                        <tr>
                           <td>Osteoporosis</td>
                           <td>
                              <span class="nb">25-Feb-2004</span>
                           </td>
                           <td>active</td>
                        </tr>
                        <tr>
                           <td>Prediabetes</td>
                           <td>
                              <span class="nb">21-Jan-1998</span>
                           </td>
                           <td>active</td>
                        </tr>
                        <tr>
                           <td>Anemia</td>
                           <td>
                              <span class="nb">21-Jan-1998</span>
                           </td>
                           <td>active</td>
                        </tr>
                     </table>
                  </div>
               </text>
               <entry>
                  <reference value="urn:uuid:661961b6-de30-421f-a9e2-561f2eb1391d"/>
               </entry>
               <entry>
                  <reference value="urn:uuid:70aae04f-38f8-4366-8867-f1e4057b374a"/>
               </entry>
               <entry>
                  <reference value="urn:uuid:c785b3bc-c389-4f1b-b389-77680c6783f8"/>
               </entry>
               <entry>
                  <reference value="urn:uuid:7f101760-5dfd-4c6d-9f43-d1d9e99bbf4b"/>
               </entry>
               <entry>
                  <reference value="urn:uuid:b2667716-9751-4167-9aa2-c2fe3e9051f0"/>
               </entry>
               <entry>
                  <reference value="urn:uuid:e12b1007-0812-411d-b183-a5207d2a851a"/>
               </entry>
            </section>
            <section>
               <title value="Medication list"/>
               <code>
                  <coding>
                     <system value="http://loinc.org"/>
                     <code value="10160-0"/>
                     <display value="History of Medication use Narrative"/>
                  </coding>
               </code>
               <text>
                  <status value="generated"/>
                  <div xmlns="http://www.w3.org/1999/xhtml">
                     <table class="hl7__ips">
                        <tr>
                           <th>Medication</th>
                           <th>Since</th>
                           <th>Form</th>
                           <th>Dosage</th>
                           <th>Reason</th>
                        </tr>
                        <tr>
                           <td>Digoxin 125 microgram oral tablet</td>
                           <td>
                              <span class="nb">2025-06-25</span>
                           </td>
                           <td>-</td>
                           <td>1 tablet (125 microgram) once daily</td>
                           <td>Atrial fibrillation (disorder)</td>
                        </tr>
                        <tr>
                           <td>Warfarin sodium 5 mg oral tablet</td>
                           <td>
                              <span class="nb">2025-06-25</span>
                           </td>
                           <td>-</td>
                           <td>1 tablet (5 mg) by mouth once daily</td>
                           <td>Atrial fibrillation (disorder)</td>
                        </tr>
                        <tr>
                           <td>Verapamil hydrochloride 80 mg oral tablet</td>
                           <td>
                              <span class="nb">2025-06-25</span>
                           </td>
                           <td>-</td>
                           <td>1 tablet (80 mg) three times daily</td>
                           <td>Atrial fibrillation (disorder)</td>
                        </tr>
                        <tr>
                           <td>Alendronic acid (as alendronate sodium) 10 mg oral tablet</td>
                           <td>
                              <span class="nb">2025-06-25</span>
                           </td>
                           <td>-</td>
                           <td>1 tablet (10 mg) once daily</td>
                           <td>Osteoporosis (disorder)</td>
                        </tr>
                        <tr>
                           <td>Galantamine (as galantamine hydrobromide) 4 mg oral tablet</td>
                           <td>
                              <span class="nb">2024-06-19</span>
                           </td>
                           <td>-</td>
                           <td>1 tablet (4 mg) once daily</td>
                           <td>Alzheimer's disease (disorder)</td>
                        </tr>
                        <tr>
                           <td>Clopidogrel (as clopidogrel bisulfate) 75 mg oral tablet</td>
                           <td>
                              <span class="nb">2017-05-17</span>
                           </td>
                           <td>-</td>
                           <td>1 tablet (75 mg) by mouth once daily</td>
                           <td>-</td>
                        </tr>
                        <tr>
                           <td>Simvastatin 20 mg oral tablet</td>
                           <td>
                              <span class="nb">2017-05-17</span>
                           </td>
                           <td>-</td>
                           <td>1 tablet (20 mg) by mouth once daily</td>
                           <td>-</td>
                        </tr>
                        <tr>
                           <td>Nitroglycerin 400 microgram/actuation sublingual spray</td>
                           <td>
                              <span class="nb">2017-05-17</span>
                           </td>
                           <td>-</td>
                           <td>1 spray (400 micrograms) under the tongue as needed for chest pain, may repeat every 5 minutes as needed, up to 3 sprays in 15 minutes</td>
                           <td>-</td>
                        </tr>
                        <tr>
                           <td>Metoprolol tartrate (as metoprolol succinate) 100 mg prolonged-release oral tablet</td>
                           <td>
                              <span class="nb">2017-05-17</span>
                           </td>
                           <td>-</td>
                           <td>1 tablet (100 mg) once daily</td>
                           <td>-</td>
                        </tr>
                     </table>
                  </div>
               </text>
               <entry>
                  <reference value="urn:uuid:5be8047f-7841-439a-bb27-3b23e2163805"/>
               </entry>
               <entry>
                  <reference value="urn:uuid:5a4afa4e-6288-4b4c-86c2-0e95af78ee31"/>
               </entry>
               <entry>
                  <reference value="urn:uuid:d3b0c24c-a1fd-4a0f-bbea-776510ff0adb"/>
               </entry>
               <entry>
                  <reference value="urn:uuid:0ea368bb-4eab-4003-8db9-63c809d63e31"/>
               </entry>
               <entry>
                  <reference value="urn:uuid:daaf0dda-3442-4152-a031-6909f8955900"/>
               </entry>
               <entry>
                  <reference value="urn:uuid:fb5c0878-bd04-42ff-a29d-0dd31b9f9d8e"/>
               </entry>
               <entry>
                  <reference value="urn:uuid:a4a76c51-be3d-46e5-a0ba-dcf7ab961e07"/>
               </entry>
               <entry>
                  <reference value="urn:uuid:6e350fde-160f-44f8-a516-6b265da14447"/>
               </entry>
               <entry>
                  <reference value="urn:uuid:837db732-a81b-4e32-a634-6cf5d87e30e3"/>
               </entry>
            </section>
            <section>
               <title value="Immunizations list"/>
               <code>
                  <coding>
                     <system value="http://loinc.org"/>
                     <code value="11369-6"/>
                     <display value="History of Immunization note"/>
                  </coding>
               </code>
               <text>
                  <status value="generated"/>
                  <div xmlns="http://www.w3.org/1999/xhtml">
                     <table class="hl7__ips">
                        <tr>
                           <th>Vaccine</th>
                           <th>Date</th>
                        </tr>
                        <tr>
                           <td>Clostridium tetani toxoid antigen adsorbed only vaccine product</td>
                           <td>
                              <span class="nb">05-Feb-2025</span>
                           </td>
                        </tr>
                        <tr>
                           <td>Influenza virus antigen only vaccine product</td>
                           <td>
                              <span class="nb">05-Feb-2025</span>
                           </td>
                        </tr>
                     </table>
                  </div>
               </text>
               <entry>
                  <reference value="urn:uuid:6884a4b9-40a1-4d32-bf49-83c425ef1726"/>
               </entry>
               <entry>
                  <reference value="urn:uuid:0986f78b-b218-47d2-80af-6baed4d88d4c"/>
               </entry>
            </section>
            <section>
               <title value="Procedure History list"/>
               <code>
                  <coding>
                     <system value="http://loinc.org"/>
                     <code value="47519-4"/>
                     <display value="History of Procedures Document"/>
                  </coding>
               </code>
               <text>
                  <status value="generated"/>
                  <div xmlns="http://www.w3.org/1999/xhtml">
                     <table class="hl7__ips">
                        <tr>
                           <th>Procedure</th>
                           <th>Date</th>
                           <th>Reason</th>
                        </tr>
                        <tr>
                           <td>Assessment of health and social care needs</td>
                           <td>
                              <span class="nb">05-Feb-2025</span>
                           </td>
                           <td>-</td>
                        </tr>
                        <tr>
                           <td>Screening for drug abuse</td>
                           <td>
                              <span class="nb">05-Feb-2025</span>
                           </td>
                           <td>-</td>
                        </tr>
                        <tr>
                           <td>Assessment of substance use</td>
                           <td>
                              <span class="nb">05-Feb-2025</span>
                           </td>
                           <td>-</td>
                        </tr>
                        <tr>
                           <td>Patient discharge</td>
                           <td>
                              <span class="nb">27-Jan-2019</span>
                           </td>
                           <td>-</td>
                        </tr>
                        <tr>
                           <td>Hospice care</td>
                           <td>
                              <span class="nb">26-Jan-2019</span>
                           </td>
                           <td>-</td>
                        </tr>
                        <tr>
                           <td>Notifications</td>
                           <td>
                              <span class="nb">02-Jan-2019</span>
                           </td>
                           <td>-</td>
                        </tr>
                        <tr>
                           <td>Certification procedure</td>
                           <td>
                              <span class="nb">02-Jan-2019</span>
                           </td>
                           <td>-</td>
                        </tr>
                        <tr>
                           <td>Initial patient assessment</td>
                           <td>
                              <span class="nb">02-Jan-2019</span>
                           </td>
                           <td>-</td>
                        </tr>
                        <tr>
                           <td>Development of individualized plan of care</td>
                           <td>
                              <span class="nb">02-Jan-2019</span>
                           </td>
                           <td>-</td>
                        </tr>
                        <tr>
                           <td>Postoperative procedure education</td>
                           <td>
                              <span class="nb">22-Jun-2017</span>
                           </td>
                           <td>History of coronary artery bypass grafting (situation)</td>
                        </tr>
                        <tr>
                           <td>Stair-climbing test</td>
                           <td>
                              <span class="nb">22-Jun-2017</span>
                           </td>
                           <td>History of coronary artery bypass grafting (situation)</td>
                        </tr>
                        <tr>
                           <td>Walking exercise test</td>
                           <td>
                              <span class="nb">22-Jun-2017</span>
                           </td>
                           <td>History of coronary artery bypass grafting (situation)</td>
                        </tr>
                        <tr>
                           <td>Discharge to ward</td>
                           <td>
                              <span class="nb">22-Jun-2017</span>
                           </td>
                           <td>-</td>
                        </tr>
                        <tr>
                           <td>Discharge from hospital</td>
                           <td>
                              <span class="nb">22-Jun-2017</span>
                           </td>
                           <td>History of coronary artery bypass grafting (situation)</td>
                        </tr>
                        <tr>
                           <td>Electrocardiographic procedure</td>
                           <td>
                              <span class="nb">21-Jun-2017</span>
                           </td>
                           <td>-</td>
                        </tr>
                        <tr>
                           <td>Transfusion of packed red blood cells</td>
                           <td>
                              <span class="nb">21-Jun-2017</span>
                           </td>
                           <td>-</td>
                        </tr>
                        <tr>
                           <td>Plain X-ray of chest</td>
                           <td>
                              <span class="nb">21-Jun-2017</span>
                           </td>
                           <td>-</td>
                        </tr>
                        <tr>
                           <td>Removal of endotracheal tube</td>
                           <td>
                              <span class="nb">18-Jun-2017</span>
                           </td>
                           <td>-</td>
                        </tr>
                     </table>
                  </div>
               </text>
               <entry>
                  <reference value="urn:uuid:938b6ca9-001d-4621-9b90-bcaeab90a4b7"/>
               </entry>
               <entry>
                  <reference value="urn:uuid:aafb7f55-0d2b-478d-af1c-214a6aaf6ab4"/>
               </entry>
               <entry>
                  <reference value="urn:uuid:fa51bb41-f3d0-4428-b76e-18821a7ab27e"/>
               </entry>
               <entry>
                  <reference value="urn:uuid:fbc02ab5-d578-4c4e-a3fb-13e0245e78df"/>
               </entry>
               <entry>
                  <reference value="urn:uuid:9aa184cd-949c-47b8-83b6-cc891e95b1e2"/>
               </entry>
               <entry>
                  <reference value="urn:uuid:df7d6c89-c200-4ba8-a725-2a16231e2a04"/>
               </entry>
               <entry>
                  <reference value="urn:uuid:e0d641ce-8891-4410-89a8-cfaf253f2fad"/>
               </entry>
               <entry>
                  <reference value="urn:uuid:e887924a-5921-44e0-b2f0-ad8870e4662f"/>
               </entry>
               <entry>
                  <reference value="urn:uuid:78d6c1b1-830c-47b6-880c-726600c91be0"/>
               </entry>
               <entry>
                  <reference value="urn:uuid:568d78f2-0d33-45a6-875b-50fdd4baf935"/>
               </entry>
               <entry>
                  <reference value="urn:uuid:8f8e1b4f-e6c6-4a2a-939b-56f9263ad835"/>
               </entry>
               <entry>
                  <reference value="urn:uuid:d4a51bc7-fdda-4a9f-a359-d9e8b6eb1b91"/>
               </entry>
               <entry>
                  <reference value="urn:uuid:d753b21c-40f1-4a58-a6d9-970e641e9c6a"/>
               </entry>
               <entry>
                  <reference value="urn:uuid:b549102e-fe93-410d-a38e-2577669e19d5"/>
               </entry>
               <entry>
                  <reference value="urn:uuid:58d72d94-c097-4a3c-a8be-bc6a342abfa8"/>
               </entry>
               <entry>
                  <reference value="urn:uuid:ef7ec702-4ef1-4087-89e2-503299031c51"/>
               </entry>
               <entry>
                  <reference value="urn:uuid:3555ed6e-d2a8-4872-b07d-f7f2377e9a94"/>
               </entry>
               <entry>
                  <reference value="urn:uuid:0a23f5a7-5a31-4a9c-87c2-bb1db9f62ec4"/>
               </entry>
            </section>
            <section>
               <title value="Allergies and Intolerances"/>
               <code>
                  <coding>
                     <system value="http://loinc.org"/>
                     <code value="48765-2"/>
                     <display value="Allergies and adverse reactions Document"/>
                  </coding>
               </code>
               <text>
                  <status value="generated"/>
                  <div xmlns="http://www.w3.org/1999/xhtml">
                     <table class="hl7__ips">
                        <tr>
                           <th>Allergy/Intolerance</th>
                           <th>Onset Date</th>
                           <th>Status</th>
                           <th>Type</th>
                           <th>Reaction</th>
                        </tr>
                        <tr>
                           <td/>
                           <td>?</td>
                           <td>active</td>
                           <td>?</td>
                           <td/>
                        </tr>
                     </table>
                  </div>
               </text>
               <entry>
                  <reference value="urn:uuid:72d80a78-b15f-4532-a5e4-63b6a6912200"/>
               </entry>
            </section>
            <section>
               <title value="Care Plan"/>
               <code>
                  <coding>
                     <system value="http://loinc.org"/>
                     <code value="18776-5"/>
                     <display value="Plan of care note"/>
                  </coding>
               </code>
               <text>
                  <status value="generated"/>
                  <div xmlns="http://www.w3.org/1999/xhtml">
                     <table class="hl7__ips">
                        <tr>
                           <th>Active Planned Care / Goals</th>
                           <th>Start Date</th>
                           <th>Reason</th>
                        </tr>
                        <tr>
                           <td>Dementia management</td>
                           <td>
                              <span class="nb">19-Jun-2024</span>
                           </td>
                           <td>Alzheimer's disease (disorder)</td>
                        </tr>
                        <tr>
                           <td>
                              <ul>
                                 <li>Maintain current level of cognitive function as long as possible</li>
                                 <li>Maintain ability to perform basic activities of daily living (ADLs) with minimal assistance</li>
                                 <li>Reduce frequency and severity of behavioral and psychological symptoms of dementia</li>
                                 <li>Ensure adherence to prescribed dementia medications</li>
                                 <li>Provide support and education to caregiver to reduce burden and improve coping</li>
                              </ul>
                           </td>
                           <td/>
                           <td/>
                        </tr>
                        <tr>
                           <td>Diabetes self management plan</td>
                           <td>
                              <span class="nb">21-Jan-1998</span>
                           </td>
                           <td>Prediabetes</td>
                        </tr>
                        <tr>
                           <td>
                              <ul>
                                 <li>Maintain fasting plasma glucose within the prediabetes range through lifestyle modification and self-management.</li>
                                 <li>Achieve and maintain hemoglobin A1c within the prediabetes target range through self-management strategies.</li>
                                 <li>Engage in regular physical activity, follow a balanced diet, and monitor blood glucose as part of the diabetes self-management plan.</li>
                              </ul>
                           </td>
                           <td/>
                           <td/>
                        </tr>
                        <tr>
                           <th>Immunization Recommendation</th>
                           <th>Due Date</th>
                           <th>Reason</th>
                        </tr>
                        <tr>
                           <td>Vaccine product containing only Influenza virus antigen (medicinal product)</td>
                           <td>
                              <span class="nb">01-Oct-2025</span>
                           </td>
                           <td>Annual seasonal influenza vaccination</td>
                        </tr>
                     </table>
                  </div>
               </text>
               <entry>
                  <reference value="urn:uuid:19863756-18e6-4032-9547-0a96d14f52aa"/>
               </entry>
               <entry>
                  <reference value="urn:uuid:acc8fa21-2d39-4ff4-8b83-64b79850548c"/>
               </entry>
               <entry>
                  <reference value="urn:uuid:c7febb64-bbca-4e0b-b2c0-bcf50d314269"/>
               </entry>
            </section>
            <section>
               <title value="Vital Signs"/>
               <code>
                  <coding>
                     <system value="http://loinc.org"/>
                     <code value="8716-3"/>
                     <display value="Vital signs note"/>
                  </coding>
               </code>
               <text>
                  <status value="generated"/>
                  <div xmlns="http://www.w3.org/1999/xhtml">
                     <table class="hl7__ips">
                        <tr>
                           <th>Vital Signs</th>
                           <th>2025-06-25</th>
                           <th>2025-02-05</th>
                        </tr>
                        <tr>
                           <td>Body Height</td>
                           <td>152 cm</td>
                           <td>152 cm</td>
                        </tr>
                        <tr>
                           <td>Pain severity - 0-10 verbal numeric rating [Score] - Reported</td>
                           <td>3 {score}</td>
                           <td>1 {score}</td>
                        </tr>
                        <tr>
                           <td>Body Weight</td>
                           <td>71 kg</td>
                           <td>71 kg</td>
                        </tr>
                        <tr>
                           <td>Body mass index (BMI) [Ratio]</td>
                           <td>30.7 kg/m2</td>
                           <td>30.7 kg/m2</td>
                        </tr>
                        <tr>
                           <td>Diastolic Blood Pressure</td>
                           <td>62 mm[Hg]</td>
                           <td>56 mm[Hg]</td>
                        </tr>
                        <tr>
                           <td>Systolic Blood Pressure</td>
                           <td>77 mm[Hg]</td>
                           <td>77 mm[Hg]</td>
                        </tr>
                        <tr>
                           <td>Heart rate</td>
                           <td>66 /min</td>
                           <td>75 /min</td>
                        </tr>
                        <tr>
                           <td>Respiratory rate</td>
                           <td>14 /min</td>
                           <td>14 /min</td>
                        </tr>
                     </table>
                  </div>
               </text>
               <entry>
                  <reference value="urn:uuid:620114b1-becd-4d52-b04b-9f10edabd72b"/>
               </entry>
               <entry>
                  <reference value="urn:uuid:8a1442b8-9e20-43ef-a8a3-4064c3c2615e"/>
               </entry>
               <entry>
                  <reference value="urn:uuid:af61d1c3-ff07-4939-a8c4-0cb7a39c917a"/>
               </entry>
               <entry>
                  <reference value="urn:uuid:57d9c91f-5970-473e-ba6f-89bde8638962"/>
               </entry>
               <entry>
                  <reference value="urn:uuid:020212fa-671e-4716-a326-9192e44a05c5"/>
               </entry>
               <entry>
                  <reference value="urn:uuid:b854fc49-766a-4074-bd64-9f53df207bb2"/>
               </entry>
               <entry>
                  <reference value="urn:uuid:6050dd9c-ec41-42d2-803e-7916ee277742"/>
               </entry>
               <entry>
                  <reference value="urn:uuid:32790940-1383-4930-a885-5524ec2f404b"/>
               </entry>
               <entry>
                  <reference value="urn:uuid:2e634676-bdec-4d73-b06a-85a0094aca60"/>
               </entry>
               <entry>
                  <reference value="urn:uuid:0b2e9978-f7f7-4960-b151-047e3c4dab88"/>
               </entry>
               <entry>
                  <reference value="urn:uuid:7305b378-1051-47e3-a158-868d79b60895"/>
               </entry>
               <entry>
                  <reference value="urn:uuid:2a0d274f-0c9a-4611-89e0-b20ec498b4dc"/>
               </entry>
               <entry>
                  <reference value="urn:uuid:771711f1-fd19-40c7-b301-9c7fddfe71ad"/>
               </entry>
               <entry>
                  <reference value="urn:uuid:e0747f17-a07f-4646-acc8-053c63d0d13a"/>
               </entry>
               <entry>
                  <reference value="urn:uuid:da795312-7518-4c44-9ac2-c5eb4d49afb9"/>
               </entry>
               <entry>
                  <reference value="urn:uuid:db91d89c-74ec-44b2-9526-574fca53043f"/>
               </entry>
            </section>
            <section>
               <title value="Relevant diagnostic tests/laboratory data"/>
               <code>
                  <coding>
                     <system value="http://loinc.org"/>
                     <code value="30954-2"/>
                     <display value="Relevant diagnostic tests/laboratory data note"/>
                  </coding>
               </code>
               <text>
                  <status value="generated"/>
                  <div xmlns="http://www.w3.org/1999/xhtml">
                     <table class="hl7__ips">
                        <table class="hl7__ips">
                           <thead>
                              <tr>
                                 <th>Recent Lab Observations</th>
                                 <th>25-JUN-2025</th>
                                 <th>Reference Range</th>
                                 <th>Unit</th>
                              </tr>
                           </thead>
                           <tbody>
                              <tr>
                                 <td>Hemoglobin A1c/Hemoglobin.total in Blood</td>
                                 <td>5.9</td>
                                 <td>4.5 - 6.4</td>
                                 <td>%</td>
                              </tr>
                              <tr>
                                 <td>Glucose [Mass/volume] in Blood</td>
                                 <td>85.6</td>
                                 <td>70 - 140</td>
                                 <td>mg/dL</td>
                              </tr>
                              <tr>
                                 <td>Urea nitrogen [Mass/volume] in Blood</td>
                                 <td>14.0</td>
                                 <td>7 - 20</td>
                                 <td>mg/dL</td>
                              </tr>
                              <tr>
                                 <td>Creatinine [Mass/volume] in Blood</td>
                                 <td>0.7</td>
                                 <td>0.6 - 1.1</td>
                                 <td>mg/dL</td>
                              </tr>
                              <tr>
                                 <td>Calcium [Mass/volume] in Blood</td>
                                 <td>9.6</td>
                                 <td>8.5 - 10.4</td>
                                 <td>mg/dL</td>
                              </tr>
                              <tr>
                                 <td>Sodium [Moles/volume] in Blood</td>
                                 <td>140.3</td>
                                 <td>135 - 145</td>
                                 <td>mmol/L</td>
                              </tr>
                              <tr>
                                 <td>Potassium [Moles/volume] in Blood</td>
                                 <td>4.1</td>
                                 <td>3.5 - 5.1</td>
                                 <td>mmol/L</td>
                              </tr>
                              <tr>
                                 <td>Chloride [Moles/volume] in Blood</td>
                                 <td>102.6</td>
                                 <td>98 - 107</td>
                                 <td>mmol/L</td>
                              </tr>
                              <tr>
                                 <td>Carbon dioxide, total [Moles/volume] in Blood</td>
                                 <td>24.5</td>
                                 <td>22 - 29</td>
                                 <td>mmol/L</td>
                              </tr>
                           </tbody>
                        </table>
                     </table>
                  </div>
               </text>
               <entry>
                  <reference value="urn:uuid:45cd7471-c725-4b5b-b9f7-ce68018426db"/>
               </entry>
               <entry>
                  <reference value="urn:uuid:ab52b37d-4d40-4db2-8393-896ffa9df9f3"/>
               </entry>
               <entry>
                  <reference value="urn:uuid:1a39a3e0-691a-426f-bd89-b50369ba9996"/>
               </entry>
               <entry>
                  <reference value="urn:uuid:e99979ad-4477-4e6e-958b-51f69dd69f90"/>
               </entry>
               <entry>
                  <reference value="urn:uuid:c7e72b27-66cb-4291-9e8d-5e3b815ca6fa"/>
               </entry>
               <entry>
                  <reference value="urn:uuid:b4e81aae-326a-428b-8752-8601d11aee04"/>
               </entry>
               <entry>
                  <reference value="urn:uuid:8f6eb305-73db-4b7c-aee8-a8c68bf251d3"/>
               </entry>
               <entry>
                  <reference value="urn:uuid:1e562e01-0a96-412c-9122-3232499786be"/>
               </entry>
               <entry>
                  <reference value="urn:uuid:9d3cff2a-5a5d-4f74-905e-31ad8cb7f9fa"/>
               </entry>
            </section>
            <section>
               <title value="Device Use"/>
               <code>
                  <coding>
                     <system value="http://loinc.org"/>
                     <code value="46264-8"/>
                     <display value="History of medical device use"/>
                  </coding>
               </code>
               <text>
                  <status value="generated"/>
                  <div xmlns="http://www.w3.org/1999/xhtml">
                     <table class="hl7__ips">
                        <tr>
                           <th>Device</th>
                           <th>Date (since)</th>
                        </tr>
                        <tr>
                           <td>Blood glucose meter (physical object)</td>
                           <td>
                              <span class="nb">21-Jan-1998</span>
                           </td>
                        </tr>
                     </table>
                  </div>
               </text>
               <entry>
                  <reference value="urn:uuid:7c39a449-6f8d-47c1-81e7-b7f9f61cd4bd"/>
               </entry>
            </section>
         </Composition>
      </resource>
   </entry>
   <entry>
      <fullUrl value="urn:uuid:b90f5ea3-924c-4963-9d0b-455120235e02"/>
      <resource>
         <Patient>
            <id value="b90f5ea3-924c-4963-9d0b-455120235e02"/>
            <meta>
               <profile value="http://hl7.eu/fhir/eps/StructureDefinition/patient-eu-eps"/>
               <security>
                  <system value="http://terminology.hl7.org/CodeSystem/v3-ActReason"/>
                  <code value="HTEST"/>
               </security>
               <security>
                  <system value="http://terminology.hl7.org/CodeSystem/v3-ActReason"/>
                  <code value="TRAIN"/>
               </security>
               <tag>
                  <system value="https://synderai.net/fhir/CodeSystem/tags"/>
                  <code value="synthetic"/>
                  <display value="SYNDERAI Synthetic data"/>
               </tag>
            </meta>
            <text>
               <status value="generated"/>
               <div xmlns="http://www.w3.org/1999/xhtml">
                  <table class="hl7__ips">
                     <tr>
                        <td>Magdolna Balog</td>
                        <td>female</td>
                        <td>21-May-1946</td>
                     </tr>
                  </table>
               </div>
            </text>
            <extension url="http://hl7.org/fhir/StructureDefinition/patient-nationality">
               <valueCodeableConcept>
                  <coding>
                     <system value="http://hl7.org/fhir/ValueSet/country"/>
                     <code value="HU"/>
                  </coding>
               </valueCodeableConcept>
            </extension>
            <identifier>
               <type>
                  <coding>
                     <system value="http://terminology.hl7.org/CodeSystem/v2-0203"/>
                     <code value="PT"/>
                  </coding>
               </type>
               <system value="http://ec.europa.eu/identifier/eci"/>
               <value value="2437-386280-4"/>
            </identifier>
            <identifier>
               <type>
                  <coding>
                     <system value="http://terminology.hl7.org/CodeSystem/v2-0203"/>
                     <code value="MR"/>
                  </coding>
               </type>
               <system value="http://local.setting.eu/identifier"/>
               <value value="1d8dc8c5-3a85-b1b5-4101-cca776d0be28"/>
            </identifier>
            <name>
               <family value="Balog"/>
            </name>
            <name>
               <given value="Magdolna"/>
            </name>
            <name>
               <text value="Magdolna Balog"/>
            </name>
            <telecom>
               <system value="phone"/>
               <value value="+36 46 091-2914"/>
            </telecom>
            <gender value="female"/>
            <birthDate value="1946-05-21"/>
            <address>
               <use value="home"/>
               <type value="physical"/>
               <line value="Ady endre utca 160."/>
               <city value="Némethídfa"/>
               <postalCode value="3989"/>
               <country value="Hungary"/>
            </address>
         </Patient>
      </resource>
   </entry>
   <entry>
      <fullUrl value="urn:uuid:ed3b4c86-c6eb-4261-b80b-5b49508a8d04"/>
      <resource>
         <PractitionerRole>
            <id value="ed3b4c86-c6eb-4261-b80b-5b49508a8d04"/>
            <meta>
               <profile value="http://hl7.eu/fhir/base/StructureDefinition/practitionerRole-eu"/>
            </meta>
            <text>
               <status value="generated"/>
               <div xmlns="http://www.w3.org/1999/xhtml">
                  <table class="hl7__ips">Provider Role Id ed3b4c86-c6eb-4261-b80b-5b49508a8d04</table>
               </div>
            </text>
            <practitioner>
               <reference value="urn:uuid:b1a89815-3dcd-4d2c-ac1a-bbf398802346"/>
            </practitioner>
            <organization>
               <reference value="urn:uuid:c343fe05-98f4-43f9-9ca8-55cc1b2a8992"/>
            </organization>
         </PractitionerRole>
      </resource>
   </entry>
   <entry>
      <fullUrl value="urn:uuid:b1a89815-3dcd-4d2c-ac1a-bbf398802346"/>
      <resource>
         <Practitioner>
            <id value="b1a89815-3dcd-4d2c-ac1a-bbf398802346"/>
            <meta>
               <profile value="http://hl7.eu/fhir/base/StructureDefinition/practitioner-eu"/>
            </meta>
            <text>
               <status value="generated"/>
               <div xmlns="http://www.w3.org/1999/xhtml">
                  <table class="hl7__ips">Dr. Hel Ping</table>
               </div>
            </text>
            <name>
               <family value="Ping"/>
               <given value="Hel"/>
               <prefix value="Dr."/>
            </name>
         </Practitioner>
      </resource>
   </entry>
   <entry>
      <fullUrl value="urn:uuid:c343fe05-98f4-43f9-9ca8-55cc1b2a8992"/>
      <resource>
         <Organization>
            <id value="c343fe05-98f4-43f9-9ca8-55cc1b2a8992"/>
            <meta>
               <profile value="http://hl7.eu/fhir/base/StructureDefinition/organization-eu"/>
            </meta>
            <text>
               <status value="generated"/>
               <div xmlns="http://www.w3.org/1999/xhtml">
                  <table class="hl7__ips">Semmelweis Ignác Egészségügyi Központ és Egyetemi Oktató Kórház</table>
               </div>
            </text>
            <identifier>
               <system value="urn:oid:2.16.840.1.113883.2.51.999"/>
               <value value="00f31976-00dd-4299-8ca8-ab9042433d16"/>
               <assigner>
                  <display value="HL7 Europe"/>
               </assigner>
            </identifier>
            <name value="Semmelweis Ignác Egészségügyi Központ és Egyetemi Oktató Kórház"/>
            <address>
               <line value="Csabai kapu 9-11"/>
               <city value="Miskolc"/>
               <postalCode value="3529"/>
               <country value="Hungary"/>
            </address>
         </Organization>
      </resource>
   </entry>
   <entry>
      <fullUrl value="urn:uuid:661961b6-de30-421f-a9e2-561f2eb1391d"/>
      <resource>
         <Condition>
            <id value="661961b6-de30-421f-a9e2-561f2eb1391d"/>
            <meta>
               <profile value="http://hl7.org/fhir/uv/ips/StructureDefinition/Condition-uv-ips"/>
            </meta>
            <text>
               <status value="generated"/>
               <div xmlns="http://www.w3.org/1999/xhtml">
                  <table class="hl7__ips">
                     <tr>
                        <td>Alzheimer's disease</td>
                        <td>
                           <span class="nb">19-Jun-2024</span>
                        </td>
                        <td>active</td>
                     </tr>
                  </table>
               </div>
            </text>
            <category>
               <coding>
                  <system value="http://terminology.hl7.org/CodeSystem/condition-category"/>
                  <code value="problem-list-item"/>
                  <display value="Problem List Item"/>
               </coding>
            </category>
            <code>
               <coding>
                  <system value="http://snomed.info/sct"/>
                  <code value="26929004"/>
                  <display value="Alzheimer&amp;#039;s disease (disorder)"/>
               </coding>
               <text value="Alzheimer&amp;#039;s disease"/>
            </code>
            <subject>
               <reference value="urn:uuid:"/>
               <display value="Magdolna Balog"/>
            </subject>
            <onsetDateTime value="2024-06-19"/>
            <asserter>
               <reference value="urn:uuid:"/>
               <display value="Semmelweis Ignác Egészségügyi Központ és Egyetemi Oktató Kórház"/>
            </asserter>
         </Condition>
      </resource>
   </entry>
   <entry>
      <fullUrl value="urn:uuid:70aae04f-38f8-4366-8867-f1e4057b374a"/>
      <resource>
         <Condition>
            <id value="70aae04f-38f8-4366-8867-f1e4057b374a"/>
            <meta>
               <profile value="http://hl7.org/fhir/uv/ips/StructureDefinition/Condition-uv-ips"/>
            </meta>
            <text>
               <status value="generated"/>
               <div xmlns="http://www.w3.org/1999/xhtml">
                  <table class="hl7__ips">
                     <tr>
                        <td>Ischemic heart disease</td>
                        <td>
                           <span class="nb">10-May-2017</span>
                        </td>
                        <td>active</td>
                     </tr>
                  </table>
               </div>
            </text>
            <category>
               <coding>
                  <system value="http://terminology.hl7.org/CodeSystem/condition-category"/>
                  <code value="problem-list-item"/>
                  <display value="Problem List Item"/>
               </coding>
            </category>
            <code>
               <coding>
                  <system value="http://snomed.info/sct"/>
                  <code value="414545008"/>
                  <display value="Ischemic heart disease (disorder)"/>
               </coding>
               <text value="Ischemic heart disease"/>
            </code>
            <subject>
               <reference value="urn:uuid:"/>
               <display value="Magdolna Balog"/>
            </subject>
            <onsetDateTime value="2017-05-10"/>
            <asserter>
               <reference value="urn:uuid:"/>
               <display value="Semmelweis Ignác Egészségügyi Központ és Egyetemi Oktató Kórház"/>
            </asserter>
         </Condition>
      </resource>
   </entry>
   <entry>
      <fullUrl value="urn:uuid:c785b3bc-c389-4f1b-b389-77680c6783f8"/>
      <resource>
         <Condition>
            <id value="c785b3bc-c389-4f1b-b389-77680c6783f8"/>
            <meta>
               <profile value="http://hl7.org/fhir/uv/ips/StructureDefinition/Condition-uv-ips"/>
            </meta>
            <text>
               <status value="generated"/>
               <div xmlns="http://www.w3.org/1999/xhtml">
                  <table class="hl7__ips">
                     <tr>
                        <td>Atrial fibrillation</td>
                        <td>
                           <span class="nb">29-Apr-2015</span>
                        </td>
                        <td>active</td>
                     </tr>
                  </table>
               </div>
            </text>
            <category>
               <coding>
                  <system value="http://terminology.hl7.org/CodeSystem/condition-category"/>
                  <code value="problem-list-item"/>
                  <display value="Problem List Item"/>
               </coding>
            </category>
            <code>
               <coding>
                  <system value="http://snomed.info/sct"/>
                  <code value="49436004"/>
                  <display value="Atrial fibrillation (disorder)"/>
               </coding>
               <text value="Atrial fibrillation"/>
            </code>
            <subject>
               <reference value="urn:uuid:"/>
               <display value="Magdolna Balog"/>
            </subject>
            <onsetDateTime value="2015-04-29"/>
            <asserter>
               <reference value="urn:uuid:"/>
               <display value="Semmelweis Ignác Egészségügyi Központ és Egyetemi Oktató Kórház"/>
            </asserter>
         </Condition>
      </resource>
   </entry>
   <entry>
      <fullUrl value="urn:uuid:7f101760-5dfd-4c6d-9f43-d1d9e99bbf4b"/>
      <resource>
         <Condition>
            <id value="7f101760-5dfd-4c6d-9f43-d1d9e99bbf4b"/>
            <meta>
               <profile value="http://hl7.org/fhir/uv/ips/StructureDefinition/Condition-uv-ips"/>
            </meta>
            <text>
               <status value="generated"/>
               <div xmlns="http://www.w3.org/1999/xhtml">
                  <table class="hl7__ips">
                     <tr>
                        <td>Osteoporosis</td>
                        <td>
                           <span class="nb">25-Feb-2004</span>
                        </td>
                        <td>active</td>
                     </tr>
                  </table>
               </div>
            </text>
            <category>
               <coding>
                  <system value="http://terminology.hl7.org/CodeSystem/condition-category"/>
                  <code value="problem-list-item"/>
                  <display value="Problem List Item"/>
               </coding>
            </category>
            <code>
               <coding>
                  <system value="http://snomed.info/sct"/>
                  <code value="64859006"/>
                  <display value="Osteoporosis (disorder)"/>
               </coding>
               <text value="Osteoporosis"/>
            </code>
            <subject>
               <reference value="urn:uuid:"/>
               <display value="Magdolna Balog"/>
            </subject>
            <onsetDateTime value="2004-02-25"/>
            <asserter>
               <reference value="urn:uuid:"/>
               <display value="Semmelweis Ignác Egészségügyi Központ és Egyetemi Oktató Kórház"/>
            </asserter>
         </Condition>
      </resource>
   </entry>
   <entry>
      <fullUrl value="urn:uuid:b2667716-9751-4167-9aa2-c2fe3e9051f0"/>
      <resource>
         <Condition>
            <id value="b2667716-9751-4167-9aa2-c2fe3e9051f0"/>
            <meta>
               <profile value="http://hl7.org/fhir/uv/ips/StructureDefinition/Condition-uv-ips"/>
            </meta>
            <text>
               <status value="generated"/>
               <div xmlns="http://www.w3.org/1999/xhtml">
                  <table class="hl7__ips">
                     <tr>
                        <td>Prediabetes</td>
                        <td>
                           <span class="nb">21-Jan-1998</span>
                        </td>
                        <td>active</td>
                     </tr>
                  </table>
               </div>
            </text>
            <category>
               <coding>
                  <system value="http://terminology.hl7.org/CodeSystem/condition-category"/>
                  <code value="problem-list-item"/>
                  <display value="Problem List Item"/>
               </coding>
            </category>
            <code>
               <coding>
                  <system value="http://snomed.info/sct"/>
                  <code value="15777000"/>
                  <display value="Prediabetes (disorder)"/>
               </coding>
               <text value="Prediabetes"/>
            </code>
            <subject>
               <reference value="urn:uuid:"/>
               <display value="Magdolna Balog"/>
            </subject>
            <onsetDateTime value="1998-01-21"/>
            <asserter>
               <reference value="urn:uuid:"/>
               <display value="Semmelweis Ignác Egészségügyi Központ és Egyetemi Oktató Kórház"/>
            </asserter>
         </Condition>
      </resource>
   </entry>
   <entry>
      <fullUrl value="urn:uuid:e12b1007-0812-411d-b183-a5207d2a851a"/>
      <resource>
         <Condition>
            <id value="e12b1007-0812-411d-b183-a5207d2a851a"/>
            <meta>
               <profile value="http://hl7.org/fhir/uv/ips/StructureDefinition/Condition-uv-ips"/>
            </meta>
            <text>
               <status value="generated"/>
               <div xmlns="http://www.w3.org/1999/xhtml">
                  <table class="hl7__ips">
                     <tr>
                        <td>Anemia</td>
                        <td>
                           <span class="nb">21-Jan-1998</span>
                        </td>
                        <td>active</td>
                     </tr>
                  </table>
               </div>
            </text>
            <category>
               <coding>
                  <system value="http://terminology.hl7.org/CodeSystem/condition-category"/>
                  <code value="problem-list-item"/>
                  <display value="Problem List Item"/>
               </coding>
            </category>
            <code>
               <coding>
                  <system value="http://snomed.info/sct"/>
                  <code value="271737000"/>
                  <display value="Anemia (disorder)"/>
               </coding>
               <text value="Anemia"/>
            </code>
            <subject>
               <reference value="urn:uuid:"/>
               <display value="Magdolna Balog"/>
            </subject>
            <onsetDateTime value="1998-01-21"/>
            <asserter>
               <reference value="urn:uuid:"/>
               <display value="Semmelweis Ignác Egészségügyi Központ és Egyetemi Oktató Kórház"/>
            </asserter>
         </Condition>
      </resource>
   </entry>
   <entry>
      <fullUrl value="urn:uuid:f0b5c36c-0a73-42ca-bc44-33aa32b02866"/>
      <resource>
         <Condition>
            <id value="f0b5c36c-0a73-42ca-bc44-33aa32b02866"/>
            <meta>
               <profile value="http://hl7.org/fhir/uv/ips/StructureDefinition/Condition-uv-ips"/>
            </meta>
            <text>
               <status value="generated"/>
               <div xmlns="http://www.w3.org/1999/xhtml">
                  <table class="hl7__ips">
                     <tr>
                        <td>
                           <span class="grayedout">Acute bronchitis</span>
                        </td>
                        <td>
                           <span class="nb">26-Jan-2025 - 04-Feb-2025</span>
                        </td>
                        <td>
                           <span class="grayedout">inactive</span>
                        </td>
                     </tr>
                  </table>
               </div>
            </text>
            <category>
               <coding>
                  <system value="http://terminology.hl7.org/CodeSystem/condition-category"/>
                  <code value="problem-list-item"/>
                  <display value="Problem List Item"/>
               </coding>
            </category>
            <code>
               <coding>
                  <system value="http://snomed.info/sct"/>
                  <code value="10509002"/>
                  <display value="Acute bronchitis (disorder)"/>
               </coding>
               <text value="Acute bronchitis"/>
            </code>
            <subject>
               <reference value="urn:uuid:"/>
               <display value="Magdolna Balog"/>
            </subject>
            <onsetDateTime value="2025-01-26"/>
            <abatementDateTime value="2025-02-04"/>
            <asserter>
               <reference value="urn:uuid:"/>
               <display value="Semmelweis Ignác Egészségügyi Központ és Egyetemi Oktató Kórház"/>
            </asserter>
         </Condition>
      </resource>
   </entry>
   <entry>
      <fullUrl value="urn:uuid:3d241df9-1f76-4110-bfd6-f220e5f9b6be"/>
      <resource>
         <Condition>
            <id value="3d241df9-1f76-4110-bfd6-f220e5f9b6be"/>
            <meta>
               <profile value="http://hl7.org/fhir/uv/ips/StructureDefinition/Condition-uv-ips"/>
            </meta>
            <text>
               <status value="generated"/>
               <div xmlns="http://www.w3.org/1999/xhtml">
                  <table class="hl7__ips">
                     <tr>
                        <td>
                           <span class="grayedout">Sprain of wrist</span>
                        </td>
                        <td>
                           <span class="nb">18-May-2024 - 23-Jun-2024</span>
                        </td>
                        <td>
                           <span class="grayedout">inactive</span>
                        </td>
                     </tr>
                  </table>
               </div>
            </text>
            <category>
               <coding>
                  <system value="http://terminology.hl7.org/CodeSystem/condition-category"/>
                  <code value="problem-list-item"/>
                  <display value="Problem List Item"/>
               </coding>
            </category>
            <code>
               <coding>
                  <system value="http://snomed.info/sct"/>
                  <code value="70704007"/>
                  <display value="Sprain of wrist (disorder)"/>
               </coding>
               <text value="Sprain of wrist"/>
            </code>
            <subject>
               <reference value="urn:uuid:"/>
               <display value="Magdolna Balog"/>
            </subject>
            <onsetDateTime value="2024-05-18"/>
            <abatementDateTime value="2024-06-23"/>
            <asserter>
               <reference value="urn:uuid:"/>
               <display value="Semmelweis Ignác Egészségügyi Központ és Egyetemi Oktató Kórház"/>
            </asserter>
         </Condition>
      </resource>
   </entry>
   <entry>
      <fullUrl value="urn:uuid:7b5a4e91-df1b-4db7-b071-f2c1641ea354"/>
      <resource>
         <Condition>
            <id value="7b5a4e91-df1b-4db7-b071-f2c1641ea354"/>
            <meta>
               <profile value="http://hl7.org/fhir/uv/ips/StructureDefinition/Condition-uv-ips"/>
            </meta>
            <text>
               <status value="generated"/>
               <div xmlns="http://www.w3.org/1999/xhtml">
                  <table class="hl7__ips">
                     <tr>
                        <td>
                           <span class="grayedout">Streptococcal sore throat</span>
                        </td>
                        <td>
                           <span class="nb">28-Aug-2019 - 07-Sep-2019</span>
                        </td>
                        <td>
                           <span class="grayedout">inactive</span>
                        </td>
                     </tr>
                  </table>
               </div>
            </text>
            <category>
               <coding>
                  <system value="http://terminology.hl7.org/CodeSystem/condition-category"/>
                  <code value="problem-list-item"/>
                  <display value="Problem List Item"/>
               </coding>
            </category>
            <code>
               <coding>
                  <system value="http://snomed.info/sct"/>
                  <code value="43878008"/>
                  <display value="Streptococcal sore throat (disorder)"/>
               </coding>
               <text value="Streptococcal sore throat"/>
            </code>
            <subject>
               <reference value="urn:uuid:"/>
               <display value="Magdolna Balog"/>
            </subject>
            <onsetDateTime value="2019-08-28"/>
            <abatementDateTime value="2019-09-07"/>
            <asserter>
               <reference value="urn:uuid:"/>
               <display value="Semmelweis Ignác Egészségügyi Központ és Egyetemi Oktató Kórház"/>
            </asserter>
         </Condition>
      </resource>
   </entry>
   <entry>
      <fullUrl value="urn:uuid:77bef903-7013-48a2-821b-e60adca07434"/>
      <resource>
         <Medication>
            <id value="77bef903-7013-48a2-821b-e60adca07434"/>
            <meta>
               <profile value="http://hl7.eu/fhir/eps/StructureDefinition/Medication-eu-eps"/>
            </meta>
            <text>
               <status value="generated"/>
               <div xmlns="http://www.w3.org/1999/xhtml">Digoxin 125 microgram oral tablet</div>
            </text>
            <code>
               <coding>
                  <system value="http://snomed.info/sct"/>
                  <code value="317896006"/>
                  <display value="Digoxin 125 microgram oral tablet"/>
               </coding>
               <text value="Digoxin 125 microgram oral tablet"/>
            </code>
         </Medication>
      </resource>
   </entry>
   <entry>
      <fullUrl value="urn:uuid:5be8047f-7841-439a-bb27-3b23e2163805"/>
      <resource>
         <MedicationStatement>
            <id value="5be8047f-7841-439a-bb27-3b23e2163805"/>
            <meta>
               <profile value="http://hl7.eu/fhir/eps/StructureDefinition/MedicationStatement-eu-eps"/>
            </meta>
            <text>
               <status value="generated"/>
               <div xmlns="http://www.w3.org/1999/xhtml">
                  <table class="hl7__ips first25">
                     <tr>
                        <th>Medication</th>
                        <th>Since</th>
                        <th>Form</th>
                        <th>Dosage</th>
                        <th>Reason</th>
                     </tr>
                     <tr>
                        <td>Digoxin 125 microgram oral tablet</td>
                        <td>
                           <span class="nb">2025-06-25</span>
                        </td>
                        <td>-</td>
                        <td>1 tablet (125 microgram) once daily</td>
                        <td>Atrial fibrillation (disorder)</td>
                     </tr>
                  </table>
               </div>
            </text>
            <status value="active"/>
            <medicationReference>
               <reference value="urn:uuid:77bef903-7013-48a2-821b-e60adca07434"/>
               <display value="Digoxin 125 microgram oral tablet"/>
            </medicationReference>
            <subject>
               <reference value="urn:uuid:b90f5ea3-924c-4963-9d0b-455120235e02"/>
               <display value="Magdolna Balog"/>
            </subject>
            <effectivePeriod>
               <start value="2025-06-25"/>
            </effectivePeriod>
            <reasonCode>
               <coding>
                  <system value="http://snomed.info/sct"/>
                  <code value="49436004"/>
                  <display value="Atrial fibrillation (disorder)"/>
               </coding>
            </reasonCode>
            <dosage>
               <text value="1 tablet (125 microgram) once daily"/>
               <timing>
                  <repeat>
                     <frequency value="1"/>
                     <period value="1"/>
                     <periodUnit value="d"/>
                  </repeat>
               </timing>
               <asNeededBoolean value="false"/>
               <doseAndRate>
                  <doseQuantity>
                     <value value="1"/>
                     <unit value="{tbl}"/>
                     <system value="$ucum"/>
                     <code value="{tbl}"/>
                  </doseQuantity>
               </doseAndRate>
            </dosage>
         </MedicationStatement>
      </resource>
   </entry>
   <entry>
      <fullUrl value="urn:uuid:23b93efe-519a-42d5-b8d6-20b22ed5aab6"/>
      <resource>
         <Medication>
            <id value="23b93efe-519a-42d5-b8d6-20b22ed5aab6"/>
            <meta>
               <profile value="http://hl7.eu/fhir/eps/StructureDefinition/Medication-eu-eps"/>
            </meta>
            <text>
               <status value="generated"/>
               <div xmlns="http://www.w3.org/1999/xhtml">Warfarin sodium 5 mg oral tablet</div>
            </text>
            <code>
               <coding>
                  <system value="http://snomed.info/sct"/>
                  <code value="319735007"/>
                  <display value="Warfarin sodium 5 mg oral tablet"/>
               </coding>
               <text value="Warfarin sodium 5 mg oral tablet"/>
            </code>
         </Medication>
      </resource>
   </entry>
   <entry>
      <fullUrl value="urn:uuid:5a4afa4e-6288-4b4c-86c2-0e95af78ee31"/>
      <resource>
         <MedicationStatement>
            <id value="5a4afa4e-6288-4b4c-86c2-0e95af78ee31"/>
            <meta>
               <profile value="http://hl7.eu/fhir/eps/StructureDefinition/MedicationStatement-eu-eps"/>
            </meta>
            <text>
               <status value="generated"/>
               <div xmlns="http://www.w3.org/1999/xhtml">
                  <table class="hl7__ips first25">
                     <tr>
                        <th>Medication</th>
                        <th>Since</th>
                        <th>Form</th>
                        <th>Dosage</th>
                        <th>Reason</th>
                     </tr>
                     <tr>
                        <td>Warfarin sodium 5 mg oral tablet</td>
                        <td>
                           <span class="nb">2025-06-25</span>
                        </td>
                        <td>-</td>
                        <td>1 tablet (5 mg) by mouth once daily</td>
                        <td>Atrial fibrillation (disorder)</td>
                     </tr>
                  </table>
               </div>
            </text>
            <status value="active"/>
            <medicationReference>
               <reference value="urn:uuid:23b93efe-519a-42d5-b8d6-20b22ed5aab6"/>
               <display value="Warfarin sodium 5 mg oral tablet"/>
            </medicationReference>
            <subject>
               <reference value="urn:uuid:b90f5ea3-924c-4963-9d0b-455120235e02"/>
               <display value="Magdolna Balog"/>
            </subject>
            <effectivePeriod>
               <start value="2025-06-25"/>
            </effectivePeriod>
            <reasonCode>
               <coding>
                  <system value="http://snomed.info/sct"/>
                  <code value="49436004"/>
                  <display value="Atrial fibrillation (disorder)"/>
               </coding>
            </reasonCode>
            <dosage>
               <text value="1 tablet (5 mg) by mouth once daily"/>
               <timing>
                  <repeat>
                     <frequency value="1"/>
                     <period value="1"/>
                     <periodUnit value="d"/>
                  </repeat>
               </timing>
               <asNeededBoolean value="false"/>
               <doseAndRate>
                  <doseQuantity>
                     <value value="1"/>
                     <unit value="{tbl}"/>
                     <system value="$ucum"/>
                     <code value="{tbl}"/>
                  </doseQuantity>
               </doseAndRate>
            </dosage>
         </MedicationStatement>
      </resource>
   </entry>
   <entry>
      <fullUrl value="urn:uuid:689ed94d-c74f-4a7b-8537-4af200e3dd08"/>
      <resource>
         <Medication>
            <id value="689ed94d-c74f-4a7b-8537-4af200e3dd08"/>
            <meta>
               <profile value="http://hl7.eu/fhir/eps/StructureDefinition/Medication-eu-eps"/>
            </meta>
            <text>
               <status value="generated"/>
               <div xmlns="http://www.w3.org/1999/xhtml">Verapamil hydrochloride 80 mg oral tablet</div>
            </text>
            <code>
               <coding>
                  <system value="http://snomed.info/sct"/>
                  <code value="318205007"/>
                  <display value="Verapamil hydrochloride 80 mg oral tablet"/>
               </coding>
               <text value="Verapamil hydrochloride 80 mg oral tablet"/>
            </code>
         </Medication>
      </resource>
   </entry>
   <entry>
      <fullUrl value="urn:uuid:d3b0c24c-a1fd-4a0f-bbea-776510ff0adb"/>
      <resource>
         <MedicationStatement>
            <id value="d3b0c24c-a1fd-4a0f-bbea-776510ff0adb"/>
            <meta>
               <profile value="http://hl7.eu/fhir/eps/StructureDefinition/MedicationStatement-eu-eps"/>
            </meta>
            <text>
               <status value="generated"/>
               <div xmlns="http://www.w3.org/1999/xhtml">
                  <table class="hl7__ips first25">
                     <tr>
                        <th>Medication</th>
                        <th>Since</th>
                        <th>Form</th>
                        <th>Dosage</th>
                        <th>Reason</th>
                     </tr>
                     <tr>
                        <td>Verapamil hydrochloride 80 mg oral tablet</td>
                        <td>
                           <span class="nb">2025-06-25</span>
                        </td>
                        <td>-</td>
                        <td>1 tablet (80 mg) three times daily</td>
                        <td>Atrial fibrillation (disorder)</td>
                     </tr>
                  </table>
               </div>
            </text>
            <status value="active"/>
            <medicationReference>
               <reference value="urn:uuid:689ed94d-c74f-4a7b-8537-4af200e3dd08"/>
               <display value="Verapamil hydrochloride 80 mg oral tablet"/>
            </medicationReference>
            <subject>
               <reference value="urn:uuid:b90f5ea3-924c-4963-9d0b-455120235e02"/>
               <display value="Magdolna Balog"/>
            </subject>
            <effectivePeriod>
               <start value="2025-06-25"/>
            </effectivePeriod>
            <reasonCode>
               <coding>
                  <system value="http://snomed.info/sct"/>
                  <code value="49436004"/>
                  <display value="Atrial fibrillation (disorder)"/>
               </coding>
            </reasonCode>
            <dosage>
               <text value="1 tablet (80 mg) three times daily"/>
               <timing>
                  <repeat>
                     <frequency value="3"/>
                     <period value="1"/>
                     <periodUnit value="d"/>
                  </repeat>
               </timing>
               <asNeededBoolean value="false"/>
               <doseAndRate>
                  <doseQuantity>
                     <value value="1"/>
                     <unit value="{tbl}"/>
                     <system value="$ucum"/>
                     <code value="{tbl}"/>
                  </doseQuantity>
               </doseAndRate>
            </dosage>
         </MedicationStatement>
      </resource>
   </entry>
   <entry>
      <fullUrl value="urn:uuid:6e19fdc4-0082-482c-ad62-abc3e5ae59c3"/>
      <resource>
         <Medication>
            <id value="6e19fdc4-0082-482c-ad62-abc3e5ae59c3"/>
            <meta>
               <profile value="http://hl7.eu/fhir/eps/StructureDefinition/Medication-eu-eps"/>
            </meta>
            <text>
               <status value="generated"/>
               <div xmlns="http://www.w3.org/1999/xhtml">Alendronic acid (as alendronate sodium) 10 mg oral tablet</div>
            </text>
            <code>
               <coding>
                  <system value="http://snomed.info/sct"/>
                  <code value="783144007"/>
                  <display value="Alendronic acid (as alendronate sodium) 10 mg oral tablet"/>
               </coding>
               <text value="Alendronic acid (as alendronate sodium) 10 mg oral tablet"/>
            </code>
         </Medication>
      </resource>
   </entry>
   <entry>
      <fullUrl value="urn:uuid:0ea368bb-4eab-4003-8db9-63c809d63e31"/>
      <resource>
         <MedicationStatement>
            <id value="0ea368bb-4eab-4003-8db9-63c809d63e31"/>
            <meta>
               <profile value="http://hl7.eu/fhir/eps/StructureDefinition/MedicationStatement-eu-eps"/>
            </meta>
            <text>
               <status value="generated"/>
               <div xmlns="http://www.w3.org/1999/xhtml">
                  <table class="hl7__ips first25">
                     <tr>
                        <th>Medication</th>
                        <th>Since</th>
                        <th>Form</th>
                        <th>Dosage</th>
                        <th>Reason</th>
                     </tr>
                     <tr>
                        <td>Alendronic acid (as alendronate sodium) 10 mg oral tablet</td>
                        <td>
                           <span class="nb">2025-06-25</span>
                        </td>
                        <td>-</td>
                        <td>1 tablet (10 mg) once daily</td>
                        <td>Osteoporosis (disorder)</td>
                     </tr>
                  </table>
               </div>
            </text>
            <status value="active"/>
            <medicationReference>
               <reference value="urn:uuid:6e19fdc4-0082-482c-ad62-abc3e5ae59c3"/>
               <display value="Alendronic acid (as alendronate sodium) 10 mg oral tablet"/>
            </medicationReference>
            <subject>
               <reference value="urn:uuid:b90f5ea3-924c-4963-9d0b-455120235e02"/>
               <display value="Magdolna Balog"/>
            </subject>
            <effectivePeriod>
               <start value="2025-06-25"/>
            </effectivePeriod>
            <reasonCode>
               <coding>
                  <system value="http://snomed.info/sct"/>
                  <code value="64859006"/>
                  <display value="Osteoporosis (disorder)"/>
               </coding>
            </reasonCode>
            <dosage>
               <text value="1 tablet (10 mg) once daily"/>
               <timing>
                  <repeat>
                     <frequency value="1"/>
                     <period value="1"/>
                     <periodUnit value="d"/>
                  </repeat>
               </timing>
               <asNeededBoolean value="false"/>
               <doseAndRate>
                  <doseQuantity>
                     <value value="1"/>
                     <unit value="{tbl}"/>
                     <code value="{tbl}"/>
                  </doseQuantity>
               </doseAndRate>
            </dosage>
         </MedicationStatement>
      </resource>
   </entry>
   <entry>
      <fullUrl value="urn:uuid:19536529-240f-4e8d-8e14-1cd0b8d1fd4e"/>
      <resource>
         <Medication>
            <id value="19536529-240f-4e8d-8e14-1cd0b8d1fd4e"/>
            <meta>
               <profile value="http://hl7.eu/fhir/eps/StructureDefinition/Medication-eu-eps"/>
            </meta>
            <text>
               <status value="generated"/>
               <div xmlns="http://www.w3.org/1999/xhtml">Galantamine (as galantamine hydrobromide) 4 mg oral tablet</div>
            </text>
            <code>
               <coding>
                  <system value="http://snomed.info/sct"/>
                  <code value="323381002"/>
                  <display value="Galantamine (as galantamine hydrobromide) 4 mg oral tablet"/>
               </coding>
               <text value="Galantamine (as galantamine hydrobromide) 4 mg oral tablet"/>
            </code>
         </Medication>
      </resource>
   </entry>
   <entry>
      <fullUrl value="urn:uuid:daaf0dda-3442-4152-a031-6909f8955900"/>
      <resource>
         <MedicationStatement>
            <id value="daaf0dda-3442-4152-a031-6909f8955900"/>
            <meta>
               <profile value="http://hl7.eu/fhir/eps/StructureDefinition/MedicationStatement-eu-eps"/>
            </meta>
            <text>
               <status value="generated"/>
               <div xmlns="http://www.w3.org/1999/xhtml">
                  <table class="hl7__ips first25">
                     <tr>
                        <th>Medication</th>
                        <th>Since</th>
                        <th>Form</th>
                        <th>Dosage</th>
                        <th>Reason</th>
                     </tr>
                     <tr>
                        <td>Galantamine (as galantamine hydrobromide) 4 mg oral tablet</td>
                        <td>
                           <span class="nb">2024-06-19</span>
                        </td>
                        <td>-</td>
                        <td>1 tablet (4 mg) once daily</td>
                        <td>Alzheimer's disease (disorder)</td>
                     </tr>
                  </table>
               </div>
            </text>
            <status value="active"/>
            <medicationReference>
               <reference value="urn:uuid:19536529-240f-4e8d-8e14-1cd0b8d1fd4e"/>
               <display value="Galantamine (as galantamine hydrobromide) 4 mg oral tablet"/>
            </medicationReference>
            <subject>
               <reference value="urn:uuid:b90f5ea3-924c-4963-9d0b-455120235e02"/>
               <display value="Magdolna Balog"/>
            </subject>
            <effectivePeriod>
               <start value="2024-06-19"/>
            </effectivePeriod>
            <reasonCode>
               <coding>
                  <system value="http://snomed.info/sct"/>
                  <code value="26929004"/>
                  <display value="Alzheimer&amp;#039;s disease (disorder)"/>
               </coding>
            </reasonCode>
            <dosage>
               <text value="1 tablet (4 mg) once daily"/>
               <timing>
                  <repeat>
                     <frequency value="1"/>
                     <period value="1"/>
                     <periodUnit value="d"/>
                  </repeat>
               </timing>
               <asNeededBoolean value="false"/>
               <doseAndRate>
                  <doseQuantity>
                     <value value="1"/>
                     <unit value="{tbl}"/>
                     <code value="{tbl}"/>
                  </doseQuantity>
               </doseAndRate>
            </dosage>
         </MedicationStatement>
      </resource>
   </entry>
   <entry>
      <fullUrl value="urn:uuid:04d3d830-eb33-4372-9371-9a473c3d3104"/>
      <resource>
         <Medication>
            <id value="04d3d830-eb33-4372-9371-9a473c3d3104"/>
            <meta>
               <profile value="http://hl7.eu/fhir/eps/StructureDefinition/Medication-eu-eps"/>
            </meta>
            <text>
               <status value="generated"/>
               <div xmlns="http://www.w3.org/1999/xhtml">Clopidogrel (as clopidogrel bisulfate) 75 mg oral tablet</div>
            </text>
            <code>
               <coding>
                  <system value="http://snomed.info/sct"/>
                  <code value="783586007"/>
                  <display value="Clopidogrel (as clopidogrel bisulfate) 75 mg oral tablet"/>
               </coding>
               <text value="Clopidogrel (as clopidogrel bisulfate) 75 mg oral tablet"/>
            </code>
         </Medication>
      </resource>
   </entry>
   <entry>
      <fullUrl value="urn:uuid:fb5c0878-bd04-42ff-a29d-0dd31b9f9d8e"/>
      <resource>
         <MedicationStatement>
            <id value="fb5c0878-bd04-42ff-a29d-0dd31b9f9d8e"/>
            <meta>
               <profile value="http://hl7.eu/fhir/eps/StructureDefinition/MedicationStatement-eu-eps"/>
            </meta>
            <text>
               <status value="generated"/>
               <div xmlns="http://www.w3.org/1999/xhtml">
                  <table class="hl7__ips first25">
                     <tr>
                        <th>Medication</th>
                        <th>Since</th>
                        <th>Form</th>
                        <th>Dosage</th>
                        <th>Reason</th>
                     </tr>
                     <tr>
                        <td>Clopidogrel (as clopidogrel bisulfate) 75 mg oral tablet</td>
                        <td>
                           <span class="nb">2017-05-17</span>
                        </td>
                        <td>-</td>
                        <td>1 tablet (75 mg) by mouth once daily</td>
                        <td>-</td>
                     </tr>
                  </table>
               </div>
            </text>
            <status value="active"/>
            <medicationReference>
               <reference value="urn:uuid:04d3d830-eb33-4372-9371-9a473c3d3104"/>
               <display value="Clopidogrel (as clopidogrel bisulfate) 75 mg oral tablet"/>
            </medicationReference>
            <subject>
               <reference value="urn:uuid:b90f5ea3-924c-4963-9d0b-455120235e02"/>
               <display value="Magdolna Balog"/>
            </subject>
            <effectivePeriod>
               <start value="2017-05-17"/>
            </effectivePeriod>
            <dosage>
               <text value="1 tablet (75 mg) by mouth once daily"/>
               <timing>
                  <repeat>
                     <frequency value="1"/>
                     <period value="1"/>
                     <periodUnit value="d"/>
                  </repeat>
               </timing>
               <asNeededBoolean value="false"/>
               <doseAndRate>
                  <doseQuantity>
                     <value value="1"/>
                     <unit value="{tbl}"/>
                     <code value="{tbl}"/>
                  </doseQuantity>
               </doseAndRate>
            </dosage>
         </MedicationStatement>
      </resource>
   </entry>
   <entry>
      <fullUrl value="urn:uuid:e85f8fd3-f288-4946-b78d-4f9f04a6b248"/>
      <resource>
         <Medication>
            <id value="e85f8fd3-f288-4946-b78d-4f9f04a6b248"/>
            <meta>
               <profile value="http://hl7.eu/fhir/eps/StructureDefinition/Medication-eu-eps"/>
            </meta>
            <text>
               <status value="generated"/>
               <div xmlns="http://www.w3.org/1999/xhtml">Simvastatin 20 mg oral tablet</div>
            </text>
            <code>
               <coding>
                  <system value="http://snomed.info/sct"/>
                  <code value="319997009"/>
                  <display value="Simvastatin 20 mg oral tablet"/>
               </coding>
               <text value="Simvastatin 20 mg oral tablet"/>
            </code>
         </Medication>
      </resource>
   </entry>
   <entry>
      <fullUrl value="urn:uuid:a4a76c51-be3d-46e5-a0ba-dcf7ab961e07"/>
      <resource>
         <MedicationStatement>
            <id value="a4a76c51-be3d-46e5-a0ba-dcf7ab961e07"/>
            <meta>
               <profile value="http://hl7.eu/fhir/eps/StructureDefinition/MedicationStatement-eu-eps"/>
            </meta>
            <text>
               <status value="generated"/>
               <div xmlns="http://www.w3.org/1999/xhtml">
                  <table class="hl7__ips first25">
                     <tr>
                        <th>Medication</th>
                        <th>Since</th>
                        <th>Form</th>
                        <th>Dosage</th>
                        <th>Reason</th>
                     </tr>
                     <tr>
                        <td>Simvastatin 20 mg oral tablet</td>
                        <td>
                           <span class="nb">2017-05-17</span>
                        </td>
                        <td>-</td>
                        <td>1 tablet (20 mg) by mouth once daily</td>
                        <td>-</td>
                     </tr>
                  </table>
               </div>
            </text>
            <status value="active"/>
            <medicationReference>
               <reference value="urn:uuid:e85f8fd3-f288-4946-b78d-4f9f04a6b248"/>
               <display value="Simvastatin 20 mg oral tablet"/>
            </medicationReference>
            <subject>
               <reference value="urn:uuid:b90f5ea3-924c-4963-9d0b-455120235e02"/>
               <display value="Magdolna Balog"/>
            </subject>
            <effectivePeriod>
               <start value="2017-05-17"/>
            </effectivePeriod>
            <dosage>
               <text value="1 tablet (20 mg) by mouth once daily"/>
               <timing>
                  <repeat>
                     <frequency value="1"/>
                     <period value="1"/>
                     <periodUnit value="d"/>
                  </repeat>
               </timing>
               <asNeededBoolean value="false"/>
               <doseAndRate>
                  <doseQuantity>
                     <value value="1"/>
                     <unit value="{tbl}"/>
                     <code value="{tbl}"/>
                  </doseQuantity>
               </doseAndRate>
            </dosage>
         </MedicationStatement>
      </resource>
   </entry>
   <entry>
      <fullUrl value="urn:uuid:c45ce335-9cb6-4a53-8f01-03a4063f924f"/>
      <resource>
         <Medication>
            <id value="c45ce335-9cb6-4a53-8f01-03a4063f924f"/>
            <meta>
               <profile value="http://hl7.eu/fhir/eps/StructureDefinition/Medication-eu-eps"/>
            </meta>
            <text>
               <status value="generated"/>
               <div xmlns="http://www.w3.org/1999/xhtml">Nitroglycerin 400 microgram/actuation sublingual spray</div>
            </text>
            <code>
               <coding>
                  <system value="http://snomed.info/sct"/>
                  <code value="425176000"/>
                  <display value="Nitroglycerin 400 microgram/actuation sublingual spray"/>
               </coding>
               <text value="Nitroglycerin 400 microgram/actuation sublingual spray"/>
            </code>
         </Medication>
      </resource>
   </entry>
   <entry>
      <fullUrl value="urn:uuid:6e350fde-160f-44f8-a516-6b265da14447"/>
      <resource>
         <MedicationStatement>
            <id value="6e350fde-160f-44f8-a516-6b265da14447"/>
            <meta>
               <profile value="http://hl7.eu/fhir/eps/StructureDefinition/MedicationStatement-eu-eps"/>
            </meta>
            <text>
               <status value="generated"/>
               <div xmlns="http://www.w3.org/1999/xhtml">
                  <table class="hl7__ips first25">
                     <tr>
                        <th>Medication</th>
                        <th>Since</th>
                        <th>Form</th>
                        <th>Dosage</th>
                        <th>Reason</th>
                     </tr>
                     <tr>
                        <td>Nitroglycerin 400 microgram/actuation sublingual spray</td>
                        <td>
                           <span class="nb">2017-05-17</span>
                        </td>
                        <td>-</td>
                        <td>1 spray (400 micrograms) under the tongue as needed for chest pain, may repeat every 5 minutes as needed, up to 3 sprays in 15 minutes</td>
                        <td>-</td>
                     </tr>
                  </table>
               </div>
            </text>
            <status value="active"/>
            <medicationReference>
               <reference value="urn:uuid:c45ce335-9cb6-4a53-8f01-03a4063f924f"/>
               <display value="Nitroglycerin 400 microgram/actuation sublingual spray"/>
            </medicationReference>
            <subject>
               <reference value="urn:uuid:b90f5ea3-924c-4963-9d0b-455120235e02"/>
               <display value="Magdolna Balog"/>
            </subject>
            <effectivePeriod>
               <start value="2017-05-17"/>
            </effectivePeriod>
            <dosage>
               <text value="1 spray (400 micrograms) under the tongue as needed for chest pain, may repeat every 5 minutes as needed, up to 3 sprays in 15 minutes"/>
               <timing>
                  <repeat>
                     <frequency value="1"/>
                     <period value="5"/>
                     <periodUnit value="min"/>
                  </repeat>
               </timing>
               <asNeededBoolean value="true"/>
               <doseAndRate>
                  <doseQuantity>
                     <value value="400"/>
                     <unit value="mcg"/>
                     <code value="ug"/>
                  </doseQuantity>
               </doseAndRate>
            </dosage>
         </MedicationStatement>
      </resource>
   </entry>
   <entry>
      <fullUrl value="urn:uuid:92ae35b4-bbcf-4e53-a1c9-7c108fb130a0"/>
      <resource>
         <Medication>
            <id value="92ae35b4-bbcf-4e53-a1c9-7c108fb130a0"/>
            <meta>
               <profile value="http://hl7.eu/fhir/eps/StructureDefinition/Medication-eu-eps"/>
            </meta>
            <text>
               <status value="generated"/>
               <div xmlns="http://www.w3.org/1999/xhtml">Metoprolol tartrate (as metoprolol succinate) 100 mg prolonged-release oral tablet</div>
            </text>
            <code>
               <coding>
                  <system value="http://snomed.info/sct"/>
                  <code value="879980009"/>
                  <display value="Metoprolol tartrate (as metoprolol succinate) 100 mg prolonged-release oral tablet"/>
               </coding>
               <text value="Metoprolol tartrate (as metoprolol succinate) 100 mg prolonged-release oral tablet"/>
            </code>
         </Medication>
      </resource>
   </entry>
   <entry>
      <fullUrl value="urn:uuid:837db732-a81b-4e32-a634-6cf5d87e30e3"/>
      <resource>
         <MedicationStatement>
            <id value="837db732-a81b-4e32-a634-6cf5d87e30e3"/>
            <meta>
               <profile value="http://hl7.eu/fhir/eps/StructureDefinition/MedicationStatement-eu-eps"/>
            </meta>
            <text>
               <status value="generated"/>
               <div xmlns="http://www.w3.org/1999/xhtml">
                  <table class="hl7__ips first25">
                     <tr>
                        <th>Medication</th>
                        <th>Since</th>
                        <th>Form</th>
                        <th>Dosage</th>
                        <th>Reason</th>
                     </tr>
                     <tr>
                        <td>Metoprolol tartrate (as metoprolol succinate) 100 mg prolonged-release oral tablet</td>
                        <td>
                           <span class="nb">2017-05-17</span>
                        </td>
                        <td>-</td>
                        <td>1 tablet (100 mg) once daily</td>
                        <td>-</td>
                     </tr>
                  </table>
               </div>
            </text>
            <status value="active"/>
            <medicationReference>
               <reference value="urn:uuid:92ae35b4-bbcf-4e53-a1c9-7c108fb130a0"/>
               <display value="Metoprolol tartrate (as metoprolol succinate) 100 mg prolonged-release oral tablet"/>
            </medicationReference>
            <subject>
               <reference value="urn:uuid:b90f5ea3-924c-4963-9d0b-455120235e02"/>
               <display value="Magdolna Balog"/>
            </subject>
            <effectivePeriod>
               <start value="2017-05-17"/>
            </effectivePeriod>
            <dosage>
               <text value="1 tablet (100 mg) once daily"/>
               <timing>
                  <repeat>
                     <frequency value="1"/>
                     <period value="1"/>
                     <periodUnit value="d"/>
                  </repeat>
               </timing>
               <asNeededBoolean value="false"/>
               <doseAndRate>
                  <doseQuantity>
                     <value value="1"/>
                     <unit value="{tbl}"/>
                     <code value="{tbl}"/>
                  </doseQuantity>
               </doseAndRate>
            </dosage>
         </MedicationStatement>
      </resource>
   </entry>
   <entry>
      <fullUrl value="urn:uuid:6884a4b9-40a1-4d32-bf49-83c425ef1726"/>
      <resource>
         <Immunization>
            <id value="6884a4b9-40a1-4d32-bf49-83c425ef1726"/>
            <meta>
               <profile value="http://hl7.org/fhir/uv/ips/StructureDefinition/Immunization-uv-ips"/>
            </meta>
            <text>
               <status value="generated"/>
               <div xmlns="http://www.w3.org/1999/xhtml">
                  <table class="hl7__ips">
                     <tr>
                        <td>Clostridium tetani toxoid antigen adsorbed only vaccine product</td>
                        <td>
                           <span class="nb">05-Feb-2025</span>
                        </td>
                     </tr>
                  </table>
               </div>
            </text>
            <status value="completed"/>
            <vaccineCode>
               <coding>
                  <system value="http://snomed.info/sct"/>
                  <code value="777725002"/>
                  <display value="Vaccine product containing only Clostridium tetani toxoid antigen adsorbed"/>
               </coding>
               <coding>
                  <system value="http://www.whocc.no/atc"/>
                  <code value="J07AM51"/>
                  <display value="Diphtheria-tetanus vaccines, adult type"/>
               </coding>
               <text value="Clostridium tetani toxoid antigen adsorbed only vaccine product"/>
            </vaccineCode>
            <patient>
               <reference value="urn:uuid:b90f5ea3-924c-4963-9d0b-455120235e02"/>
               <display value="Magdolna Balog"/>
            </patient>
            <occurrenceDateTime value="2025-02-05"/>
            <lotNumber value="TY-BzsElLw"/>
            <expirationDate value="2025-04-27"/>
            <site>
               <coding>
                  <system value="http://snomed.info/sct"/>
                  <code value="244979005"/>
                  <display value="Entire muscle of upper arm"/>
               </coding>
               <text value="Entire muscle of upper arm"/>
            </site>
            <route>
               <coding>
                  <system value="http://snomed.info/sct"/>
                  <code value="78421000"/>
                  <display value="Intramuscular route"/>
               </coding>
               <text value="Intramuscular route"/>
            </route>
         </Immunization>
      </resource>
   </entry>
   <entry>
      <fullUrl value="urn:uuid:0986f78b-b218-47d2-80af-6baed4d88d4c"/>
      <resource>
         <Immunization>
            <id value="0986f78b-b218-47d2-80af-6baed4d88d4c"/>
            <meta>
               <profile value="http://hl7.org/fhir/uv/ips/StructureDefinition/Immunization-uv-ips"/>
            </meta>
            <text>
               <status value="generated"/>
               <div xmlns="http://www.w3.org/1999/xhtml">
                  <table class="hl7__ips">
                     <tr>
                        <td>Influenza virus antigen only vaccine product</td>
                        <td>
                           <span class="nb">05-Feb-2025</span>
                        </td>
                     </tr>
                  </table>
               </div>
            </text>
            <status value="completed"/>
            <vaccineCode>
               <coding>
                  <system value="http://snomed.info/sct"/>
                  <code value="1181000221105"/>
                  <display value="Vaccine product containing Influenza virus antigen"/>
               </coding>
               <coding>
                  <system value="http://www.whocc.no/atc"/>
                  <code value="J07BB02"/>
                  <display value="Influenza, inactivated, split virus"/>
               </coding>
               <text value="Influenza virus antigen only vaccine product"/>
            </vaccineCode>
            <patient>
               <reference value="urn:uuid:b90f5ea3-924c-4963-9d0b-455120235e02"/>
               <display value="Magdolna Balog"/>
            </patient>
            <occurrenceDateTime value="2025-02-05"/>
            <lotNumber value="VF-ARv6gS"/>
            <expirationDate value="2025-08-10"/>
            <site>
               <coding>
                  <system value="http://snomed.info/sct"/>
                  <code value="244979005"/>
                  <display value="Entire muscle of upper arm"/>
               </coding>
               <text value="Entire muscle of upper arm"/>
            </site>
            <route>
               <coding>
                  <system value="http://snomed.info/sct"/>
                  <code value="78421000"/>
                  <display value="Intramuscular route"/>
               </coding>
               <text value="Intramuscular route"/>
            </route>
         </Immunization>
      </resource>
   </entry>
   <entry>
      <fullUrl value="urn:uuid:938b6ca9-001d-4621-9b90-bcaeab90a4b7"/>
      <resource>
         <Procedure>
            <id value="938b6ca9-001d-4621-9b90-bcaeab90a4b7"/>
            <meta>
               <profile value="http://hl7.org/fhir/uv/ips/StructureDefinition/Procedure-uv-ips"/>
            </meta>
            <text>
               <status value="generated"/>
               <div xmlns="http://www.w3.org/1999/xhtml">
                  <table class="hl7__ips">
                     <tr>
                        <td>Assessment of health and social care needs</td>
                        <td>
                           <span class="nb">05-Feb-2025</span>
                        </td>
                        <td>-</td>
                     </tr>
                  </table>
               </div>
            </text>
            <status value="completed"/>
            <code>
               <coding>
                  <system value="http://snomed.info/sct"/>
                  <code value="710824005"/>
                  <display value="Assessment of health and social care needs (procedure)"/>
               </coding>
               <text value="Assessment of health and social care needs"/>
            </code>
            <subject>
               <reference value="urn:uuid:"/>
               <display value="Magdolna Balog"/>
            </subject>
            <performedDateTime value="2025-02-05"/>
         </Procedure>
      </resource>
   </entry>
   <entry>
      <fullUrl value="urn:uuid:aafb7f55-0d2b-478d-af1c-214a6aaf6ab4"/>
      <resource>
         <Procedure>
            <id value="aafb7f55-0d2b-478d-af1c-214a6aaf6ab4"/>
            <meta>
               <profile value="http://hl7.org/fhir/uv/ips/StructureDefinition/Procedure-uv-ips"/>
            </meta>
            <text>
               <status value="generated"/>
               <div xmlns="http://www.w3.org/1999/xhtml">
                  <table class="hl7__ips">
                     <tr>
                        <td>Screening for drug abuse</td>
                        <td>
                           <span class="nb">05-Feb-2025</span>
                        </td>
                        <td>-</td>
                     </tr>
                  </table>
               </div>
            </text>
            <status value="completed"/>
            <code>
               <coding>
                  <system value="http://snomed.info/sct"/>
                  <code value="713106006"/>
                  <display value="Screening for drug abuse (procedure)"/>
               </coding>
               <text value="Screening for drug abuse"/>
            </code>
            <subject>
               <reference value="urn:uuid:"/>
               <display value="Magdolna Balog"/>
            </subject>
            <performedDateTime value="2025-02-05"/>
         </Procedure>
      </resource>
   </entry>
   <entry>
      <fullUrl value="urn:uuid:fa51bb41-f3d0-4428-b76e-18821a7ab27e"/>
      <resource>
         <Procedure>
            <id value="fa51bb41-f3d0-4428-b76e-18821a7ab27e"/>
            <meta>
               <profile value="http://hl7.org/fhir/uv/ips/StructureDefinition/Procedure-uv-ips"/>
            </meta>
            <text>
               <status value="generated"/>
               <div xmlns="http://www.w3.org/1999/xhtml">
                  <table class="hl7__ips">
                     <tr>
                        <td>Assessment of substance use</td>
                        <td>
                           <span class="nb">05-Feb-2025</span>
                        </td>
                        <td>-</td>
                     </tr>
                  </table>
               </div>
            </text>
            <status value="completed"/>
            <code>
               <coding>
                  <system value="http://snomed.info/sct"/>
                  <code value="428211000124100"/>
                  <display value="Assessment of substance use (procedure)"/>
               </coding>
               <text value="Assessment of substance use"/>
            </code>
            <subject>
               <reference value="urn:uuid:"/>
               <display value="Magdolna Balog"/>
            </subject>
            <performedDateTime value="2025-02-05"/>
         </Procedure>
      </resource>
   </entry>
   <entry>
      <fullUrl value="urn:uuid:fbc02ab5-d578-4c4e-a3fb-13e0245e78df"/>
      <resource>
         <Procedure>
            <id value="fbc02ab5-d578-4c4e-a3fb-13e0245e78df"/>
            <meta>
               <profile value="http://hl7.org/fhir/uv/ips/StructureDefinition/Procedure-uv-ips"/>
            </meta>
            <text>
               <status value="generated"/>
               <div xmlns="http://www.w3.org/1999/xhtml">
                  <table class="hl7__ips">
                     <tr>
                        <td>Patient discharge</td>
                        <td>
                           <span class="nb">27-Jan-2019</span>
                        </td>
                        <td>-</td>
                     </tr>
                  </table>
               </div>
            </text>
            <status value="completed"/>
            <code>
               <coding>
                  <system value="http://snomed.info/sct"/>
                  <code value="58000006"/>
                  <display value="Patient discharge (procedure)"/>
               </coding>
               <text value="Patient discharge"/>
            </code>
            <subject>
               <reference value="urn:uuid:"/>
               <display value="Magdolna Balog"/>
            </subject>
            <performedDateTime value="2019-01-27"/>
         </Procedure>
      </resource>
   </entry>
   <entry>
      <fullUrl value="urn:uuid:9aa184cd-949c-47b8-83b6-cc891e95b1e2"/>
      <resource>
         <Procedure>
            <id value="9aa184cd-949c-47b8-83b6-cc891e95b1e2"/>
            <meta>
               <profile value="http://hl7.org/fhir/uv/ips/StructureDefinition/Procedure-uv-ips"/>
            </meta>
            <text>
               <status value="generated"/>
               <div xmlns="http://www.w3.org/1999/xhtml">
                  <table class="hl7__ips">
                     <tr>
                        <td>Hospice care</td>
                        <td>
                           <span class="nb">26-Jan-2019</span>
                        </td>
                        <td>-</td>
                     </tr>
                  </table>
               </div>
            </text>
            <status value="completed"/>
            <code>
               <coding>
                  <system value="http://snomed.info/sct"/>
                  <code value="385763009"/>
                  <display value="Hospice care (regime/therapy)"/>
               </coding>
               <text value="Hospice care"/>
            </code>
            <subject>
               <reference value="urn:uuid:"/>
               <display value="Magdolna Balog"/>
            </subject>
            <performedDateTime value="2019-01-26"/>
         </Procedure>
      </resource>
   </entry>
   <entry>
      <fullUrl value="urn:uuid:df7d6c89-c200-4ba8-a725-2a16231e2a04"/>
      <resource>
         <Procedure>
            <id value="df7d6c89-c200-4ba8-a725-2a16231e2a04"/>
            <meta>
               <profile value="http://hl7.org/fhir/uv/ips/StructureDefinition/Procedure-uv-ips"/>
            </meta>
            <text>
               <status value="generated"/>
               <div xmlns="http://www.w3.org/1999/xhtml">
                  <table class="hl7__ips">
                     <tr>
                        <td>Notifications</td>
                        <td>
                           <span class="nb">02-Jan-2019</span>
                        </td>
                        <td>-</td>
                     </tr>
                  </table>
               </div>
            </text>
            <status value="completed"/>
            <code>
               <coding>
                  <system value="http://snomed.info/sct"/>
                  <code value="185087000"/>
                  <display value="Notifications (procedure)"/>
               </coding>
               <text value="Notifications"/>
            </code>
            <subject>
               <reference value="urn:uuid:"/>
               <display value="Magdolna Balog"/>
            </subject>
            <performedDateTime value="2019-01-02"/>
         </Procedure>
      </resource>
   </entry>
   <entry>
      <fullUrl value="urn:uuid:e0d641ce-8891-4410-89a8-cfaf253f2fad"/>
      <resource>
         <Procedure>
            <id value="e0d641ce-8891-4410-89a8-cfaf253f2fad"/>
            <meta>
               <profile value="http://hl7.org/fhir/uv/ips/StructureDefinition/Procedure-uv-ips"/>
            </meta>
            <text>
               <status value="generated"/>
               <div xmlns="http://www.w3.org/1999/xhtml">
                  <table class="hl7__ips">
                     <tr>
                        <td>Certification procedure</td>
                        <td>
                           <span class="nb">02-Jan-2019</span>
                        </td>
                        <td>-</td>
                     </tr>
                  </table>
               </div>
            </text>
            <status value="completed"/>
            <code>
               <coding>
                  <system value="http://snomed.info/sct"/>
                  <code value="310417005"/>
                  <display value="Certification procedure (procedure)"/>
               </coding>
               <text value="Certification procedure"/>
            </code>
            <subject>
               <reference value="urn:uuid:"/>
               <display value="Magdolna Balog"/>
            </subject>
            <performedDateTime value="2019-01-02"/>
         </Procedure>
      </resource>
   </entry>
   <entry>
      <fullUrl value="urn:uuid:e887924a-5921-44e0-b2f0-ad8870e4662f"/>
      <resource>
         <Procedure>
            <id value="e887924a-5921-44e0-b2f0-ad8870e4662f"/>
            <meta>
               <profile value="http://hl7.org/fhir/uv/ips/StructureDefinition/Procedure-uv-ips"/>
            </meta>
            <text>
               <status value="generated"/>
               <div xmlns="http://www.w3.org/1999/xhtml">
                  <table class="hl7__ips">
                     <tr>
                        <td>Initial patient assessment</td>
                        <td>
                           <span class="nb">02-Jan-2019</span>
                        </td>
                        <td>-</td>
                     </tr>
                  </table>
               </div>
            </text>
            <status value="completed"/>
            <code>
               <coding>
                  <system value="http://snomed.info/sct"/>
                  <code value="315639002"/>
                  <display value="Initial patient assessment (procedure)"/>
               </coding>
               <text value="Initial patient assessment"/>
            </code>
            <subject>
               <reference value="urn:uuid:"/>
               <display value="Magdolna Balog"/>
            </subject>
            <performedDateTime value="2019-01-02"/>
         </Procedure>
      </resource>
   </entry>
   <entry>
      <fullUrl value="urn:uuid:78d6c1b1-830c-47b6-880c-726600c91be0"/>
      <resource>
         <Procedure>
            <id value="78d6c1b1-830c-47b6-880c-726600c91be0"/>
            <meta>
               <profile value="http://hl7.org/fhir/uv/ips/StructureDefinition/Procedure-uv-ips"/>
            </meta>
            <text>
               <status value="generated"/>
               <div xmlns="http://www.w3.org/1999/xhtml">
                  <table class="hl7__ips">
                     <tr>
                        <td>Development of individualized plan of care</td>
                        <td>
                           <span class="nb">02-Jan-2019</span>
                        </td>
                        <td>-</td>
                     </tr>
                  </table>
               </div>
            </text>
            <status value="completed"/>
            <code>
               <coding>
                  <system value="http://snomed.info/sct"/>
                  <code value="370789001"/>
                  <display value="Development of individualized plan of care (procedure)"/>
               </coding>
               <text value="Development of individualized plan of care"/>
            </code>
            <subject>
               <reference value="urn:uuid:"/>
               <display value="Magdolna Balog"/>
            </subject>
            <performedDateTime value="2019-01-02"/>
         </Procedure>
      </resource>
   </entry>
   <entry>
      <fullUrl value="urn:uuid:568d78f2-0d33-45a6-875b-50fdd4baf935"/>
      <resource>
         <Procedure>
            <id value="568d78f2-0d33-45a6-875b-50fdd4baf935"/>
            <meta>
               <profile value="http://hl7.org/fhir/uv/ips/StructureDefinition/Procedure-uv-ips"/>
            </meta>
            <text>
               <status value="generated"/>
               <div xmlns="http://www.w3.org/1999/xhtml">
                  <table class="hl7__ips">
                     <tr>
                        <td>Postoperative procedure education</td>
                        <td>
                           <span class="nb">22-Jun-2017</span>
                        </td>
                        <td>History of coronary artery bypass grafting (situation)</td>
                     </tr>
                  </table>
               </div>
            </text>
            <status value="completed"/>
            <code>
               <coding>
                  <system value="http://snomed.info/sct"/>
                  <code value="243063003"/>
                  <display value="Postoperative procedure education (procedure)"/>
               </coding>
               <text value="Postoperative procedure education"/>
            </code>
            <subject>
               <reference value="urn:uuid:"/>
               <display value="Magdolna Balog"/>
            </subject>
            <performedDateTime value="2017-06-22"/>
            <reasonCode>
               <coding>
                  <system value="http://snomed.info/sct"/>
                  <code value="399261000"/>
                  <display value="History of coronary artery bypass grafting (situation)"/>
               </coding>
            </reasonCode>
         </Procedure>
      </resource>
   </entry>
   <entry>
      <fullUrl value="urn:uuid:8f8e1b4f-e6c6-4a2a-939b-56f9263ad835"/>
      <resource>
         <Procedure>
            <id value="8f8e1b4f-e6c6-4a2a-939b-56f9263ad835"/>
            <meta>
               <profile value="http://hl7.org/fhir/uv/ips/StructureDefinition/Procedure-uv-ips"/>
            </meta>
            <text>
               <status value="generated"/>
               <div xmlns="http://www.w3.org/1999/xhtml">
                  <table class="hl7__ips">
                     <tr>
                        <td>Stair-climbing test</td>
                        <td>
                           <span class="nb">22-Jun-2017</span>
                        </td>
                        <td>History of coronary artery bypass grafting (situation)</td>
                     </tr>
                  </table>
               </div>
            </text>
            <status value="completed"/>
            <code>
               <coding>
                  <system value="http://snomed.info/sct"/>
                  <code value="252482003"/>
                  <display value="Stair-climbing test (procedure)"/>
               </coding>
               <text value="Stair-climbing test"/>
            </code>
            <subject>
               <reference value="urn:uuid:"/>
               <display value="Magdolna Balog"/>
            </subject>
            <performedDateTime value="2017-06-22"/>
            <reasonCode>
               <coding>
                  <system value="http://snomed.info/sct"/>
                  <code value="399261000"/>
                  <display value="History of coronary artery bypass grafting (situation)"/>
               </coding>
            </reasonCode>
         </Procedure>
      </resource>
   </entry>
   <entry>
      <fullUrl value="urn:uuid:d4a51bc7-fdda-4a9f-a359-d9e8b6eb1b91"/>
      <resource>
         <Procedure>
            <id value="d4a51bc7-fdda-4a9f-a359-d9e8b6eb1b91"/>
            <meta>
               <profile value="http://hl7.org/fhir/uv/ips/StructureDefinition/Procedure-uv-ips"/>
            </meta>
            <text>
               <status value="generated"/>
               <div xmlns="http://www.w3.org/1999/xhtml">
                  <table class="hl7__ips">
                     <tr>
                        <td>Walking exercise test</td>
                        <td>
                           <span class="nb">22-Jun-2017</span>
                        </td>
                        <td>History of coronary artery bypass grafting (situation)</td>
                     </tr>
                  </table>
               </div>
            </text>
            <status value="completed"/>
            <code>
               <coding>
                  <system value="http://snomed.info/sct"/>
                  <code value="302761001"/>
                  <display value="Walking exercise test (procedure)"/>
               </coding>
               <text value="Walking exercise test"/>
            </code>
            <subject>
               <reference value="urn:uuid:"/>
               <display value="Magdolna Balog"/>
            </subject>
            <performedDateTime value="2017-06-22"/>
            <reasonCode>
               <coding>
                  <system value="http://snomed.info/sct"/>
                  <code value="399261000"/>
                  <display value="History of coronary artery bypass grafting (situation)"/>
               </coding>
            </reasonCode>
         </Procedure>
      </resource>
   </entry>
   <entry>
      <fullUrl value="urn:uuid:d753b21c-40f1-4a58-a6d9-970e641e9c6a"/>
      <resource>
         <Procedure>
            <id value="d753b21c-40f1-4a58-a6d9-970e641e9c6a"/>
            <meta>
               <profile value="http://hl7.org/fhir/uv/ips/StructureDefinition/Procedure-uv-ips"/>
            </meta>
            <text>
               <status value="generated"/>
               <div xmlns="http://www.w3.org/1999/xhtml">
                  <table class="hl7__ips">
                     <tr>
                        <td>Discharge to ward</td>
                        <td>
                           <span class="nb">22-Jun-2017</span>
                        </td>
                        <td>-</td>
                     </tr>
                  </table>
               </div>
            </text>
            <status value="completed"/>
            <code>
               <coding>
                  <system value="http://snomed.info/sct"/>
                  <code value="306706006"/>
                  <display value="Discharge to ward (procedure)"/>
               </coding>
               <text value="Discharge to ward"/>
            </code>
            <subject>
               <reference value="urn:uuid:"/>
               <display value="Magdolna Balog"/>
            </subject>
            <performedDateTime value="2017-06-22"/>
         </Procedure>
      </resource>
   </entry>
   <entry>
      <fullUrl value="urn:uuid:b549102e-fe93-410d-a38e-2577669e19d5"/>
      <resource>
         <Procedure>
            <id value="b549102e-fe93-410d-a38e-2577669e19d5"/>
            <meta>
               <profile value="http://hl7.org/fhir/uv/ips/StructureDefinition/Procedure-uv-ips"/>
            </meta>
            <text>
               <status value="generated"/>
               <div xmlns="http://www.w3.org/1999/xhtml">
                  <table class="hl7__ips">
                     <tr>
                        <td>Discharge from hospital</td>
                        <td>
                           <span class="nb">22-Jun-2017</span>
                        </td>
                        <td>History of coronary artery bypass grafting (situation)</td>
                     </tr>
                  </table>
               </div>
            </text>
            <status value="completed"/>
            <code>
               <coding>
                  <system value="http://snomed.info/sct"/>
                  <code value="308283009"/>
                  <display value="Discharge from hospital (procedure)"/>
               </coding>
               <text value="Discharge from hospital"/>
            </code>
            <subject>
               <reference value="urn:uuid:"/>
               <display value="Magdolna Balog"/>
            </subject>
            <performedDateTime value="2017-06-22"/>
            <reasonCode>
               <coding>
                  <system value="http://snomed.info/sct"/>
                  <code value="399261000"/>
                  <display value="History of coronary artery bypass grafting (situation)"/>
               </coding>
            </reasonCode>
         </Procedure>
      </resource>
   </entry>
   <entry>
      <fullUrl value="urn:uuid:58d72d94-c097-4a3c-a8be-bc6a342abfa8"/>
      <resource>
         <Procedure>
            <id value="58d72d94-c097-4a3c-a8be-bc6a342abfa8"/>
            <meta>
               <profile value="http://hl7.org/fhir/uv/ips/StructureDefinition/Procedure-uv-ips"/>
            </meta>
            <text>
               <status value="generated"/>
               <div xmlns="http://www.w3.org/1999/xhtml">
                  <table class="hl7__ips">
                     <tr>
                        <td>Electrocardiographic procedure</td>
                        <td>
                           <span class="nb">21-Jun-2017</span>
                        </td>
                        <td>-</td>
                     </tr>
                  </table>
               </div>
            </text>
            <status value="completed"/>
            <code>
               <coding>
                  <system value="http://snomed.info/sct"/>
                  <code value="29303009"/>
                  <display value="Electrocardiographic procedure (procedure)"/>
               </coding>
               <text value="Electrocardiographic procedure"/>
            </code>
            <subject>
               <reference value="urn:uuid:"/>
               <display value="Magdolna Balog"/>
            </subject>
            <performedDateTime value="2017-06-21"/>
         </Procedure>
      </resource>
   </entry>
   <entry>
      <fullUrl value="urn:uuid:ef7ec702-4ef1-4087-89e2-503299031c51"/>
      <resource>
         <Procedure>
            <id value="ef7ec702-4ef1-4087-89e2-503299031c51"/>
            <meta>
               <profile value="http://hl7.org/fhir/uv/ips/StructureDefinition/Procedure-uv-ips"/>
            </meta>
            <text>
               <status value="generated"/>
               <div xmlns="http://www.w3.org/1999/xhtml">
                  <table class="hl7__ips">
                     <tr>
                        <td>Transfusion of packed red blood cells</td>
                        <td>
                           <span class="nb">21-Jun-2017</span>
                        </td>
                        <td>-</td>
                     </tr>
                  </table>
               </div>
            </text>
            <status value="completed"/>
            <code>
               <coding>
                  <system value="http://snomed.info/sct"/>
                  <code value="71493000"/>
                  <display value="Transfusion of packed red blood cells (procedure)"/>
               </coding>
               <text value="Transfusion of packed red blood cells"/>
            </code>
            <subject>
               <reference value="urn:uuid:"/>
               <display value="Magdolna Balog"/>
            </subject>
            <performedDateTime value="2017-06-21"/>
         </Procedure>
      </resource>
   </entry>
   <entry>
      <fullUrl value="urn:uuid:3555ed6e-d2a8-4872-b07d-f7f2377e9a94"/>
      <resource>
         <Procedure>
            <id value="3555ed6e-d2a8-4872-b07d-f7f2377e9a94"/>
            <meta>
               <profile value="http://hl7.org/fhir/uv/ips/StructureDefinition/Procedure-uv-ips"/>
            </meta>
            <text>
               <status value="generated"/>
               <div xmlns="http://www.w3.org/1999/xhtml">
                  <table class="hl7__ips">
                     <tr>
                        <td>Plain X-ray of chest</td>
                        <td>
                           <span class="nb">21-Jun-2017</span>
                        </td>
                        <td>-</td>
                     </tr>
                  </table>
               </div>
            </text>
            <status value="completed"/>
            <code>
               <coding>
                  <system value="http://snomed.info/sct"/>
                  <code value="399208008"/>
                  <display value="Plain chest X-ray (procedure)"/>
               </coding>
               <text value="Plain X-ray of chest"/>
            </code>
            <subject>
               <reference value="urn:uuid:"/>
               <display value="Magdolna Balog"/>
            </subject>
            <performedDateTime value="2017-06-21"/>
         </Procedure>
      </resource>
   </entry>
   <entry>
      <fullUrl value="urn:uuid:0a23f5a7-5a31-4a9c-87c2-bb1db9f62ec4"/>
      <resource>
         <Procedure>
            <id value="0a23f5a7-5a31-4a9c-87c2-bb1db9f62ec4"/>
            <meta>
               <profile value="http://hl7.org/fhir/uv/ips/StructureDefinition/Procedure-uv-ips"/>
            </meta>
            <text>
               <status value="generated"/>
               <div xmlns="http://www.w3.org/1999/xhtml">
                  <table class="hl7__ips">
                     <tr>
                        <td>Removal of endotracheal tube</td>
                        <td>
                           <span class="nb">18-Jun-2017</span>
                        </td>
                        <td>-</td>
                     </tr>
                  </table>
               </div>
            </text>
            <status value="completed"/>
            <code>
               <coding>
                  <system value="http://snomed.info/sct"/>
                  <code value="271280005"/>
                  <display value="Removal of endotracheal tube (procedure)"/>
               </coding>
               <text value="Removal of endotracheal tube"/>
            </code>
            <subject>
               <reference value="urn:uuid:"/>
               <display value="Magdolna Balog"/>
            </subject>
            <performedDateTime value="2017-06-18"/>
         </Procedure>
      </resource>
   </entry>
   <entry>
      <fullUrl value="urn:uuid:72d80a78-b15f-4532-a5e4-63b6a6912200"/>
      <resource>
         <AllergyIntolerance>
            <id value="72d80a78-b15f-4532-a5e4-63b6a6912200"/>
            <meta>
               <profile value="http://hl7.eu/fhir/eps/StructureDefinition/allergyIntolerance-eu-eps"/>
            </meta>
            <text>
               <status value="generated"/>
               <div xmlns="http://www.w3.org/1999/xhtml">
                  <table class="hl7__ips">
                     <tr>
                        <th>Allergy/Intolerance</th>
                        <th>Onset Date</th>
                        <th>Status</th>
                        <th>Type</th>
                        <th>Reaction</th>
                     </tr>
                     <tr>
                        <td/>
                        <td>?</td>
                        <td>active</td>
                        <td>?</td>
                        <td/>
                     </tr>
                  </table>
               </div>
            </text>
            <clinicalStatus>
               <coding>
                  <system value="http://terminology.hl7.org/CodeSystem/allergyintolerance-clinical"/>
                  <code value="active"/>
               </coding>
            </clinicalStatus>
            <verificationStatus>
               <coding>
                  <system value="http://terminology.hl7.org/CodeSystem/allergyintolerance-verification"/>
                  <code value="confirmed"/>
               </coding>
            </verificationStatus>
            <code>
               <text/>
            </code>
            <patient>
               <reference value="urn:uuid:b90f5ea3-924c-4963-9d0b-455120235e02"/>
               <display value="Magdolna Balog"/>
            </patient>
            <onsetDateTime>
               <extension url="http://hl7.org/fhir/StructureDefinition/data-absent-reason">
                  <valueCode value="unknown"/>
               </extension>
            </onsetDateTime>
         </AllergyIntolerance>
      </resource>
   </entry>
   <entry>
      <fullUrl value="urn:uuid:19863756-18e6-4032-9547-0a96d14f52aa"/>
      <resource>
         <CarePlan>
            <id value="19863756-18e6-4032-9547-0a96d14f52aa"/>
            <text>
               <status value="generated"/>
               <div xmlns="http://www.w3.org/1999/xhtml">
                  <table class="hl7__ips first25">
                     <tr>
                        <th>Active Planned Care / Goals</th>
                        <th>Start Date</th>
                        <th>Reason</th>
                     </tr>
                     <tr>
                        <td>Dementia management</td>
                        <td>
                           <span class="nb">19-Jun-2024</span>
                        </td>
                        <td>Alzheimer's disease (disorder)</td>
                     </tr>
                     <tr>
                        <td>
                           <ul>
                              <li>Maintain current level of cognitive function as long as possible</li>
                              <li>Maintain ability to perform basic activities of daily living (ADLs) with minimal assistance</li>
                              <li>Reduce frequency and severity of behavioral and psychological symptoms of dementia</li>
                              <li>Ensure adherence to prescribed dementia medications</li>
                              <li>Provide support and education to caregiver to reduce burden and improve coping</li>
                           </ul>
                        </td>
                        <td/>
                        <td/>
                     </tr>
                  </table>
               </div>
            </text>
            <status value="active"/>
            <intent value="plan"/>
            <category>
               <coding>
                  <system value="http://terminology.hl7.org/CodeSystem/care-plan-category"/>
                  <code value="assess-plan"/>
                  <display value="Assessment and Plan"/>
               </coding>
            </category>
            <subject>
               <reference value="urn:uuid:b90f5ea3-924c-4963-9d0b-455120235e02"/>
               <display value="Magdolna Balog"/>
            </subject>
            <period>
               <start value="2024-06-19"/>
            </period>
            <goal>
               <reference value="urn:uuid:7d9d9243-e453-4e11-81eb-20fa7b37e6d1"/>
            </goal>
            <goal>
               <reference value="urn:uuid:2512c8b8-7054-455d-ba1a-375c956cf1a4"/>
            </goal>
            <goal>
               <reference value="urn:uuid:ef6f3eaa-dd67-4032-b31e-0a1755edc339"/>
            </goal>
            <goal>
               <reference value="urn:uuid:53ef3901-e380-452f-9df7-b7a2ee0916b5"/>
            </goal>
            <goal>
               <reference value="urn:uuid:a92f7df4-e858-4f32-bdba-27f3e32b5ef6"/>
            </goal>
            <activity>
               <detail>
                  <kind value="Appointment"/>
                  <code>
                     <coding>
                        <system value="http://snomed.info/sct"/>
                        <code value="386257007"/>
                        <display value="Dementia management (regime/therapy)"/>
                     </coding>
                  </code>
                  <reasonCode>
                     <coding>
                        <system value="http://snomed.info/sct"/>
                        <code value="26929004"/>
                        <display value="Alzheimer&amp;#039;s disease (disorder)"/>
                     </coding>
                  </reasonCode>
                  <status value="unknown"/>
                  <description value="Dementia management"/>
               </detail>
            </activity>
         </CarePlan>
      </resource>
   </entry>
   <entry>
      <fullUrl value="urn:uuid:acc8fa21-2d39-4ff4-8b83-64b79850548c"/>
      <resource>
         <CarePlan>
            <id value="acc8fa21-2d39-4ff4-8b83-64b79850548c"/>
            <text>
               <status value="generated"/>
               <div xmlns="http://www.w3.org/1999/xhtml">
                  <table class="hl7__ips first25">
                     <tr>
                        <th>Active Planned Care / Goals</th>
                        <th>Start Date</th>
                        <th>Reason</th>
                     </tr>
                     <tr>
                        <td>Diabetes self management plan</td>
                        <td>
                           <span class="nb">21-Jan-1998</span>
                        </td>
                        <td>Prediabetes</td>
                     </tr>
                     <tr>
                        <td>
                           <ul>
                              <li>Maintain fasting plasma glucose within the prediabetes range through lifestyle modification and self-management.</li>
                              <li>Achieve and maintain hemoglobin A1c within the prediabetes target range through self-management strategies.</li>
                              <li>Engage in regular physical activity, follow a balanced diet, and monitor blood glucose as part of the diabetes self-management plan.</li>
                           </ul>
                        </td>
                        <td/>
                        <td/>
                     </tr>
                  </table>
               </div>
            </text>
            <status value="active"/>
            <intent value="plan"/>
            <category>
               <coding>
                  <system value="http://terminology.hl7.org/CodeSystem/care-plan-category"/>
                  <code value="assess-plan"/>
                  <display value="Assessment and Plan"/>
               </coding>
            </category>
            <subject>
               <reference value="urn:uuid:b90f5ea3-924c-4963-9d0b-455120235e02"/>
               <display value="Magdolna Balog"/>
            </subject>
            <period>
               <start value="1998-01-21"/>
            </period>
            <goal>
               <reference value="urn:uuid:979c4865-9222-425a-9a3a-3b93e2862b96"/>
            </goal>
            <goal>
               <reference value="urn:uuid:5cc15a8f-f2ef-4f48-8c30-3adf2ca3b581"/>
            </goal>
            <goal>
               <reference value="urn:uuid:ad2d4228-76f8-4843-ac71-db7d4151faf6"/>
            </goal>
            <activity>
               <detail>
                  <kind value="Appointment"/>
                  <code>
                     <coding>
                        <system value="http://snomed.info/sct"/>
                        <code value="698360004"/>
                        <display value="Diabetes self management plan (qualifier value)"/>
                     </coding>
                  </code>
                  <reasonCode>
                     <coding>
                        <system value="http://snomed.info/sct"/>
                        <code value="15777000"/>
                        <display value="Prediabetes"/>
                     </coding>
                  </reasonCode>
                  <status value="unknown"/>
                  <description value="Diabetes self management plan"/>
               </detail>
            </activity>
         </CarePlan>
      </resource>
   </entry>
   <entry>
      <fullUrl value="urn:uuid:c7febb64-bbca-4e0b-b2c0-bcf50d314269"/>
      <resource>
         <ImmunizationRecommendation>
            <id value="c7febb64-bbca-4e0b-b2c0-bcf50d314269"/>
            <text>
               <status value="generated"/>
               <div xmlns="http://www.w3.org/1999/xhtml">
                  <table class="hl7__ips">
                     <tr>
                        <td>Vaccine product containing only Influenza virus antigen (medicinal product)</td>
                        <td>
                           <span class="nb">01-Oct-2025</span>
                        </td>
                        <td>Annual seasonal influenza vaccination</td>
                     </tr>
                  </table>
               </div>
            </text>
            <patient>
               <reference value="urn:uuid:b90f5ea3-924c-4963-9d0b-455120235e02"/>
               <display value="Magdolna Balog"/>
            </patient>
            <date value="2025-10-22"/>
            <recommendation>
               <vaccineCode>
                  <coding>
                     <system value="http://snomed.info/sct"/>
                     <code value="1181000221105"/>
                     <display value="Vaccine product containing only Influenza virus antigen (medicinal product)"/>
                  </coding>
               </vaccineCode>
               <targetDisease>
                  <coding>
                     <system value="http://snomed.info/sct"/>
                     <code value="6142004"/>
                     <display value="Influenza (disorder)"/>
                  </coding>
               </targetDisease>
               <forecastStatus>
                  <coding>
                     <system value="http://terminology.hl7.org/CodeSystem/immunization-recommendation-status"/>
                     <code value="due"/>
                     <display value="Due"/>
                  </coding>
               </forecastStatus>
               <dateCriterion>
                  <code>
                     <coding>
                        <system value="http://loinc.org"/>
                        <code value="30980-7"/>
                        <display value="Date vaccine due"/>
                     </coding>
                  </code>
                  <value value="2025-10-01"/>
               </dateCriterion>
               <series value="Annual seasonal influenza vaccination"/>
            </recommendation>
         </ImmunizationRecommendation>
      </resource>
   </entry>
   <entry>
      <fullUrl value="urn:uuid:620114b1-becd-4d52-b04b-9f10edabd72b"/>
      <resource>
         <Observation>
            <id value="620114b1-becd-4d52-b04b-9f10edabd72b"/>
            <meta>
               <profile value="http://hl7.org/fhir/StructureDefinition/vitalsigns"/>
            </meta>
            <text>
               <status value="generated"/>
               <div xmlns="http://www.w3.org/1999/xhtml">
                  <table class="hl7__ips">
                     <tr>
                        <th>Vital Sign</th>
                        <th>Date</th>
                        <th>Measurement</th>
                     </tr>
                     <tr>
                        <td>Body Height</td>
                        <td>25-Jun-2025</td>
                        <td>152 cm</td>
                     </tr>
                  </table>
               </div>
            </text>
            <status value="final"/>
            <category>
               <coding>
                  <system value="http://terminology.hl7.org/CodeSystem/observation-category"/>
                  <code value="vital-signs"/>
                  <display value="Vital Signs"/>
               </coding>
            </category>
            <code>
               <coding>
                  <system value="http://loinc.org"/>
                  <code value="$8302-2"/>
                  <display value="Body Height"/>
               </coding>
            </code>
            <subject>
               <reference value="urn:uuid:b90f5ea3-924c-4963-9d0b-455120235e02"/>
               <display value="Magdolna Balog"/>
            </subject>
            <effectiveDateTime value="2025-06-25"/>
            <valueQuantity>
               <value value="152"/>
               <unit value="cm"/>
               <code value="cm"/>
            </valueQuantity>
         </Observation>
      </resource>
   </entry>
   <entry>
      <fullUrl value="urn:uuid:8a1442b8-9e20-43ef-a8a3-4064c3c2615e"/>
      <resource>
         <Observation>
            <id value="8a1442b8-9e20-43ef-a8a3-4064c3c2615e"/>
            <meta>
               <profile value="http://hl7.org/fhir/StructureDefinition/vitalsigns"/>
            </meta>
            <text>
               <status value="generated"/>
               <div xmlns="http://www.w3.org/1999/xhtml">
                  <table class="hl7__ips">
                     <tr>
                        <th>Vital Sign</th>
                        <th>Date</th>
                        <th>Measurement</th>
                     </tr>
                     <tr>
                        <td>Pain severity - 0-10 verbal numeric rating [Score] - Reported</td>
                        <td>25-Jun-2025</td>
                        <td>3 {score}</td>
                     </tr>
                  </table>
               </div>
            </text>
            <status value="final"/>
            <category>
               <coding>
                  <system value="http://terminology.hl7.org/CodeSystem/observation-category"/>
                  <code value="vital-signs"/>
                  <display value="Vital Signs"/>
               </coding>
            </category>
            <code>
               <coding>
                  <system value="http://loinc.org"/>
                  <code value="$72514-3"/>
                  <display value="Pain severity - 0-10 verbal numeric rating [Score] - Reported"/>
               </coding>
            </code>
            <subject>
               <reference value="urn:uuid:b90f5ea3-924c-4963-9d0b-455120235e02"/>
               <display value="Magdolna Balog"/>
            </subject>
            <effectiveDateTime value="2025-06-25"/>
            <valueQuantity>
               <value value="3"/>
               <unit value="{score}"/>
               <code value="{score}"/>
            </valueQuantity>
         </Observation>
      </resource>
   </entry>
   <entry>
      <fullUrl value="urn:uuid:af61d1c3-ff07-4939-a8c4-0cb7a39c917a"/>
      <resource>
         <Observation>
            <id value="af61d1c3-ff07-4939-a8c4-0cb7a39c917a"/>
            <meta>
               <profile value="http://hl7.org/fhir/StructureDefinition/vitalsigns"/>
            </meta>
            <text>
               <status value="generated"/>
               <div xmlns="http://www.w3.org/1999/xhtml">
                  <table class="hl7__ips">
                     <tr>
                        <th>Vital Sign</th>
                        <th>Date</th>
                        <th>Measurement</th>
                     </tr>
                     <tr>
                        <td>Body Weight</td>
                        <td>25-Jun-2025</td>
                        <td>71 kg</td>
                     </tr>
                  </table>
               </div>
            </text>
            <status value="final"/>
            <category>
               <coding>
                  <system value="http://terminology.hl7.org/CodeSystem/observation-category"/>
                  <code value="vital-signs"/>
                  <display value="Vital Signs"/>
               </coding>
            </category>
            <code>
               <coding>
                  <system value="http://loinc.org"/>
                  <code value="$29463-7"/>
                  <display value="Body Weight"/>
               </coding>
            </code>
            <subject>
               <reference value="urn:uuid:b90f5ea3-924c-4963-9d0b-455120235e02"/>
               <display value="Magdolna Balog"/>
            </subject>
            <effectiveDateTime value="2025-06-25"/>
            <valueQuantity>
               <value value="71"/>
               <unit value="kg"/>
               <code value="kg"/>
            </valueQuantity>
         </Observation>
      </resource>
   </entry>
   <entry>
      <fullUrl value="urn:uuid:57d9c91f-5970-473e-ba6f-89bde8638962"/>
      <resource>
         <Observation>
            <id value="57d9c91f-5970-473e-ba6f-89bde8638962"/>
            <meta>
               <profile value="http://hl7.org/fhir/StructureDefinition/vitalsigns"/>
            </meta>
            <text>
               <status value="generated"/>
               <div xmlns="http://www.w3.org/1999/xhtml">
                  <table class="hl7__ips">
                     <tr>
                        <th>Vital Sign</th>
                        <th>Date</th>
                        <th>Measurement</th>
                     </tr>
                     <tr>
                        <td>Body mass index (BMI) [Ratio]</td>
                        <td>25-Jun-2025</td>
                        <td>30.7 kg/m2</td>
                     </tr>
                  </table>
               </div>
            </text>
            <status value="final"/>
            <category>
               <coding>
                  <system value="http://terminology.hl7.org/CodeSystem/observation-category"/>
                  <code value="vital-signs"/>
                  <display value="Vital Signs"/>
               </coding>
            </category>
            <code>
               <coding>
                  <system value="http://loinc.org"/>
                  <code value="$39156-5"/>
                  <display value="Body mass index (BMI) [Ratio]"/>
               </coding>
            </code>
            <subject>
               <reference value="urn:uuid:b90f5ea3-924c-4963-9d0b-455120235e02"/>
               <display value="Magdolna Balog"/>
            </subject>
            <effectiveDateTime value="2025-06-25"/>
            <valueQuantity>
               <value value="30.7"/>
               <unit value="kg/m2"/>
               <code value="kg/m2"/>
            </valueQuantity>
         </Observation>
      </resource>
   </entry>
   <entry>
      <fullUrl value="urn:uuid:020212fa-671e-4716-a326-9192e44a05c5"/>
      <resource>
         <Observation>
            <id value="020212fa-671e-4716-a326-9192e44a05c5"/>
            <meta>
               <profile value="http://hl7.org/fhir/StructureDefinition/vitalsigns"/>
            </meta>
            <text>
               <status value="generated"/>
               <div xmlns="http://www.w3.org/1999/xhtml">
                  <table class="hl7__ips">
                     <tr>
                        <th>Vital Sign</th>
                        <th>Date</th>
                        <th>Measurement</th>
                     </tr>
                     <tr>
                        <td>Diastolic Blood Pressure</td>
                        <td>25-Jun-2025</td>
                        <td>62 mm[Hg]</td>
                     </tr>
                  </table>
               </div>
            </text>
            <status value="final"/>
            <category>
               <coding>
                  <system value="http://terminology.hl7.org/CodeSystem/observation-category"/>
                  <code value="vital-signs"/>
                  <display value="Vital Signs"/>
               </coding>
            </category>
            <code>
               <coding>
                  <system value="http://loinc.org"/>
                  <code value="$8462-4"/>
                  <display value="Diastolic Blood Pressure"/>
               </coding>
            </code>
            <subject>
               <reference value="urn:uuid:b90f5ea3-924c-4963-9d0b-455120235e02"/>
               <display value="Magdolna Balog"/>
            </subject>
            <effectiveDateTime value="2025-06-25"/>
            <valueQuantity>
               <value value="62"/>
               <unit value="mm[Hg]"/>
               <code value="mm[Hg]"/>
            </valueQuantity>
         </Observation>
      </resource>
   </entry>
   <entry>
      <fullUrl value="urn:uuid:b854fc49-766a-4074-bd64-9f53df207bb2"/>
      <resource>
         <Observation>
            <id value="b854fc49-766a-4074-bd64-9f53df207bb2"/>
            <meta>
               <profile value="http://hl7.org/fhir/StructureDefinition/vitalsigns"/>
            </meta>
            <text>
               <status value="generated"/>
               <div xmlns="http://www.w3.org/1999/xhtml">
                  <table class="hl7__ips">
                     <tr>
                        <th>Vital Sign</th>
                        <th>Date</th>
                        <th>Measurement</th>
                     </tr>
                     <tr>
                        <td>Systolic Blood Pressure</td>
                        <td>25-Jun-2025</td>
                        <td>77 mm[Hg]</td>
                     </tr>
                  </table>
               </div>
            </text>
            <status value="final"/>
            <category>
               <coding>
                  <system value="http://terminology.hl7.org/CodeSystem/observation-category"/>
                  <code value="vital-signs"/>
                  <display value="Vital Signs"/>
               </coding>
            </category>
            <code>
               <coding>
                  <system value="http://loinc.org"/>
                  <code value="$8480-6"/>
                  <display value="Systolic Blood Pressure"/>
               </coding>
            </code>
            <subject>
               <reference value="urn:uuid:b90f5ea3-924c-4963-9d0b-455120235e02"/>
               <display value="Magdolna Balog"/>
            </subject>
            <effectiveDateTime value="2025-06-25"/>
            <valueQuantity>
               <value value="77"/>
               <unit value="mm[Hg]"/>
               <code value="mm[Hg]"/>
            </valueQuantity>
         </Observation>
      </resource>
   </entry>
   <entry>
      <fullUrl value="urn:uuid:6050dd9c-ec41-42d2-803e-7916ee277742"/>
      <resource>
         <Observation>
            <id value="6050dd9c-ec41-42d2-803e-7916ee277742"/>
            <meta>
               <profile value="http://hl7.org/fhir/StructureDefinition/vitalsigns"/>
            </meta>
            <text>
               <status value="generated"/>
               <div xmlns="http://www.w3.org/1999/xhtml">
                  <table class="hl7__ips">
                     <tr>
                        <th>Vital Sign</th>
                        <th>Date</th>
                        <th>Measurement</th>
                     </tr>
                     <tr>
                        <td>Heart rate</td>
                        <td>25-Jun-2025</td>
                        <td>66 /min</td>
                     </tr>
                  </table>
               </div>
            </text>
            <status value="final"/>
            <category>
               <coding>
                  <system value="http://terminology.hl7.org/CodeSystem/observation-category"/>
                  <code value="vital-signs"/>
                  <display value="Vital Signs"/>
               </coding>
            </category>
            <code>
               <coding>
                  <system value="http://loinc.org"/>
                  <code value="$8867-4"/>
                  <display value="Heart rate"/>
               </coding>
            </code>
            <subject>
               <reference value="urn:uuid:b90f5ea3-924c-4963-9d0b-455120235e02"/>
               <display value="Magdolna Balog"/>
            </subject>
            <effectiveDateTime value="2025-06-25"/>
            <valueQuantity>
               <value value="66"/>
               <unit value="/min"/>
               <code value="/min"/>
            </valueQuantity>
         </Observation>
      </resource>
   </entry>
   <entry>
      <fullUrl value="urn:uuid:32790940-1383-4930-a885-5524ec2f404b"/>
      <resource>
         <Observation>
            <id value="32790940-1383-4930-a885-5524ec2f404b"/>
            <meta>
               <profile value="http://hl7.org/fhir/StructureDefinition/vitalsigns"/>
            </meta>
            <text>
               <status value="generated"/>
               <div xmlns="http://www.w3.org/1999/xhtml">
                  <table class="hl7__ips">
                     <tr>
                        <th>Vital Sign</th>
                        <th>Date</th>
                        <th>Measurement</th>
                     </tr>
                     <tr>
                        <td>Respiratory rate</td>
                        <td>25-Jun-2025</td>
                        <td>14 /min</td>
                     </tr>
                  </table>
               </div>
            </text>
            <status value="final"/>
            <category>
               <coding>
                  <system value="http://terminology.hl7.org/CodeSystem/observation-category"/>
                  <code value="vital-signs"/>
                  <display value="Vital Signs"/>
               </coding>
            </category>
            <code>
               <coding>
                  <system value="http://loinc.org"/>
                  <code value="$9279-1"/>
                  <display value="Respiratory rate"/>
               </coding>
            </code>
            <subject>
               <reference value="urn:uuid:b90f5ea3-924c-4963-9d0b-455120235e02"/>
               <display value="Magdolna Balog"/>
            </subject>
            <effectiveDateTime value="2025-06-25"/>
            <valueQuantity>
               <value value="14"/>
               <unit value="/min"/>
               <code value="/min"/>
            </valueQuantity>
         </Observation>
      </resource>
   </entry>
   <entry>
      <fullUrl value="urn:uuid:2e634676-bdec-4d73-b06a-85a0094aca60"/>
      <resource>
         <Observation>
            <id value="2e634676-bdec-4d73-b06a-85a0094aca60"/>
            <meta>
               <profile value="http://hl7.org/fhir/StructureDefinition/vitalsigns"/>
            </meta>
            <text>
               <status value="generated"/>
               <div xmlns="http://www.w3.org/1999/xhtml">
                  <table class="hl7__ips">
                     <tr>
                        <th>Vital Sign</th>
                        <th>Date</th>
                        <th>Measurement</th>
                     </tr>
                     <tr>
                        <td>Body Height</td>
                        <td>05-Feb-2025</td>
                        <td>152 cm</td>
                     </tr>
                  </table>
               </div>
            </text>
            <status value="final"/>
            <category>
               <coding>
                  <system value="http://terminology.hl7.org/CodeSystem/observation-category"/>
                  <code value="vital-signs"/>
                  <display value="Vital Signs"/>
               </coding>
            </category>
            <code>
               <coding>
                  <system value="http://loinc.org"/>
                  <code value="$8302-2"/>
                  <display value="Body Height"/>
               </coding>
            </code>
            <subject>
               <reference value="urn:uuid:b90f5ea3-924c-4963-9d0b-455120235e02"/>
               <display value="Magdolna Balog"/>
            </subject>
            <effectiveDateTime value="2025-02-05"/>
            <valueQuantity>
               <value value="152"/>
               <unit value="cm"/>
               <code value="cm"/>
            </valueQuantity>
         </Observation>
      </resource>
   </entry>
   <entry>
      <fullUrl value="urn:uuid:0b2e9978-f7f7-4960-b151-047e3c4dab88"/>
      <resource>
         <Observation>
            <id value="0b2e9978-f7f7-4960-b151-047e3c4dab88"/>
            <meta>
               <profile value="http://hl7.org/fhir/StructureDefinition/vitalsigns"/>
            </meta>
            <text>
               <status value="generated"/>
               <div xmlns="http://www.w3.org/1999/xhtml">
                  <table class="hl7__ips">
                     <tr>
                        <th>Vital Sign</th>
                        <th>Date</th>
                        <th>Measurement</th>
                     </tr>
                     <tr>
                        <td>Pain severity - 0-10 verbal numeric rating [Score] - Reported</td>
                        <td>05-Feb-2025</td>
                        <td>1 {score}</td>
                     </tr>
                  </table>
               </div>
            </text>
            <status value="final"/>
            <category>
               <coding>
                  <system value="http://terminology.hl7.org/CodeSystem/observation-category"/>
                  <code value="vital-signs"/>
                  <display value="Vital Signs"/>
               </coding>
            </category>
            <code>
               <coding>
                  <system value="http://loinc.org"/>
                  <code value="$72514-3"/>
                  <display value="Pain severity - 0-10 verbal numeric rating [Score] - Reported"/>
               </coding>
            </code>
            <subject>
               <reference value="urn:uuid:b90f5ea3-924c-4963-9d0b-455120235e02"/>
               <display value="Magdolna Balog"/>
            </subject>
            <effectiveDateTime value="2025-02-05"/>
            <valueQuantity>
               <value value="1"/>
               <unit value="{score}"/>
               <code value="{score}"/>
            </valueQuantity>
         </Observation>
      </resource>
   </entry>
   <entry>
      <fullUrl value="urn:uuid:7305b378-1051-47e3-a158-868d79b60895"/>
      <resource>
         <Observation>
            <id value="7305b378-1051-47e3-a158-868d79b60895"/>
            <meta>
               <profile value="http://hl7.org/fhir/StructureDefinition/vitalsigns"/>
            </meta>
            <text>
               <status value="generated"/>
               <div xmlns="http://www.w3.org/1999/xhtml">
                  <table class="hl7__ips">
                     <tr>
                        <th>Vital Sign</th>
                        <th>Date</th>
                        <th>Measurement</th>
                     </tr>
                     <tr>
                        <td>Body Weight</td>
                        <td>05-Feb-2025</td>
                        <td>71 kg</td>
                     </tr>
                  </table>
               </div>
            </text>
            <status value="final"/>
            <category>
               <coding>
                  <system value="http://terminology.hl7.org/CodeSystem/observation-category"/>
                  <code value="vital-signs"/>
                  <display value="Vital Signs"/>
               </coding>
            </category>
            <code>
               <coding>
                  <system value="http://loinc.org"/>
                  <code value="$29463-7"/>
                  <display value="Body Weight"/>
               </coding>
            </code>
            <subject>
               <reference value="urn:uuid:b90f5ea3-924c-4963-9d0b-455120235e02"/>
               <display value="Magdolna Balog"/>
            </subject>
            <effectiveDateTime value="2025-02-05"/>
            <valueQuantity>
               <value value="71"/>
               <unit value="kg"/>
               <code value="kg"/>
            </valueQuantity>
         </Observation>
      </resource>
   </entry>
   <entry>
      <fullUrl value="urn:uuid:2a0d274f-0c9a-4611-89e0-b20ec498b4dc"/>
      <resource>
         <Observation>
            <id value="2a0d274f-0c9a-4611-89e0-b20ec498b4dc"/>
            <meta>
               <profile value="http://hl7.org/fhir/StructureDefinition/vitalsigns"/>
            </meta>
            <text>
               <status value="generated"/>
               <div xmlns="http://www.w3.org/1999/xhtml">
                  <table class="hl7__ips">
                     <tr>
                        <th>Vital Sign</th>
                        <th>Date</th>
                        <th>Measurement</th>
                     </tr>
                     <tr>
                        <td>Body mass index (BMI) [Ratio]</td>
                        <td>05-Feb-2025</td>
                        <td>30.7 kg/m2</td>
                     </tr>
                  </table>
               </div>
            </text>
            <status value="final"/>
            <category>
               <coding>
                  <system value="http://terminology.hl7.org/CodeSystem/observation-category"/>
                  <code value="vital-signs"/>
                  <display value="Vital Signs"/>
               </coding>
            </category>
            <code>
               <coding>
                  <system value="http://loinc.org"/>
                  <code value="$39156-5"/>
                  <display value="Body mass index (BMI) [Ratio]"/>
               </coding>
            </code>
            <subject>
               <reference value="urn:uuid:b90f5ea3-924c-4963-9d0b-455120235e02"/>
               <display value="Magdolna Balog"/>
            </subject>
            <effectiveDateTime value="2025-02-05"/>
            <valueQuantity>
               <value value="30.7"/>
               <unit value="kg/m2"/>
               <code value="kg/m2"/>
            </valueQuantity>
         </Observation>
      </resource>
   </entry>
   <entry>
      <fullUrl value="urn:uuid:771711f1-fd19-40c7-b301-9c7fddfe71ad"/>
      <resource>
         <Observation>
            <id value="771711f1-fd19-40c7-b301-9c7fddfe71ad"/>
            <meta>
               <profile value="http://hl7.org/fhir/StructureDefinition/vitalsigns"/>
            </meta>
            <text>
               <status value="generated"/>
               <div xmlns="http://www.w3.org/1999/xhtml">
                  <table class="hl7__ips">
                     <tr>
                        <th>Vital Sign</th>
                        <th>Date</th>
                        <th>Measurement</th>
                     </tr>
                     <tr>
                        <td>Diastolic Blood Pressure</td>
                        <td>05-Feb-2025</td>
                        <td>56 mm[Hg]</td>
                     </tr>
                  </table>
               </div>
            </text>
            <status value="final"/>
            <category>
               <coding>
                  <system value="http://terminology.hl7.org/CodeSystem/observation-category"/>
                  <code value="vital-signs"/>
                  <display value="Vital Signs"/>
               </coding>
            </category>
            <code>
               <coding>
                  <system value="http://loinc.org"/>
                  <code value="$8462-4"/>
                  <display value="Diastolic Blood Pressure"/>
               </coding>
            </code>
            <subject>
               <reference value="urn:uuid:b90f5ea3-924c-4963-9d0b-455120235e02"/>
               <display value="Magdolna Balog"/>
            </subject>
            <effectiveDateTime value="2025-02-05"/>
            <valueQuantity>
               <value value="56"/>
               <unit value="mm[Hg]"/>
               <code value="mm[Hg]"/>
            </valueQuantity>
         </Observation>
      </resource>
   </entry>
   <entry>
      <fullUrl value="urn:uuid:e0747f17-a07f-4646-acc8-053c63d0d13a"/>
      <resource>
         <Observation>
            <id value="e0747f17-a07f-4646-acc8-053c63d0d13a"/>
            <meta>
               <profile value="http://hl7.org/fhir/StructureDefinition/vitalsigns"/>
            </meta>
            <text>
               <status value="generated"/>
               <div xmlns="http://www.w3.org/1999/xhtml">
                  <table class="hl7__ips">
                     <tr>
                        <th>Vital Sign</th>
                        <th>Date</th>
                        <th>Measurement</th>
                     </tr>
                     <tr>
                        <td>Systolic Blood Pressure</td>
                        <td>05-Feb-2025</td>
                        <td>77 mm[Hg]</td>
                     </tr>
                  </table>
               </div>
            </text>
            <status value="final"/>
            <category>
               <coding>
                  <system value="http://terminology.hl7.org/CodeSystem/observation-category"/>
                  <code value="vital-signs"/>
                  <display value="Vital Signs"/>
               </coding>
            </category>
            <code>
               <coding>
                  <system value="http://loinc.org"/>
                  <code value="$8480-6"/>
                  <display value="Systolic Blood Pressure"/>
               </coding>
            </code>
            <subject>
               <reference value="urn:uuid:b90f5ea3-924c-4963-9d0b-455120235e02"/>
               <display value="Magdolna Balog"/>
            </subject>
            <effectiveDateTime value="2025-02-05"/>
            <valueQuantity>
               <value value="77"/>
               <unit value="mm[Hg]"/>
               <code value="mm[Hg]"/>
            </valueQuantity>
         </Observation>
      </resource>
   </entry>
   <entry>
      <fullUrl value="urn:uuid:da795312-7518-4c44-9ac2-c5eb4d49afb9"/>
      <resource>
         <Observation>
            <id value="da795312-7518-4c44-9ac2-c5eb4d49afb9"/>
            <meta>
               <profile value="http://hl7.org/fhir/StructureDefinition/vitalsigns"/>
            </meta>
            <text>
               <status value="generated"/>
               <div xmlns="http://www.w3.org/1999/xhtml">
                  <table class="hl7__ips">
                     <tr>
                        <th>Vital Sign</th>
                        <th>Date</th>
                        <th>Measurement</th>
                     </tr>
                     <tr>
                        <td>Heart rate</td>
                        <td>05-Feb-2025</td>
                        <td>75 /min</td>
                     </tr>
                  </table>
               </div>
            </text>
            <status value="final"/>
            <category>
               <coding>
                  <system value="http://terminology.hl7.org/CodeSystem/observation-category"/>
                  <code value="vital-signs"/>
                  <display value="Vital Signs"/>
               </coding>
            </category>
            <code>
               <coding>
                  <system value="http://loinc.org"/>
                  <code value="$8867-4"/>
                  <display value="Heart rate"/>
               </coding>
            </code>
            <subject>
               <reference value="urn:uuid:b90f5ea3-924c-4963-9d0b-455120235e02"/>
               <display value="Magdolna Balog"/>
            </subject>
            <effectiveDateTime value="2025-02-05"/>
            <valueQuantity>
               <value value="75"/>
               <unit value="/min"/>
               <code value="/min"/>
            </valueQuantity>
         </Observation>
      </resource>
   </entry>
   <entry>
      <fullUrl value="urn:uuid:db91d89c-74ec-44b2-9526-574fca53043f"/>
      <resource>
         <Observation>
            <id value="db91d89c-74ec-44b2-9526-574fca53043f"/>
            <meta>
               <profile value="http://hl7.org/fhir/StructureDefinition/vitalsigns"/>
            </meta>
            <text>
               <status value="generated"/>
               <div xmlns="http://www.w3.org/1999/xhtml">
                  <table class="hl7__ips">
                     <tr>
                        <th>Vital Sign</th>
                        <th>Date</th>
                        <th>Measurement</th>
                     </tr>
                     <tr>
                        <td>Respiratory rate</td>
                        <td>05-Feb-2025</td>
                        <td>14 /min</td>
                     </tr>
                  </table>
               </div>
            </text>
            <status value="final"/>
            <category>
               <coding>
                  <system value="http://terminology.hl7.org/CodeSystem/observation-category"/>
                  <code value="vital-signs"/>
                  <display value="Vital Signs"/>
               </coding>
            </category>
            <code>
               <coding>
                  <system value="http://loinc.org"/>
                  <code value="$9279-1"/>
                  <display value="Respiratory rate"/>
               </coding>
            </code>
            <subject>
               <reference value="urn:uuid:b90f5ea3-924c-4963-9d0b-455120235e02"/>
               <display value="Magdolna Balog"/>
            </subject>
            <effectiveDateTime value="2025-02-05"/>
            <valueQuantity>
               <value value="14"/>
               <unit value="/min"/>
               <code value="/min"/>
            </valueQuantity>
         </Observation>
      </resource>
   </entry>
   <entry>
      <fullUrl value="urn:uuid:45cd7471-c725-4b5b-b9f7-ce68018426db"/>
      <resource>
         <Observation>
            <id value="45cd7471-c725-4b5b-b9f7-ce68018426db"/>
            <meta>
               <profile value="http://hl7.eu/fhir/laboratory/StructureDefinition/Observation-resultslab-eu-lab"/>
            </meta>
            <text>
               <status value="generated"/>
               <div xmlns="http://www.w3.org/1999/xhtml">
                  <table class="hl7__eu__lab__report">
                     <tr>
                        <th>Test</th>
                        <th>25-Jun-2025</th>
                        <th>Reference Range</th>
                        <th>Unit</th>
                     </tr>
                     <tr>
                        <td>Hemoglobin A1c/Hemoglobin.total in Blood</td>
                        <td>5.9</td>
                        <td>4.5 - 6.4</td>
                        <td/>
                        <td>%</td>
                     </tr>
                  </table>
               </div>
            </text>
            <status value="final"/>
            <category>
               <coding>
                  <system value="http://terminology.hl7.org/CodeSystem/observation-category"/>
                  <code value="laboratory"/>
               </coding>
            </category>
            <code>
               <coding>
                  <system value="http://loinc.org"/>
                  <code value="4548-4"/>
                  <display value="Hemoglobin A1c/Hemoglobin.total in Blood"/>
               </coding>
               <text value="Hemoglobin A1c/Hemoglobin.total in Blood"/>
            </code>
            <subject>
               <reference value="urn:uuid:b90f5ea3-924c-4963-9d0b-455120235e02"/>
               <display value="Magdolna Balog"/>
            </subject>
            <effectiveDateTime value="2025-06-25T13:34:16Z"/>
            <performer>
               <display value="The Central European Lab"/>
            </performer>
            <valueQuantity>
               <value value="5.9"/>
               <unit value="%"/>
               <system value="http://unitsofmeasure.org"/>
               <code value="%"/>
            </valueQuantity>
            <referenceRange>
               <low>
                  <value value="4.5"/>
                  <system value="http://unitsofmeasure.org"/>
                  <code value="%"/>
               </low>
            </referenceRange>
            <referenceRange>
               <high>
                  <value value="6.4"/>
                  <system value="http://unitsofmeasure.org"/>
                  <code value="%"/>
               </high>
            </referenceRange>
         </Observation>
      </resource>
   </entry>
   <entry>
      <fullUrl value="urn:uuid:ab52b37d-4d40-4db2-8393-896ffa9df9f3"/>
      <resource>
         <Observation>
            <id value="ab52b37d-4d40-4db2-8393-896ffa9df9f3"/>
            <meta>
               <profile value="http://hl7.eu/fhir/laboratory/StructureDefinition/Observation-resultslab-eu-lab"/>
            </meta>
            <text>
               <status value="generated"/>
               <div xmlns="http://www.w3.org/1999/xhtml">
                  <table class="hl7__eu__lab__report">
                     <tr>
                        <th>Test</th>
                        <th>25-Jun-2025</th>
                        <th>Reference Range</th>
                        <th>Unit</th>
                     </tr>
                     <tr>
                        <td>Glucose [Mass/volume] in Blood</td>
                        <td>85.6</td>
                        <td>70 - 140</td>
                        <td/>
                        <td>mg/dL</td>
                     </tr>
                  </table>
               </div>
            </text>
            <status value="final"/>
            <category>
               <coding>
                  <system value="http://terminology.hl7.org/CodeSystem/observation-category"/>
                  <code value="laboratory"/>
               </coding>
            </category>
            <code>
               <coding>
                  <system value="http://loinc.org"/>
                  <code value="2339-0"/>
                  <display value="Glucose [Mass/volume] in Blood"/>
               </coding>
               <text value="Glucose [Mass/volume] in Blood"/>
            </code>
            <subject>
               <reference value="urn:uuid:b90f5ea3-924c-4963-9d0b-455120235e02"/>
               <display value="Magdolna Balog"/>
            </subject>
            <effectiveDateTime value="2025-06-25T13:34:16Z"/>
            <performer>
               <display value="The Central European Lab"/>
            </performer>
            <valueQuantity>
               <value value="85.6"/>
               <unit value="mg/dL"/>
               <system value="http://unitsofmeasure.org"/>
               <code value="mg/dL"/>
            </valueQuantity>
            <referenceRange>
               <low>
                  <value value="70"/>
                  <system value="http://unitsofmeasure.org"/>
                  <code value="mg/dL"/>
               </low>
            </referenceRange>
            <referenceRange>
               <high>
                  <value value="140"/>
                  <system value="http://unitsofmeasure.org"/>
                  <code value="mg/dL"/>
               </high>
            </referenceRange>
         </Observation>
      </resource>
   </entry>
   <entry>
      <fullUrl value="urn:uuid:1a39a3e0-691a-426f-bd89-b50369ba9996"/>
      <resource>
         <Observation>
            <id value="1a39a3e0-691a-426f-bd89-b50369ba9996"/>
            <meta>
               <profile value="http://hl7.eu/fhir/laboratory/StructureDefinition/Observation-resultslab-eu-lab"/>
            </meta>
            <text>
               <status value="generated"/>
               <div xmlns="http://www.w3.org/1999/xhtml">
                  <table class="hl7__eu__lab__report">
                     <tr>
                        <th>Test</th>
                        <th>25-Jun-2025</th>
                        <th>Reference Range</th>
                        <th>Unit</th>
                     </tr>
                     <tr>
                        <td>Urea nitrogen [Mass/volume] in Blood</td>
                        <td>14.0</td>
                        <td>7 - 20</td>
                        <td/>
                        <td>mg/dL</td>
                     </tr>
                  </table>
               </div>
            </text>
            <status value="final"/>
            <category>
               <coding>
                  <system value="http://terminology.hl7.org/CodeSystem/observation-category"/>
                  <code value="laboratory"/>
               </coding>
            </category>
            <code>
               <coding>
                  <system value="http://loinc.org"/>
                  <code value="6299-2"/>
                  <display value="Urea nitrogen [Mass/volume] in Blood"/>
               </coding>
               <text value="Urea nitrogen [Mass/volume] in Blood"/>
            </code>
            <subject>
               <reference value="urn:uuid:b90f5ea3-924c-4963-9d0b-455120235e02"/>
               <display value="Magdolna Balog"/>
            </subject>
            <effectiveDateTime value="2025-06-25T13:34:16Z"/>
            <performer>
               <display value="The Central European Lab"/>
            </performer>
            <valueQuantity>
               <value value="14"/>
               <unit value="mg/dL"/>
               <system value="http://unitsofmeasure.org"/>
               <code value="mg/dL"/>
            </valueQuantity>
            <referenceRange>
               <low>
                  <value value="7"/>
                  <system value="http://unitsofmeasure.org"/>
                  <code value="mg/dL"/>
               </low>
            </referenceRange>
            <referenceRange>
               <high>
                  <value value="20"/>
                  <system value="http://unitsofmeasure.org"/>
                  <code value="mg/dL"/>
               </high>
            </referenceRange>
         </Observation>
      </resource>
   </entry>
   <entry>
      <fullUrl value="urn:uuid:e99979ad-4477-4e6e-958b-51f69dd69f90"/>
      <resource>
         <Observation>
            <id value="e99979ad-4477-4e6e-958b-51f69dd69f90"/>
            <meta>
               <profile value="http://hl7.eu/fhir/laboratory/StructureDefinition/Observation-resultslab-eu-lab"/>
            </meta>
            <text>
               <status value="generated"/>
               <div xmlns="http://www.w3.org/1999/xhtml">
                  <table class="hl7__eu__lab__report">
                     <tr>
                        <th>Test</th>
                        <th>25-Jun-2025</th>
                        <th>Reference Range</th>
                        <th>Unit</th>
                     </tr>
                     <tr>
                        <td>Creatinine [Mass/volume] in Blood</td>
                        <td>0.7</td>
                        <td>0.6 - 1.1</td>
                        <td/>
                        <td>mg/dL</td>
                     </tr>
                  </table>
               </div>
            </text>
            <status value="final"/>
            <category>
               <coding>
                  <system value="http://terminology.hl7.org/CodeSystem/observation-category"/>
                  <code value="laboratory"/>
               </coding>
            </category>
            <code>
               <coding>
                  <system value="http://loinc.org"/>
                  <code value="38483-4"/>
                  <display value="Creatinine [Mass/volume] in Blood"/>
               </coding>
               <text value="Creatinine [Mass/volume] in Blood"/>
            </code>
            <subject>
               <reference value="urn:uuid:b90f5ea3-924c-4963-9d0b-455120235e02"/>
               <display value="Magdolna Balog"/>
            </subject>
            <effectiveDateTime value="2025-06-25T13:34:16Z"/>
            <performer>
               <display value="The Central European Lab"/>
            </performer>
            <valueQuantity>
               <value value="0.7"/>
               <unit value="mg/dL"/>
               <system value="http://unitsofmeasure.org"/>
               <code value="mg/dL"/>
            </valueQuantity>
            <referenceRange>
               <low>
                  <value value="0.6"/>
                  <system value="http://unitsofmeasure.org"/>
                  <code value="mg/dL"/>
               </low>
            </referenceRange>
            <referenceRange>
               <high>
                  <value value="1.1"/>
                  <system value="http://unitsofmeasure.org"/>
                  <code value="mg/dL"/>
               </high>
            </referenceRange>
         </Observation>
      </resource>
   </entry>
   <entry>
      <fullUrl value="urn:uuid:c7e72b27-66cb-4291-9e8d-5e3b815ca6fa"/>
      <resource>
         <Observation>
            <id value="c7e72b27-66cb-4291-9e8d-5e3b815ca6fa"/>
            <meta>
               <profile value="http://hl7.eu/fhir/laboratory/StructureDefinition/Observation-resultslab-eu-lab"/>
            </meta>
            <text>
               <status value="generated"/>
               <div xmlns="http://www.w3.org/1999/xhtml">
                  <table class="hl7__eu__lab__report">
                     <tr>
                        <th>Test</th>
                        <th>25-Jun-2025</th>
                        <th>Reference Range</th>
                        <th>Unit</th>
                     </tr>
                     <tr>
                        <td>Calcium [Mass/volume] in Blood</td>
                        <td>9.6</td>
                        <td>8.5 - 10.4</td>
                        <td/>
                        <td>mg/dL</td>
                     </tr>
                  </table>
               </div>
            </text>
            <status value="final"/>
            <category>
               <coding>
                  <system value="http://terminology.hl7.org/CodeSystem/observation-category"/>
                  <code value="laboratory"/>
               </coding>
            </category>
            <code>
               <coding>
                  <system value="http://loinc.org"/>
                  <code value="49765-1"/>
                  <display value="Calcium [Mass/volume] in Blood"/>
               </coding>
               <text value="Calcium [Mass/volume] in Blood"/>
            </code>
            <subject>
               <reference value="urn:uuid:b90f5ea3-924c-4963-9d0b-455120235e02"/>
               <display value="Magdolna Balog"/>
            </subject>
            <effectiveDateTime value="2025-06-25T13:34:16Z"/>
            <performer>
               <display value="The Central European Lab"/>
            </performer>
            <valueQuantity>
               <value value="9.6"/>
               <unit value="mg/dL"/>
               <system value="http://unitsofmeasure.org"/>
               <code value="mg/dL"/>
            </valueQuantity>
            <referenceRange>
               <low>
                  <value value="8.5"/>
                  <system value="http://unitsofmeasure.org"/>
                  <code value="mg/dL"/>
               </low>
            </referenceRange>
            <referenceRange>
               <high>
                  <value value="10.4"/>
                  <system value="http://unitsofmeasure.org"/>
                  <code value="mg/dL"/>
               </high>
            </referenceRange>
         </Observation>
      </resource>
   </entry>
   <entry>
      <fullUrl value="urn:uuid:b4e81aae-326a-428b-8752-8601d11aee04"/>
      <resource>
         <Observation>
            <id value="b4e81aae-326a-428b-8752-8601d11aee04"/>
            <meta>
               <profile value="http://hl7.eu/fhir/laboratory/StructureDefinition/Observation-resultslab-eu-lab"/>
            </meta>
            <text>
               <status value="generated"/>
               <div xmlns="http://www.w3.org/1999/xhtml">
                  <table class="hl7__eu__lab__report">
                     <tr>
                        <th>Test</th>
                        <th>25-Jun-2025</th>
                        <th>Reference Range</th>
                        <th>Unit</th>
                     </tr>
                     <tr>
                        <td>Sodium [Moles/volume] in Blood</td>
                        <td>140.3</td>
                        <td>135 - 145</td>
                        <td/>
                        <td>mmol/L</td>
                     </tr>
                  </table>
               </div>
            </text>
            <status value="final"/>
            <category>
               <coding>
                  <system value="http://terminology.hl7.org/CodeSystem/observation-category"/>
                  <code value="laboratory"/>
               </coding>
            </category>
            <code>
               <coding>
                  <system value="http://loinc.org"/>
                  <code value="2947-0"/>
                  <display value="Sodium [Moles/volume] in Blood"/>
               </coding>
               <text value="Sodium [Moles/volume] in Blood"/>
            </code>
            <subject>
               <reference value="urn:uuid:b90f5ea3-924c-4963-9d0b-455120235e02"/>
               <display value="Magdolna Balog"/>
            </subject>
            <effectiveDateTime value="2025-06-25T13:34:16Z"/>
            <performer>
               <display value="The Central European Lab"/>
            </performer>
            <valueQuantity>
               <value value="140.3"/>
               <unit value="mmol/L"/>
               <system value="http://unitsofmeasure.org"/>
               <code value="mmol/L"/>
            </valueQuantity>
            <referenceRange>
               <low>
                  <value value="135"/>
                  <system value="http://unitsofmeasure.org"/>
                  <code value="mmol/L"/>
               </low>
            </referenceRange>
            <referenceRange>
               <high>
                  <value value="145"/>
                  <system value="http://unitsofmeasure.org"/>
                  <code value="mmol/L"/>
               </high>
            </referenceRange>
         </Observation>
      </resource>
   </entry>
   <entry>
      <fullUrl value="urn:uuid:8f6eb305-73db-4b7c-aee8-a8c68bf251d3"/>
      <resource>
         <Observation>
            <id value="8f6eb305-73db-4b7c-aee8-a8c68bf251d3"/>
            <meta>
               <profile value="http://hl7.eu/fhir/laboratory/StructureDefinition/Observation-resultslab-eu-lab"/>
            </meta>
            <text>
               <status value="generated"/>
               <div xmlns="http://www.w3.org/1999/xhtml">
                  <table class="hl7__eu__lab__report">
                     <tr>
                        <th>Test</th>
                        <th>25-Jun-2025</th>
                        <th>Reference Range</th>
                        <th>Unit</th>
                     </tr>
                     <tr>
                        <td>Potassium [Moles/volume] in Blood</td>
                        <td>4.1</td>
                        <td>3.5 - 5.1</td>
                        <td/>
                        <td>mmol/L</td>
                     </tr>
                  </table>
               </div>
            </text>
            <status value="final"/>
            <category>
               <coding>
                  <system value="http://terminology.hl7.org/CodeSystem/observation-category"/>
                  <code value="laboratory"/>
               </coding>
            </category>
            <code>
               <coding>
                  <system value="http://loinc.org"/>
                  <code value="6298-4"/>
                  <display value="Potassium [Moles/volume] in Blood"/>
               </coding>
               <text value="Potassium [Moles/volume] in Blood"/>
            </code>
            <subject>
               <reference value="urn:uuid:b90f5ea3-924c-4963-9d0b-455120235e02"/>
               <display value="Magdolna Balog"/>
            </subject>
            <effectiveDateTime value="2025-06-25T13:34:16Z"/>
            <performer>
               <display value="The Central European Lab"/>
            </performer>
            <valueQuantity>
               <value value="4.1"/>
               <unit value="mmol/L"/>
               <system value="http://unitsofmeasure.org"/>
               <code value="mmol/L"/>
            </valueQuantity>
            <referenceRange>
               <low>
                  <value value="3.5"/>
                  <system value="http://unitsofmeasure.org"/>
                  <code value="mmol/L"/>
               </low>
            </referenceRange>
            <referenceRange>
               <high>
                  <value value="5.1"/>
                  <system value="http://unitsofmeasure.org"/>
                  <code value="mmol/L"/>
               </high>
            </referenceRange>
         </Observation>
      </resource>
   </entry>
   <entry>
      <fullUrl value="urn:uuid:1e562e01-0a96-412c-9122-3232499786be"/>
      <resource>
         <Observation>
            <id value="1e562e01-0a96-412c-9122-3232499786be"/>
            <meta>
               <profile value="http://hl7.eu/fhir/laboratory/StructureDefinition/Observation-resultslab-eu-lab"/>
            </meta>
            <text>
               <status value="generated"/>
               <div xmlns="http://www.w3.org/1999/xhtml">
                  <table class="hl7__eu__lab__report">
                     <tr>
                        <th>Test</th>
                        <th>25-Jun-2025</th>
                        <th>Reference Range</th>
                        <th>Unit</th>
                     </tr>
                     <tr>
                        <td>Chloride [Moles/volume] in Blood</td>
                        <td>102.6</td>
                        <td>98 - 107</td>
                        <td/>
                        <td>mmol/L</td>
                     </tr>
                  </table>
               </div>
            </text>
            <status value="final"/>
            <category>
               <coding>
                  <system value="http://terminology.hl7.org/CodeSystem/observation-category"/>
                  <code value="laboratory"/>
               </coding>
            </category>
            <code>
               <coding>
                  <system value="http://loinc.org"/>
                  <code value="2069-3"/>
                  <display value="Chloride [Moles/volume] in Blood"/>
               </coding>
               <text value="Chloride [Moles/volume] in Blood"/>
            </code>
            <subject>
               <reference value="urn:uuid:b90f5ea3-924c-4963-9d0b-455120235e02"/>
               <display value="Magdolna Balog"/>
            </subject>
            <effectiveDateTime value="2025-06-25T13:34:16Z"/>
            <performer>
               <display value="The Central European Lab"/>
            </performer>
            <valueQuantity>
               <value value="102.6"/>
               <unit value="mmol/L"/>
               <system value="http://unitsofmeasure.org"/>
               <code value="mmol/L"/>
            </valueQuantity>
            <referenceRange>
               <low>
                  <value value="98"/>
                  <system value="http://unitsofmeasure.org"/>
                  <code value="mmol/L"/>
               </low>
            </referenceRange>
            <referenceRange>
               <high>
                  <value value="107"/>
                  <system value="http://unitsofmeasure.org"/>
                  <code value="mmol/L"/>
               </high>
            </referenceRange>
         </Observation>
      </resource>
   </entry>
   <entry>
      <fullUrl value="urn:uuid:9d3cff2a-5a5d-4f74-905e-31ad8cb7f9fa"/>
      <resource>
         <Observation>
            <id value="9d3cff2a-5a5d-4f74-905e-31ad8cb7f9fa"/>
            <meta>
               <profile value="http://hl7.eu/fhir/laboratory/StructureDefinition/Observation-resultslab-eu-lab"/>
            </meta>
            <text>
               <status value="generated"/>
               <div xmlns="http://www.w3.org/1999/xhtml">
                  <table class="hl7__eu__lab__report">
                     <tr>
                        <th>Test</th>
                        <th>25-Jun-2025</th>
                        <th>Reference Range</th>
                        <th>Unit</th>
                     </tr>
                     <tr>
                        <td>Carbon dioxide, total [Moles/volume] in Blood</td>
                        <td>24.5</td>
                        <td>22 - 29</td>
                        <td/>
                        <td>mmol/L</td>
                     </tr>
                  </table>
               </div>
            </text>
            <status value="final"/>
            <category>
               <coding>
                  <system value="http://terminology.hl7.org/CodeSystem/observation-category"/>
                  <code value="laboratory"/>
               </coding>
            </category>
            <code>
               <coding>
                  <system value="http://loinc.org"/>
                  <code value="20565-8"/>
                  <display value="Carbon dioxide, total [Moles/volume] in Blood"/>
               </coding>
               <text value="Carbon dioxide, total [Moles/volume] in Blood"/>
            </code>
            <subject>
               <reference value="urn:uuid:b90f5ea3-924c-4963-9d0b-455120235e02"/>
               <display value="Magdolna Balog"/>
            </subject>
            <effectiveDateTime value="2025-06-25T13:34:16Z"/>
            <performer>
               <display value="The Central European Lab"/>
            </performer>
            <valueQuantity>
               <value value="24.5"/>
               <unit value="mmol/L"/>
               <system value="http://unitsofmeasure.org"/>
               <code value="mmol/L"/>
            </valueQuantity>
            <referenceRange>
               <low>
                  <value value="22"/>
                  <system value="http://unitsofmeasure.org"/>
                  <code value="mmol/L"/>
               </low>
            </referenceRange>
            <referenceRange>
               <high>
                  <value value="29"/>
                  <system value="http://unitsofmeasure.org"/>
                  <code value="mmol/L"/>
               </high>
            </referenceRange>
         </Observation>
      </resource>
   </entry>
   <entry>
      <fullUrl value="urn:uuid:7c39a449-6f8d-47c1-81e7-b7f9f61cd4bd"/>
      <resource>
         <DeviceUseStatement>
            <id value="7c39a449-6f8d-47c1-81e7-b7f9f61cd4bd"/>
            <meta>
               <profile value="http://hl7.eu/fhir/eps/StructureDefinition/deviceUseStatement-eu-eps"/>
            </meta>
            <text>
               <status value="generated"/>
               <div xmlns="http://www.w3.org/1999/xhtml">
                  <table class="hl7__ips">
                     <tr>
                        <td>Blood glucose meter (physical object)</td>
                        <td>
                           <span class="nb">21-Jan-1998</span>
                        </td>
                     </tr>
                  </table>
               </div>
            </text>
            <status value="active"/>
            <subject>
               <reference value="urn:uuid:b90f5ea3-924c-4963-9d0b-455120235e02"/>
               <display value="Magdolna Balog"/>
            </subject>
            <timingPeriod>
               <start value="1998-01-21"/>
            </timingPeriod>
            <device>
               <reference value="urn:uuid:7a0aecc0-40ce-4203-8ac9-fc9d232549f0"/>
               <display value="Blood glucose meter (physical object)"/>
            </device>
         </DeviceUseStatement>
      </resource>
   </entry>
   <entry>
      <fullUrl value="urn:uuid:7a0aecc0-40ce-4203-8ac9-fc9d232549f0"/>
      <resource>
         <Device>
            <id value="7a0aecc0-40ce-4203-8ac9-fc9d232549f0"/>
            <meta>
               <profile value="http://hl7.eu/fhir/eps/StructureDefinition/device-eu-eps"/>
            </meta>
            <udiCarrier id="(01)65697228048874(11)981231(17)230115(10)64556440051(21)23081083542762"/>
            <status value="active"/>
            <type>
               <coding>
                  <system value="http://snomed.info/sct"/>
                  <code value="337414009"/>
                  <display value="Blood glucose meter (physical object)"/>
               </coding>
            </type>
            <patient>
               <reference value="urn:uuid:b90f5ea3-924c-4963-9d0b-455120235e02"/>
               <display value="Magdolna Balog"/>
            </patient>
         </Device>
      </resource>
   </entry>
   <entry>
      <fullUrl value="urn:uuid:2c2980cf-dc27-4771-85d4-e55e299aa11b"/>
      <resource>
         <Device>
            <id value="2c2980cf-dc27-4771-85d4-e55e299aa11b"/>
            <text>
               <status value="generated"/>
               <div xmlns="http://www.w3.org/1999/xhtml">SYNDERAI Synthetic Generator v5.0</div>
            </text>
            <status value="active&#34;"/>
            <distinctIdentifier value="synderai-generator-50"/>
            <manufacturer value="SYNDERAI Project"/>
            <deviceName>
               <name value="SYNDERAI Synthetic Generator"/>
               <type value="manufacturer-name"/>
            </deviceName>
            <version>
               <value value="5.0"/>
            </version>
         </Device>
      </resource>
   </entry>
   <entry>
      <fullUrl value="urn:uuid:4f0dc153-1d44-46f8-b7d4-598d2f291668"/>
      <resource>
         <Provenance>
            <id value="4f0dc153-1d44-46f8-b7d4-598d2f291668"/>
            <text>
               <status value="generated"/>
               <div xmlns="http://www.w3.org/1999/xhtml">Provenance for SYNDERAI Synthetic Example Data Resource</div>
            </text>
            <target>
               <reference value="Patient/b90f5ea3-924c-4963-9d0b-455120235e02"/>
            </target>
            <target>
               <reference value="Bundle/4059f02d-9b86-42a0-b001-1ae013b53189"/>
            </target>
            <target>
               <reference value="Composition/4b4708c4-6555-4a6b-b8a5-19b12adb669e"/>
            </target>
            <target>
               <reference value="PractitionerRole/ed3b4c86-c6eb-4261-b80b-5b49508a8d04"/>
            </target>
            <target>
               <reference value="Organization/c343fe05-98f4-43f9-9ca8-55cc1b2a8992"/>
            </target>
            <target>
               <reference value="Practitioner/b1a89815-3dcd-4d2c-ac1a-bbf398802346"/>
            </target>
            <recorded value="2025-06-25T13:34:16Z"/>
            <policy value="https://synderai.net/synderai-synthetic-data-policy"/>
            <reason>
               <text value="Interoperability Testing and Training (non-clinical use)"/>
            </reason>
            <activity>
               <text value="Synthetic Example Data Generation"/>
            </activity>
            <agent>
               <type>
                  <text value="author"/>
               </type>
               <who>
                  <reference value="Device/2c2980cf-dc27-4771-85d4-e55e299aa11b"/>
               </who>
            </agent>
         </Provenance>
      </resource>
   </entry>
</Bundle>