<Bundle xmlns="http://hl7.org/fhir">
   <id value="bde5f9ec-1418-4f11-b279-31f26a68676d"/>
   <meta>
      <profile value="http://hl7.eu/fhir/eps/StructureDefinition/bundle-eu-eps"/>
   </meta>
   <identifier>
      <system value="urn:oid:2.16.840.1.113883.2.51.999"/>
      <value value="e32a3eb5-9702-44df-b75d-051c81318d47"/>
      <assigner>
         <display value="HL7 Europe"/>
      </assigner>
   </identifier>
   <type value="document"/>
   <timestamp value="2024-11-30T22:53:36Z"/>
   <entry>
      <fullUrl value="urn:uuid:815a857f-b50b-4576-b6fb-aa9d061ecc64"/>
      <resource>
         <Composition>
            <id value="815a857f-b50b-4576-b6fb-aa9d061ecc64"/>
            <meta>
               <profile value="http://hl7.eu/fhir/eps/StructureDefinition/composition-eu-eps"/>
               <security>
                  <system value="http://terminology.hl7.org/CodeSystem/v3-ActReason"/>
                  <code value="HTEST"/>
               </security>
               <security>
                  <system value="http://terminology.hl7.org/CodeSystem/v3-ActReason"/>
                  <code value="TRAIN"/>
               </security>
               <tag>
                  <system value="https://synderai.net/fhir/CodeSystem/tags"/>
                  <code value="synthetic"/>
                  <display value="SYNDERAI Synthetic data"/>
               </tag>
            </meta>
            <identifier>
               <system value="urn:oid:2.16.840.1.113883.2.51.999"/>
               <value value="2ab3abcd-9278-4fcb-a7d3-0715cd716d11"/>
               <assigner>
                  <display value="HL7 Europe"/>
               </assigner>
            </identifier>
            <status value="final"/>
            <type>
               <coding>
                  <system value="http://loinc.org"/>
                  <code value="60591-5"/>
                  <display value="Patient summary Document"/>
               </coding>
               <text value="Patient summary Document"/>
            </type>
            <subject>
               <reference value="urn:uuid:356b1a6a-4cfc-485b-876d-1814cf62fb15"/>
               <display value="Helene Andresen"/>
            </subject>
            <date value="2024-11-30"/>
            <author>
               <reference value="urn:uuid:8b62a1d5-7ac0-4a61-a64b-5637d749b532"/>
            </author>
            <title value="European Patient Summary"/>
            <confidentiality value="N"/>
            <custodian>
               <reference value="urn:uuid:704307a4-2a78-447b-b149-e6d8d4daedb2"/>
            </custodian>
            <section>
               <title value="Problem list"/>
               <code>
                  <coding>
                     <system value="http://loinc.org"/>
                     <code value="11450-4"/>
                     <display value="Problem list - Reported"/>
                  </coding>
               </code>
               <text>
                  <status value="generated"/>
                  <div xmlns="http://www.w3.org/1999/xhtml">
                     <table class="hl7__ips">
                        <tr>
                           <th>Condition</th>
                           <th>Onset Date</th>
                           <th>Status</th>
                        </tr>
                        <tr>
                           <td>Osteoporosis</td>
                           <td>
                              <span class="nb">21-Oct-2018</span>
                           </td>
                           <td>active</td>
                        </tr>
                        <tr>
                           <td>Chronic sinusitis</td>
                           <td>
                              <span class="nb">31-May-1999</span>
                           </td>
                           <td>active</td>
                        </tr>
                        <tr>
                           <td>Hyperlipidemia</td>
                           <td>
                              <span class="nb">07-May-1989</span>
                           </td>
                           <td>active</td>
                        </tr>
                        <tr>
                           <td>Anemia</td>
                           <td>
                              <span class="nb">06-Jul-1963</span>
                           </td>
                           <td>active</td>
                        </tr>
                        <tr>
                           <td>Prediabetes</td>
                           <td>
                              <span class="nb">02-Jul-1960</span>
                           </td>
                           <td>active</td>
                        </tr>
                        <tr>
                           <td>Seizure disorder</td>
                           <td>
                              <span class="nb">19-Apr-1953</span>
                           </td>
                           <td>active</td>
                        </tr>
                     </table>
                  </div>
               </text>
               <entry>
                  <reference value="urn:uuid:be122bac-0f74-49c1-a271-c27b12f7fba0"/>
               </entry>
               <entry>
                  <reference value="urn:uuid:7375b0ea-2772-4f94-a269-98693aa8d829"/>
               </entry>
               <entry>
                  <reference value="urn:uuid:a10854fd-3915-41ab-a1e8-268fae495b4f"/>
               </entry>
               <entry>
                  <reference value="urn:uuid:62180c07-ab4a-4d0c-9601-a3097c315602"/>
               </entry>
               <entry>
                  <reference value="urn:uuid:5fea60f3-8ae1-4ac8-94b6-2238cfb2d10f"/>
               </entry>
               <entry>
                  <reference value="urn:uuid:8240bfd8-8502-4c7f-b66d-056e29caad87"/>
               </entry>
            </section>
            <section>
               <title value="Medication list"/>
               <code>
                  <coding>
                     <system value="http://loinc.org"/>
                     <code value="10160-0"/>
                     <display value="History of Medication use Narrative"/>
                  </coding>
               </code>
               <text>
                  <status value="generated"/>
                  <div xmlns="http://www.w3.org/1999/xhtml">
                     <table class="hl7__ips">
                        <tr>
                           <th>Medication</th>
                           <th>Since</th>
                           <th>Form</th>
                           <th>Dosage</th>
                           <th>Reason</th>
                        </tr>
                        <tr>
                           <td>Simvastatin 10 mg oral tablet</td>
                           <td>
                              <span class="nb">2024-11-30</span>
                           </td>
                           <td>-</td>
                           <td>1 tablet (10 mg) by mouth once daily</td>
                           <td>Hyperlipidemia</td>
                        </tr>
                        <tr>
                           <td>Alendronic acid (as alendronate sodium) 10 mg oral tablet</td>
                           <td>
                              <span class="nb">2024-11-23</span>
                           </td>
                           <td>-</td>
                           <td>1 tablet (10 mg) once daily</td>
                           <td>Osteoporosis (disorder)</td>
                        </tr>
                     </table>
                  </div>
               </text>
               <entry>
                  <reference value="urn:uuid:2e2ca888-29a1-41cd-930c-c24dd074e0f6"/>
               </entry>
               <entry>
                  <reference value="urn:uuid:d538f4cc-1846-41dc-83a2-0d7a9bfa1b5f"/>
               </entry>
            </section>
            <section>
               <title value="Immunizations list"/>
               <code>
                  <coding>
                     <system value="http://loinc.org"/>
                     <code value="11369-6"/>
                     <display value="History of Immunization note"/>
                  </coding>
               </code>
               <text>
                  <status value="generated"/>
                  <div xmlns="http://www.w3.org/1999/xhtml">
                     <table class="hl7__ips">
                        <tr>
                           <th>Vaccine</th>
                           <th>Date</th>
                        </tr>
                        <tr>
                           <td>Influenza virus antigen only vaccine product</td>
                           <td>
                              <span class="nb">23-Nov-2024</span>
                           </td>
                        </tr>
                        <tr>
                           <td>SARS-CoV-2 mRNA vaccine</td>
                           <td>
                              <span class="nb">05-Jun-2021</span>
                           </td>
                        </tr>
                        <tr>
                           <td>Clostridium tetani toxoid antigen adsorbed only vaccine product</td>
                           <td>
                              <span class="nb">26-Oct-2019</span>
                           </td>
                        </tr>
                     </table>
                  </div>
               </text>
               <entry>
                  <reference value="urn:uuid:b1b9aa59-702e-493a-be68-42760514b26e"/>
               </entry>
               <entry>
                  <reference value="urn:uuid:5bed6127-0df9-4d34-842f-6ca61f76c84c"/>
               </entry>
               <entry>
                  <reference value="urn:uuid:ba7ad52f-87a0-47b2-9b8e-39d6550a140e"/>
               </entry>
            </section>
            <section>
               <title value="Procedure History list"/>
               <code>
                  <coding>
                     <system value="http://loinc.org"/>
                     <code value="47519-4"/>
                     <display value="History of Procedures Document"/>
                  </coding>
               </code>
               <text>
                  <status value="generated"/>
                  <div xmlns="http://www.w3.org/1999/xhtml">
                     <table class="hl7__ips">
                        <tr>
                           <th>Procedure</th>
                           <th>Date</th>
                           <th>Reason</th>
                        </tr>
                        <tr>
                           <td>Suture open wound</td>
                           <td>
                              <span class="nb">30-Jun-2023</span>
                           </td>
                           <td>Laceration of hand</td>
                        </tr>
                        <tr>
                           <td>Pre-discharge assessment</td>
                           <td>
                              <span class="nb">09-May-2021</span>
                           </td>
                           <td>-</td>
                        </tr>
                        <tr>
                           <td>Discharge from skilled nursing facility (procedure)</td>
                           <td>
                              <span class="nb">09-May-2021</span>
                           </td>
                           <td>-</td>
                        </tr>
                        <tr>
                           <td>Nursing care/supplementary surveillance</td>
                           <td>
                              <span class="nb">08-May-2021</span>
                           </td>
                           <td>-</td>
                        </tr>
                        <tr>
                           <td>Physical therapy procedure</td>
                           <td>
                              <span class="nb">06-May-2021</span>
                           </td>
                           <td>-</td>
                        </tr>
                        <tr>
                           <td>Radiography of humerus</td>
                           <td>
                              <span class="nb">01-May-2021</span>
                           </td>
                           <td>-</td>
                        </tr>
                        <tr>
                           <td>History AND physical examination</td>
                           <td>
                              <span class="nb">01-May-2021</span>
                           </td>
                           <td>-</td>
                        </tr>
                        <tr>
                           <td>Bone immobilization</td>
                           <td>
                              <span class="nb">01-May-2021</span>
                           </td>
                           <td>Fracture of forearm</td>
                        </tr>
                        <tr>
                           <td>Initial patient assessment</td>
                           <td>
                              <span class="nb">01-May-2021</span>
                           </td>
                           <td>-</td>
                        </tr>
                        <tr>
                           <td>Development of individualized plan of care</td>
                           <td>
                              <span class="nb">01-May-2021</span>
                           </td>
                           <td>-</td>
                        </tr>
                        <tr>
                           <td>Occupational therapy</td>
                           <td>
                              <span class="nb">05-Mar-2020</span>
                           </td>
                           <td>-</td>
                        </tr>
                        <tr>
                           <td>Care regimes assessment</td>
                           <td>
                              <span class="nb">04-Mar-2020</span>
                           </td>
                           <td>-</td>
                        </tr>
                        <tr>
                           <td>Professional / ancillary services care</td>
                           <td>
                              <span class="nb">26-Feb-2020</span>
                           </td>
                           <td>-</td>
                        </tr>
                        <tr>
                           <td>Radiography of wrist</td>
                           <td>
                              <span class="nb">16-Feb-2020</span>
                           </td>
                           <td>-</td>
                        </tr>
                     </table>
                  </div>
               </text>
               <entry>
                  <reference value="urn:uuid:59d4eec1-b40b-4c26-b888-f1b894f9779c"/>
               </entry>
               <entry>
                  <reference value="urn:uuid:13d62578-1bba-4996-bf67-531e36f1cda3"/>
               </entry>
               <entry>
                  <reference value="urn:uuid:10f1bc48-d9ce-4844-87b3-7d2408991616"/>
               </entry>
               <entry>
                  <reference value="urn:uuid:6459f50d-b7f8-4254-868d-b388d973e6ff"/>
               </entry>
               <entry>
                  <reference value="urn:uuid:5ee90d57-7b43-4e56-8791-7233d55e96c0"/>
               </entry>
               <entry>
                  <reference value="urn:uuid:a8abb798-c89d-4d84-a021-92d56ea01685"/>
               </entry>
               <entry>
                  <reference value="urn:uuid:17f94d95-c3a4-4832-b599-508ca2f0676f"/>
               </entry>
               <entry>
                  <reference value="urn:uuid:838401c8-7f0c-4ff2-a2d5-761a83ec19a0"/>
               </entry>
               <entry>
                  <reference value="urn:uuid:c5cb5218-5abe-4090-a80f-9ab906209c5e"/>
               </entry>
               <entry>
                  <reference value="urn:uuid:f98b5aaa-2f02-46c7-a419-ee02002589de"/>
               </entry>
               <entry>
                  <reference value="urn:uuid:27f9c16f-629c-4f30-ac97-d7e4f55eb5ee"/>
               </entry>
               <entry>
                  <reference value="urn:uuid:53eaf495-e163-4d1c-a6b8-dcb02a5aedfc"/>
               </entry>
               <entry>
                  <reference value="urn:uuid:d5921009-afe9-4894-8d89-1097e57aa528"/>
               </entry>
               <entry>
                  <reference value="urn:uuid:95dfbea3-1943-4cd2-85aa-02e360ffe5be"/>
               </entry>
            </section>
            <section>
               <title value="Allergies and Intolerances"/>
               <code>
                  <coding>
                     <system value="http://loinc.org"/>
                     <code value="48765-2"/>
                     <display value="Allergies and adverse reactions Document"/>
                  </coding>
               </code>
               <text>
                  <status value="generated"/>
                  <div xmlns="http://www.w3.org/1999/xhtml">
                     <table class="hl7__ips">
                        <tr>
                           <th>Allergy/Intolerance</th>
                           <th>Onset Date</th>
                           <th>Status</th>
                           <th>Type</th>
                           <th>Reaction</th>
                        </tr>
                        <tr>
                           <td>Inadequate digital access affecting health care</td>
                           <td>
                              <span class="nb">2025-10-22</span>
                           </td>
                           <td>active</td>
                           <td>environment</td>
                           <td/>
                        </tr>
                     </table>
                  </div>
               </text>
               <entry>
                  <reference value="urn:uuid:e7388923-4025-448a-ab94-f4ee1d3695b3"/>
               </entry>
            </section>
            <section>
               <title value="Care Plan"/>
               <code>
                  <coding>
                     <system value="http://loinc.org"/>
                     <code value="18776-5"/>
                     <display value="Plan of care note"/>
                  </coding>
               </code>
               <text>
                  <status value="generated"/>
                  <div xmlns="http://www.w3.org/1999/xhtml">
                     <table class="hl7__ips">
                        <tr>
                           <th>Active Planned Care / Goals</th>
                           <th>Start Date</th>
                           <th>Reason</th>
                        </tr>
                        <tr>
                           <td>Hyperlipidemia clinical management plan</td>
                           <td>
                              <span class="nb">28-May-1989</span>
                           </td>
                           <td>Hyperlipidemia</td>
                        </tr>
                        <tr>
                           <td>
                              <ul>
                                 <li>Achieve LDL cholesterol less than 2.6 mmol/L</li>
                                 <li>Achieve total cholesterol less than 5.2 mmol/L</li>
                                 <li>Maintain HDL cholesterol greater than 1.3 mmol/L</li>
                                 <li>Achieve triglycerides less than 1.7 mmol/L</li>
                              </ul>
                           </td>
                           <td/>
                           <td/>
                        </tr>
                        <tr>
                           <td>Diabetes self management plan</td>
                           <td>
                              <span class="nb">02-Jul-1960</span>
                           </td>
                           <td>Prediabetes</td>
                        </tr>
                        <tr>
                           <td>
                              <ul>
                                 <li>Patient will implement and maintain a diabetes self-management plan to reduce risk of progression from prediabetes.</li>
                                 <li>Patient will achieve and maintain a healthy weight as part of diabetes self-management.</li>
                                 <li>Patient will engage in at least 150 minutes of moderate-intensity physical activity per week.</li>
                              </ul>
                           </td>
                           <td/>
                           <td/>
                        </tr>
                        <tr>
                           <th>Immunization Recommendation</th>
                           <th>Due Date</th>
                           <th>Reason</th>
                        </tr>
                        <tr>
                           <td>Vaccine product containing only Influenza virus antigen (medicinal product)</td>
                           <td>
                              <span class="nb">01-Oct-2025</span>
                           </td>
                           <td>Annual seasonal influenza vaccination</td>
                        </tr>
                     </table>
                  </div>
               </text>
               <entry>
                  <reference value="urn:uuid:ddc2c776-97c6-4634-b253-3d4d9d197ee0"/>
               </entry>
               <entry>
                  <reference value="urn:uuid:5af4b0e2-98cc-4c23-8164-00585bbeaf34"/>
               </entry>
               <entry>
                  <reference value="urn:uuid:3b21d93b-54a1-432b-bfb3-99aec17c9181"/>
               </entry>
            </section>
            <section>
               <title value="Vital Signs"/>
               <code>
                  <coding>
                     <system value="http://loinc.org"/>
                     <code value="8716-3"/>
                     <display value="Vital signs note"/>
                  </coding>
               </code>
               <text>
                  <status value="generated"/>
                  <div xmlns="http://www.w3.org/1999/xhtml">
                     <table class="hl7__ips">
                        <tr>
                           <th>Vital Signs</th>
                           <th>2024-11-23</th>
                           <th>2023-11-18</th>
                        </tr>
                        <tr>
                           <td>Body Height</td>
                           <td>166.9 cm</td>
                           <td>166.9 cm</td>
                        </tr>
                        <tr>
                           <td>Pain severity - 0-10 verbal numeric rating [Score] - Reported</td>
                           <td>4 {score}</td>
                           <td>0 {score}</td>
                        </tr>
                        <tr>
                           <td>Body Weight</td>
                           <td>76.6 kg</td>
                           <td>76.6 kg</td>
                        </tr>
                        <tr>
                           <td>Body mass index (BMI) [Ratio]</td>
                           <td>27.5 kg/m2</td>
                           <td>27.5 kg/m2</td>
                        </tr>
                        <tr>
                           <td>Diastolic Blood Pressure</td>
                           <td>83 mm[Hg]</td>
                           <td>75 mm[Hg]</td>
                        </tr>
                        <tr>
                           <td>Systolic Blood Pressure</td>
                           <td>124 mm[Hg]</td>
                           <td>127 mm[Hg]</td>
                        </tr>
                        <tr>
                           <td>Heart rate</td>
                           <td>92 /min</td>
                           <td>81 /min</td>
                        </tr>
                        <tr>
                           <td>Respiratory rate</td>
                           <td>13 /min</td>
                           <td>15 /min</td>
                        </tr>
                     </table>
                  </div>
               </text>
               <entry>
                  <reference value="urn:uuid:0a15f1fe-0821-463f-a689-6a286c882718"/>
               </entry>
               <entry>
                  <reference value="urn:uuid:57949397-0280-4904-bf38-0cbfbf43ef81"/>
               </entry>
               <entry>
                  <reference value="urn:uuid:4aa62438-1871-4b3c-8704-b6be9379378c"/>
               </entry>
               <entry>
                  <reference value="urn:uuid:d925615b-6b2d-4d63-98d8-70b189300d7a"/>
               </entry>
               <entry>
                  <reference value="urn:uuid:4675870a-36d6-4197-bf7f-da4c34bc6445"/>
               </entry>
               <entry>
                  <reference value="urn:uuid:f92a86ba-e432-4b4f-8a69-ff6b20e2fb9a"/>
               </entry>
               <entry>
                  <reference value="urn:uuid:5ac1d0b0-99c1-4cf8-8988-e26b97202baa"/>
               </entry>
               <entry>
                  <reference value="urn:uuid:58031562-5132-4949-8dff-4a5fe85f9279"/>
               </entry>
               <entry>
                  <reference value="urn:uuid:75641c35-14ce-45d8-9e35-de708503a34f"/>
               </entry>
               <entry>
                  <reference value="urn:uuid:532ed21d-a3e4-44ae-a86b-2933f1e2b17b"/>
               </entry>
               <entry>
                  <reference value="urn:uuid:e9b3d19f-a942-45c2-a21c-a178e7803275"/>
               </entry>
               <entry>
                  <reference value="urn:uuid:f0a52b20-a1df-455a-9558-f47dcfe287e4"/>
               </entry>
               <entry>
                  <reference value="urn:uuid:ecedcc77-995a-44ad-b1c4-a8e965cea375"/>
               </entry>
               <entry>
                  <reference value="urn:uuid:fcffc7f6-8d29-4d24-b659-435f34a6688c"/>
               </entry>
               <entry>
                  <reference value="urn:uuid:fcf39641-0cd9-4f79-be2a-1d1b316116a7"/>
               </entry>
               <entry>
                  <reference value="urn:uuid:61623983-68af-4165-adf2-5039b900277d"/>
               </entry>
            </section>
            <section>
               <title value="Relevant diagnostic tests/laboratory data"/>
               <code>
                  <coding>
                     <system value="http://loinc.org"/>
                     <code value="30954-2"/>
                     <display value="Relevant diagnostic tests/laboratory data note"/>
                  </coding>
               </code>
               <text>
                  <status value="generated"/>
                  <div xmlns="http://www.w3.org/1999/xhtml">
                     <table class="hl7__ips">
                        <table class="hl7__ips">
                           <thead>
                              <tr>
                                 <th>Recent Lab Observations</th>
                                 <th>30-NOV-2024</th>
                                 <th>Reference Range</th>
                                 <th>Unit</th>
                              </tr>
                           </thead>
                           <tbody>
                              <tr>
                                 <td>Glucose [Mass/volume] in Blood</td>
                                 <td>86.2</td>
                                 <td>70 - 140</td>
                                 <td>mg/dL</td>
                              </tr>
                              <tr>
                                 <td>Urea nitrogen [Mass/volume] in Blood</td>
                                 <td>15.0</td>
                                 <td>7 - 25</td>
                                 <td>mg/dL</td>
                              </tr>
                              <tr>
                                 <td>Creatinine [Mass/volume] in Blood</td>
                                 <td>
                                    <strong>2.7 H</strong>
                                 </td>
                                 <td>0.6 - 1.1</td>
                                 <td>mg/dL</td>
                              </tr>
                              <tr>
                                 <td>Calcium [Mass/volume] in Blood</td>
                                 <td>8.6</td>
                                 <td>8.6 - 10.4</td>
                                 <td>mg/dL</td>
                              </tr>
                              <tr>
                                 <td>Sodium [Moles/volume] in Blood</td>
                                 <td>142.2</td>
                                 <td>135 - 145</td>
                                 <td>mmol/L</td>
                              </tr>
                              <tr>
                                 <td>Potassium [Moles/volume] in Blood</td>
                                 <td>5.0</td>
                                 <td>3.5 - 5.3</td>
                                 <td>mmol/L</td>
                              </tr>
                              <tr>
                                 <td>Chloride [Moles/volume] in Blood</td>
                                 <td>106.8</td>
                                 <td>98 - 108</td>
                                 <td>mmol/L</td>
                              </tr>
                              <tr>
                                 <td>Carbon dioxide, total [Moles/volume] in Blood</td>
                                 <td>
                                    <strong>20.6 L</strong>
                                 </td>
                                 <td>22 - 32</td>
                                 <td>mmol/L</td>
                              </tr>
                              <tr>
                                 <td>Protein [Mass/volume] in Serum or Plasma</td>
                                 <td>6.7</td>
                                 <td>6.6 - 8.3</td>
                                 <td>g/dL</td>
                              </tr>
                              <tr>
                                 <td>Albumin [Mass/volume] in Serum or Plasma</td>
                                 <td>4.0</td>
                                 <td>3.5 - 5.5</td>
                                 <td>g/dL</td>
                              </tr>
                              <tr>
                                 <td>Globulin [Mass/volume] in Serum by calculation</td>
                                 <td>2.2</td>
                                 <td>2.2 - 3.7</td>
                                 <td>g/L</td>
                              </tr>
                              <tr>
                                 <td>Bilirubin.total [Mass/volume] in Serum or Plasma</td>
                                 <td>0.3</td>
                                 <td>0.3 - 1.2</td>
                                 <td>mg/dL</td>
                              </tr>
                              <tr>
                                 <td>Alkaline phosphatase [Enzymatic activity/volume] in Serum or Plasma</td>
                                 <td>44.6</td>
                                 <td>40 - 130</td>
                                 <td>U/L</td>
                              </tr>
                              <tr>
                                 <td>Alanine aminotransferase [Enzymatic activity/volume] in Serum or Plasma</td>
                                 <td>43.4</td>
                                 <td>7 - 55</td>
                                 <td>U/L</td>
                              </tr>
                              <tr>
                                 <td>Aspartate aminotransferase [Enzymatic activity/volume] in Serum or Plasma</td>
                                 <td>15.6</td>
                                 <td>10 - 40</td>
                                 <td>U/L</td>
                              </tr>
                              <tr>
                                 <td>Cholesterol [Mass/volume] in Serum or Plasma</td>
                                 <td>
                                    <strong>204.8 H</strong>
                                 </td>
                                 <td>125 - 200</td>
                                 <td>mg/dL</td>
                              </tr>
                              <tr>
                                 <td>Triglyceride [Mass/volume] in Serum or Plasma</td>
                                 <td>151.8</td>
                                 <td>10 - 175</td>
                                 <td>mg/dL</td>
                              </tr>
                              <tr>
                                 <td>Cholesterol in LDL [Mass/volume] in Serum or Plasma by Direct assay</td>
                                 <td>100.8</td>
                                 <td>0 - 130</td>
                                 <td>mg/dL</td>
                              </tr>
                              <tr>
                                 <td>Cholesterol in HDL [Mass/volume] in Serum or Plasma</td>
                                 <td>
                                    <strong>32.2 L</strong>
                                 </td>
                                 <td>50 - 100</td>
                                 <td>mg/dL</td>
                              </tr>
                           </tbody>
                        </table>
                     </table>
                  </div>
               </text>
               <entry>
                  <reference value="urn:uuid:db4d8cdf-8e67-420f-b378-d26a0f691b49"/>
               </entry>
               <entry>
                  <reference value="urn:uuid:794e55c4-7cfc-4259-afad-4a734d5ed969"/>
               </entry>
               <entry>
                  <reference value="urn:uuid:034f21b0-9870-4797-98b6-9429b9de5178"/>
               </entry>
               <entry>
                  <reference value="urn:uuid:5b8ada2f-d57d-47a9-8951-685e7cc86fc2"/>
               </entry>
               <entry>
                  <reference value="urn:uuid:2c2a6c49-d26a-4547-9af0-d66e3f95a73b"/>
               </entry>
               <entry>
                  <reference value="urn:uuid:524c5add-0e3b-4457-b724-2b6ea2d4724d"/>
               </entry>
               <entry>
                  <reference value="urn:uuid:7bb9dc9c-c86a-453f-87e5-910874879708"/>
               </entry>
               <entry>
                  <reference value="urn:uuid:7c709279-9486-4b78-91c0-05b26e8615a7"/>
               </entry>
               <entry>
                  <reference value="urn:uuid:4119660f-2bd5-4442-ae0e-84f5e4629b24"/>
               </entry>
               <entry>
                  <reference value="urn:uuid:a0a2ba53-7382-41a7-a6da-135e4440b090"/>
               </entry>
               <entry>
                  <reference value="urn:uuid:9f523797-f94f-4500-93a0-a5e33c64045e"/>
               </entry>
               <entry>
                  <reference value="urn:uuid:8430b955-1d04-4bd0-87bc-e73d15d36c3d"/>
               </entry>
               <entry>
                  <reference value="urn:uuid:abe1082d-9520-4ef4-a660-925e554e3af0"/>
               </entry>
               <entry>
                  <reference value="urn:uuid:17711978-5960-44cc-82a1-50c91bd0ab45"/>
               </entry>
               <entry>
                  <reference value="urn:uuid:6cd2dce2-5028-4344-b263-37f67ac38400"/>
               </entry>
               <entry>
                  <reference value="urn:uuid:4da3a01d-b5d1-440a-950e-c642070e7066"/>
               </entry>
               <entry>
                  <reference value="urn:uuid:c816cd2e-3c09-41bb-a0b1-f261846d0aec"/>
               </entry>
               <entry>
                  <reference value="urn:uuid:71c5b2ee-be2b-4485-842f-78182030c621"/>
               </entry>
               <entry>
                  <reference value="urn:uuid:293db8bb-fa47-4735-92c5-0636220e4620"/>
               </entry>
            </section>
            <section>
               <title value="Device Use"/>
               <code>
                  <coding>
                     <system value="http://loinc.org"/>
                     <code value="46264-8"/>
                     <display value="History of medical device use"/>
                  </coding>
               </code>
               <text>
                  <status value="generated"/>
                  <div xmlns="http://www.w3.org/1999/xhtml">
                     <table class="hl7__ips">
                        <tr>
                           <th>Device</th>
                           <th>Date (since)</th>
                        </tr>
                        <tr>
                           <td>Home nebulizer (physical object)</td>
                           <td>
                              <span class="nb">31-May-1999</span>
                           </td>
                        </tr>
                        <tr>
                           <td>Blood glucose meter (physical object)</td>
                           <td>
                              <span class="nb">02-Jul-1960</span>
                           </td>
                        </tr>
                     </table>
                  </div>
               </text>
               <entry>
                  <reference value="urn:uuid:6340ff75-a3e1-44b3-9819-253a22b26d51"/>
               </entry>
               <entry>
                  <reference value="urn:uuid:e5033ec0-358d-46af-bd9b-00a68cc975b3"/>
               </entry>
            </section>
         </Composition>
      </resource>
   </entry>
   <entry>
      <fullUrl value="urn:uuid:356b1a6a-4cfc-485b-876d-1814cf62fb15"/>
      <resource>
         <Patient>
            <id value="356b1a6a-4cfc-485b-876d-1814cf62fb15"/>
            <meta>
               <profile value="http://hl7.eu/fhir/eps/StructureDefinition/patient-eu-eps"/>
               <security>
                  <system value="http://terminology.hl7.org/CodeSystem/v3-ActReason"/>
                  <code value="HTEST"/>
               </security>
               <security>
                  <system value="http://terminology.hl7.org/CodeSystem/v3-ActReason"/>
                  <code value="TRAIN"/>
               </security>
               <tag>
                  <system value="https://synderai.net/fhir/CodeSystem/tags"/>
                  <code value="synthetic"/>
                  <display value="SYNDERAI Synthetic data"/>
               </tag>
            </meta>
            <text>
               <status value="generated"/>
               <div xmlns="http://www.w3.org/1999/xhtml">
                  <table class="hl7__ips">
                     <tr>
                        <td>Helene Andresen</td>
                        <td>female</td>
                        <td>17-Oct-1939</td>
                     </tr>
                  </table>
               </div>
            </text>
            <extension url="http://hl7.org/fhir/StructureDefinition/patient-nationality">
               <valueCodeableConcept>
                  <coding>
                     <system value="http://hl7.org/fhir/ValueSet/country"/>
                     <code value="NO"/>
                  </coding>
               </valueCodeableConcept>
            </extension>
            <identifier>
               <type>
                  <coding>
                     <system value="http://terminology.hl7.org/CodeSystem/v2-0203"/>
                     <code value="PT"/>
                  </coding>
               </type>
               <system value="http://ec.europa.eu/identifier/eci"/>
               <value value="3450-170343-2"/>
            </identifier>
            <identifier>
               <type>
                  <coding>
                     <system value="http://terminology.hl7.org/CodeSystem/v2-0203"/>
                     <code value="MR"/>
                  </coding>
               </type>
               <system value="http://local.setting.eu/identifier"/>
               <value value="72e91c9c-0b01-42b0-a6a0-6dcc70aeec49"/>
            </identifier>
            <name>
               <family value="Andresen"/>
            </name>
            <name>
               <given value="Helene"/>
            </name>
            <name>
               <text value="Helene Andresen"/>
            </name>
            <telecom>
               <system value="phone"/>
               <value value="53 98 86 24"/>
            </telecom>
            <gender value="female"/>
            <birthDate value="1939-10-17"/>
            <address>
               <use value="home"/>
               <type value="physical"/>
               <line value="Kristiansenberget 2"/>
               <city value="Sørensen"/>
               <postalCode value="0172"/>
               <country value="Norway"/>
            </address>
         </Patient>
      </resource>
   </entry>
   <entry>
      <fullUrl value="urn:uuid:8b62a1d5-7ac0-4a61-a64b-5637d749b532"/>
      <resource>
         <PractitionerRole>
            <id value="8b62a1d5-7ac0-4a61-a64b-5637d749b532"/>
            <meta>
               <profile value="http://hl7.eu/fhir/base/StructureDefinition/practitionerRole-eu"/>
            </meta>
            <text>
               <status value="generated"/>
               <div xmlns="http://www.w3.org/1999/xhtml">
                  <table class="hl7__ips">Provider Role Id 8b62a1d5-7ac0-4a61-a64b-5637d749b532</table>
               </div>
            </text>
            <practitioner>
               <reference value="urn:uuid:f386e736-d46c-4748-a750-d55199582c72"/>
            </practitioner>
            <organization>
               <reference value="urn:uuid:704307a4-2a78-447b-b149-e6d8d4daedb2"/>
            </organization>
         </PractitionerRole>
      </resource>
   </entry>
   <entry>
      <fullUrl value="urn:uuid:f386e736-d46c-4748-a750-d55199582c72"/>
      <resource>
         <Practitioner>
            <id value="f386e736-d46c-4748-a750-d55199582c72"/>
            <meta>
               <profile value="http://hl7.eu/fhir/base/StructureDefinition/practitioner-eu"/>
            </meta>
            <text>
               <status value="generated"/>
               <div xmlns="http://www.w3.org/1999/xhtml">
                  <table class="hl7__ips">Dr. Hel Ping</table>
               </div>
            </text>
            <name>
               <family value="Ping"/>
               <given value="Hel"/>
               <prefix value="Dr."/>
            </name>
         </Practitioner>
      </resource>
   </entry>
   <entry>
      <fullUrl value="urn:uuid:704307a4-2a78-447b-b149-e6d8d4daedb2"/>
      <resource>
         <Organization>
            <id value="704307a4-2a78-447b-b149-e6d8d4daedb2"/>
            <meta>
               <profile value="http://hl7.eu/fhir/base/StructureDefinition/organization-eu"/>
            </meta>
            <text>
               <status value="generated"/>
               <div xmlns="http://www.w3.org/1999/xhtml">
                  <table class="hl7__ips">Oslo universitetssykehus (Ullevål)</table>
               </div>
            </text>
            <identifier>
               <system value="urn:oid:2.16.840.1.113883.2.51.999"/>
               <value value="0f938d14-3161-415e-af0d-eb3c6c85bc53"/>
               <assigner>
                  <display value="HL7 Europe"/>
               </assigner>
            </identifier>
            <name value="Oslo universitetssykehus (Ullevål)"/>
            <address>
               <city value="Oslo"/>
               <postalCode value="0155"/>
               <country value="Norway"/>
            </address>
         </Organization>
      </resource>
   </entry>
   <entry>
      <fullUrl value="urn:uuid:be122bac-0f74-49c1-a271-c27b12f7fba0"/>
      <resource>
         <Condition>
            <id value="be122bac-0f74-49c1-a271-c27b12f7fba0"/>
            <meta>
               <profile value="http://hl7.org/fhir/uv/ips/StructureDefinition/Condition-uv-ips"/>
            </meta>
            <text>
               <status value="generated"/>
               <div xmlns="http://www.w3.org/1999/xhtml">
                  <table class="hl7__ips">
                     <tr>
                        <td>Osteoporosis</td>
                        <td>
                           <span class="nb">21-Oct-2018</span>
                        </td>
                        <td>active</td>
                     </tr>
                  </table>
               </div>
            </text>
            <category>
               <coding>
                  <system value="http://terminology.hl7.org/CodeSystem/condition-category"/>
                  <code value="problem-list-item"/>
                  <display value="Problem List Item"/>
               </coding>
            </category>
            <code>
               <coding>
                  <system value="http://snomed.info/sct"/>
                  <code value="64859006"/>
                  <display value="Osteoporosis (disorder)"/>
               </coding>
               <text value="Osteoporosis"/>
            </code>
            <subject>
               <reference value="urn:uuid:"/>
               <display value="Helene Andresen"/>
            </subject>
            <onsetDateTime value="2018-10-21"/>
            <asserter>
               <reference value="urn:uuid:"/>
               <display value="Oslo universitetssykehus (Ullevål)"/>
            </asserter>
         </Condition>
      </resource>
   </entry>
   <entry>
      <fullUrl value="urn:uuid:7375b0ea-2772-4f94-a269-98693aa8d829"/>
      <resource>
         <Condition>
            <id value="7375b0ea-2772-4f94-a269-98693aa8d829"/>
            <meta>
               <profile value="http://hl7.org/fhir/uv/ips/StructureDefinition/Condition-uv-ips"/>
            </meta>
            <text>
               <status value="generated"/>
               <div xmlns="http://www.w3.org/1999/xhtml">
                  <table class="hl7__ips">
                     <tr>
                        <td>Chronic sinusitis</td>
                        <td>
                           <span class="nb">31-May-1999</span>
                        </td>
                        <td>active</td>
                     </tr>
                  </table>
               </div>
            </text>
            <category>
               <coding>
                  <system value="http://terminology.hl7.org/CodeSystem/condition-category"/>
                  <code value="problem-list-item"/>
                  <display value="Problem List Item"/>
               </coding>
            </category>
            <code>
               <coding>
                  <system value="http://snomed.info/sct"/>
                  <code value="40055000"/>
                  <display value="Chronic sinusitis (disorder)"/>
               </coding>
               <text value="Chronic sinusitis"/>
            </code>
            <subject>
               <reference value="urn:uuid:"/>
               <display value="Helene Andresen"/>
            </subject>
            <onsetDateTime value="1999-05-31"/>
            <asserter>
               <reference value="urn:uuid:"/>
               <display value="Oslo universitetssykehus (Ullevål)"/>
            </asserter>
         </Condition>
      </resource>
   </entry>
   <entry>
      <fullUrl value="urn:uuid:a10854fd-3915-41ab-a1e8-268fae495b4f"/>
      <resource>
         <Condition>
            <id value="a10854fd-3915-41ab-a1e8-268fae495b4f"/>
            <meta>
               <profile value="http://hl7.org/fhir/uv/ips/StructureDefinition/Condition-uv-ips"/>
            </meta>
            <text>
               <status value="generated"/>
               <div xmlns="http://www.w3.org/1999/xhtml">
                  <table class="hl7__ips">
                     <tr>
                        <td>Hyperlipidemia</td>
                        <td>
                           <span class="nb">07-May-1989</span>
                        </td>
                        <td>active</td>
                     </tr>
                  </table>
               </div>
            </text>
            <category>
               <coding>
                  <system value="http://terminology.hl7.org/CodeSystem/condition-category"/>
                  <code value="problem-list-item"/>
                  <display value="Problem List Item"/>
               </coding>
            </category>
            <code>
               <coding>
                  <system value="http://snomed.info/sct"/>
                  <code value="55822004"/>
                  <display value="Hyperlipidemia (disorder)"/>
               </coding>
               <text value="Hyperlipidemia"/>
            </code>
            <subject>
               <reference value="urn:uuid:"/>
               <display value="Helene Andresen"/>
            </subject>
            <onsetDateTime value="1989-05-07"/>
            <asserter>
               <reference value="urn:uuid:"/>
               <display value="Oslo universitetssykehus (Ullevål)"/>
            </asserter>
         </Condition>
      </resource>
   </entry>
   <entry>
      <fullUrl value="urn:uuid:62180c07-ab4a-4d0c-9601-a3097c315602"/>
      <resource>
         <Condition>
            <id value="62180c07-ab4a-4d0c-9601-a3097c315602"/>
            <meta>
               <profile value="http://hl7.org/fhir/uv/ips/StructureDefinition/Condition-uv-ips"/>
            </meta>
            <text>
               <status value="generated"/>
               <div xmlns="http://www.w3.org/1999/xhtml">
                  <table class="hl7__ips">
                     <tr>
                        <td>Anemia</td>
                        <td>
                           <span class="nb">06-Jul-1963</span>
                        </td>
                        <td>active</td>
                     </tr>
                  </table>
               </div>
            </text>
            <category>
               <coding>
                  <system value="http://terminology.hl7.org/CodeSystem/condition-category"/>
                  <code value="problem-list-item"/>
                  <display value="Problem List Item"/>
               </coding>
            </category>
            <code>
               <coding>
                  <system value="http://snomed.info/sct"/>
                  <code value="271737000"/>
                  <display value="Anemia (disorder)"/>
               </coding>
               <text value="Anemia"/>
            </code>
            <subject>
               <reference value="urn:uuid:"/>
               <display value="Helene Andresen"/>
            </subject>
            <onsetDateTime value="1963-07-06"/>
            <asserter>
               <reference value="urn:uuid:"/>
               <display value="Oslo universitetssykehus (Ullevål)"/>
            </asserter>
         </Condition>
      </resource>
   </entry>
   <entry>
      <fullUrl value="urn:uuid:5fea60f3-8ae1-4ac8-94b6-2238cfb2d10f"/>
      <resource>
         <Condition>
            <id value="5fea60f3-8ae1-4ac8-94b6-2238cfb2d10f"/>
            <meta>
               <profile value="http://hl7.org/fhir/uv/ips/StructureDefinition/Condition-uv-ips"/>
            </meta>
            <text>
               <status value="generated"/>
               <div xmlns="http://www.w3.org/1999/xhtml">
                  <table class="hl7__ips">
                     <tr>
                        <td>Prediabetes</td>
                        <td>
                           <span class="nb">02-Jul-1960</span>
                        </td>
                        <td>active</td>
                     </tr>
                  </table>
               </div>
            </text>
            <category>
               <coding>
                  <system value="http://terminology.hl7.org/CodeSystem/condition-category"/>
                  <code value="problem-list-item"/>
                  <display value="Problem List Item"/>
               </coding>
            </category>
            <code>
               <coding>
                  <system value="http://snomed.info/sct"/>
                  <code value="15777000"/>
                  <display value="Prediabetes (disorder)"/>
               </coding>
               <text value="Prediabetes"/>
            </code>
            <subject>
               <reference value="urn:uuid:"/>
               <display value="Helene Andresen"/>
            </subject>
            <onsetDateTime value="1960-07-02"/>
            <asserter>
               <reference value="urn:uuid:"/>
               <display value="Oslo universitetssykehus (Ullevål)"/>
            </asserter>
         </Condition>
      </resource>
   </entry>
   <entry>
      <fullUrl value="urn:uuid:8240bfd8-8502-4c7f-b66d-056e29caad87"/>
      <resource>
         <Condition>
            <id value="8240bfd8-8502-4c7f-b66d-056e29caad87"/>
            <meta>
               <profile value="http://hl7.org/fhir/uv/ips/StructureDefinition/Condition-uv-ips"/>
            </meta>
            <text>
               <status value="generated"/>
               <div xmlns="http://www.w3.org/1999/xhtml">
                  <table class="hl7__ips">
                     <tr>
                        <td>Seizure disorder</td>
                        <td>
                           <span class="nb">19-Apr-1953</span>
                        </td>
                        <td>active</td>
                     </tr>
                  </table>
               </div>
            </text>
            <category>
               <coding>
                  <system value="http://terminology.hl7.org/CodeSystem/condition-category"/>
                  <code value="problem-list-item"/>
                  <display value="Problem List Item"/>
               </coding>
            </category>
            <code>
               <coding>
                  <system value="http://snomed.info/sct"/>
                  <code value="128613002"/>
                  <display value="Seizure disorder (disorder)"/>
               </coding>
               <text value="Seizure disorder"/>
            </code>
            <subject>
               <reference value="urn:uuid:"/>
               <display value="Helene Andresen"/>
            </subject>
            <onsetDateTime value="1953-04-19"/>
            <asserter>
               <reference value="urn:uuid:"/>
               <display value="Oslo universitetssykehus (Ullevål)"/>
            </asserter>
         </Condition>
      </resource>
   </entry>
   <entry>
      <fullUrl value="urn:uuid:613e80f5-8475-40a4-9d60-04825ab6254e"/>
      <resource>
         <Condition>
            <id value="613e80f5-8475-40a4-9d60-04825ab6254e"/>
            <meta>
               <profile value="http://hl7.org/fhir/uv/ips/StructureDefinition/Condition-uv-ips"/>
            </meta>
            <text>
               <status value="generated"/>
               <div xmlns="http://www.w3.org/1999/xhtml">
                  <table class="hl7__ips">
                     <tr>
                        <td>
                           <span class="grayedout">Laceration of hand</span>
                        </td>
                        <td>
                           <span class="nb">30-Jun-2023 - 14-Jul-2023</span>
                        </td>
                        <td>
                           <span class="grayedout">inactive</span>
                        </td>
                     </tr>
                  </table>
               </div>
            </text>
            <category>
               <coding>
                  <system value="http://terminology.hl7.org/CodeSystem/condition-category"/>
                  <code value="problem-list-item"/>
                  <display value="Problem List Item"/>
               </coding>
            </category>
            <code>
               <coding>
                  <system value="http://snomed.info/sct"/>
                  <code value="284549007"/>
                  <display value="Laceration of hand (disorder)"/>
               </coding>
               <text value="Laceration of hand"/>
            </code>
            <subject>
               <reference value="urn:uuid:"/>
               <display value="Helene Andresen"/>
            </subject>
            <onsetDateTime value="2023-06-30"/>
            <abatementDateTime value="2023-07-14"/>
            <asserter>
               <reference value="urn:uuid:"/>
               <display value="Oslo universitetssykehus (Ullevål)"/>
            </asserter>
         </Condition>
      </resource>
   </entry>
   <entry>
      <fullUrl value="urn:uuid:702265e3-bf84-473e-a42b-87fc80ef07cb"/>
      <resource>
         <Condition>
            <id value="702265e3-bf84-473e-a42b-87fc80ef07cb"/>
            <meta>
               <profile value="http://hl7.org/fhir/uv/ips/StructureDefinition/Condition-uv-ips"/>
            </meta>
            <text>
               <status value="generated"/>
               <div xmlns="http://www.w3.org/1999/xhtml">
                  <table class="hl7__ips">
                     <tr>
                        <td>
                           <span class="grayedout">Laceration - injury</span>
                        </td>
                        <td>
                           <span class="nb">30-Jun-2023 - 14-Jul-2023</span>
                        </td>
                        <td>
                           <span class="grayedout">inactive</span>
                        </td>
                     </tr>
                  </table>
               </div>
            </text>
            <category>
               <coding>
                  <system value="http://terminology.hl7.org/CodeSystem/condition-category"/>
                  <code value="problem-list-item"/>
                  <display value="Problem List Item"/>
               </coding>
            </category>
            <code>
               <coding>
                  <system value="http://snomed.info/sct"/>
                  <code value="312608009"/>
                  <display value="Laceration - injury (disorder)"/>
               </coding>
               <text value="Laceration - injury"/>
            </code>
            <subject>
               <reference value="urn:uuid:"/>
               <display value="Helene Andresen"/>
            </subject>
            <onsetDateTime value="2023-06-30"/>
            <abatementDateTime value="2023-07-14"/>
            <asserter>
               <reference value="urn:uuid:"/>
               <display value="Oslo universitetssykehus (Ullevål)"/>
            </asserter>
         </Condition>
      </resource>
   </entry>
   <entry>
      <fullUrl value="urn:uuid:7cbf046b-5f73-4f32-b445-4f6de2a3d2d6"/>
      <resource>
         <Condition>
            <id value="7cbf046b-5f73-4f32-b445-4f6de2a3d2d6"/>
            <meta>
               <profile value="http://hl7.org/fhir/uv/ips/StructureDefinition/Condition-uv-ips"/>
            </meta>
            <text>
               <status value="generated"/>
               <div xmlns="http://www.w3.org/1999/xhtml">
                  <table class="hl7__ips">
                     <tr>
                        <td>
                           <span class="grayedout">Fracture of forearm</span>
                        </td>
                        <td>
                           <span class="nb">01-May-2021 - 06-Aug-2021</span>
                        </td>
                        <td>
                           <span class="grayedout">inactive</span>
                        </td>
                     </tr>
                  </table>
               </div>
            </text>
            <category>
               <coding>
                  <system value="http://terminology.hl7.org/CodeSystem/condition-category"/>
                  <code value="problem-list-item"/>
                  <display value="Problem List Item"/>
               </coding>
            </category>
            <code>
               <coding>
                  <system value="http://snomed.info/sct"/>
                  <code value="65966004"/>
                  <display value="Fracture of forearm (disorder)"/>
               </coding>
               <text value="Fracture of forearm"/>
            </code>
            <subject>
               <reference value="urn:uuid:"/>
               <display value="Helene Andresen"/>
            </subject>
            <onsetDateTime value="2021-05-01"/>
            <abatementDateTime value="2021-08-06"/>
            <asserter>
               <reference value="urn:uuid:"/>
               <display value="Oslo universitetssykehus (Ullevål)"/>
            </asserter>
         </Condition>
      </resource>
   </entry>
   <entry>
      <fullUrl value="urn:uuid:98250319-786e-414d-a66b-089bf1579d69"/>
      <resource>
         <Condition>
            <id value="98250319-786e-414d-a66b-089bf1579d69"/>
            <meta>
               <profile value="http://hl7.org/fhir/uv/ips/StructureDefinition/Condition-uv-ips"/>
            </meta>
            <text>
               <status value="generated"/>
               <div xmlns="http://www.w3.org/1999/xhtml">
                  <table class="hl7__ips">
                     <tr>
                        <td>
                           <span class="grayedout">Fracture of bone</span>
                        </td>
                        <td>
                           <span class="nb">01-May-2021 - 06-Aug-2021</span>
                        </td>
                        <td>
                           <span class="grayedout">inactive</span>
                        </td>
                     </tr>
                  </table>
               </div>
            </text>
            <category>
               <coding>
                  <system value="http://terminology.hl7.org/CodeSystem/condition-category"/>
                  <code value="problem-list-item"/>
                  <display value="Problem List Item"/>
               </coding>
            </category>
            <code>
               <coding>
                  <system value="http://snomed.info/sct"/>
                  <code value="125605004"/>
                  <display value="Fracture of bone (disorder)"/>
               </coding>
               <text value="Fracture of bone"/>
            </code>
            <subject>
               <reference value="urn:uuid:"/>
               <display value="Helene Andresen"/>
            </subject>
            <onsetDateTime value="2021-05-01"/>
            <abatementDateTime value="2021-08-06"/>
            <asserter>
               <reference value="urn:uuid:"/>
               <display value="Oslo universitetssykehus (Ullevål)"/>
            </asserter>
         </Condition>
      </resource>
   </entry>
   <entry>
      <fullUrl value="urn:uuid:b1b43911-e40c-4d91-970d-6f3f1f6d7b81"/>
      <resource>
         <Condition>
            <id value="b1b43911-e40c-4d91-970d-6f3f1f6d7b81"/>
            <meta>
               <profile value="http://hl7.org/fhir/uv/ips/StructureDefinition/Condition-uv-ips"/>
            </meta>
            <text>
               <status value="generated"/>
               <div xmlns="http://www.w3.org/1999/xhtml">
                  <table class="hl7__ips">
                     <tr>
                        <td>
                           <span class="grayedout">Osteoporotic fracture</span>
                        </td>
                        <td>
                           <span class="nb">01-May-2021 - 06-Aug-2021</span>
                        </td>
                        <td>
                           <span class="grayedout">inactive</span>
                        </td>
                     </tr>
                  </table>
               </div>
            </text>
            <category>
               <coding>
                  <system value="http://terminology.hl7.org/CodeSystem/condition-category"/>
                  <code value="problem-list-item"/>
                  <display value="Problem List Item"/>
               </coding>
            </category>
            <code>
               <coding>
                  <system value="http://snomed.info/sct"/>
                  <code value="443165006"/>
                  <display value="Osteoporotic fracture of bone (disorder)"/>
               </coding>
               <text value="Osteoporotic fracture"/>
            </code>
            <subject>
               <reference value="urn:uuid:"/>
               <display value="Helene Andresen"/>
            </subject>
            <onsetDateTime value="2021-05-01"/>
            <abatementDateTime value="2021-08-06"/>
            <asserter>
               <reference value="urn:uuid:"/>
               <display value="Oslo universitetssykehus (Ullevål)"/>
            </asserter>
         </Condition>
      </resource>
   </entry>
   <entry>
      <fullUrl value="urn:uuid:c8bd4ef5-a9b2-45b2-95e0-6b7f31750e98"/>
      <resource>
         <Condition>
            <id value="c8bd4ef5-a9b2-45b2-95e0-6b7f31750e98"/>
            <meta>
               <profile value="http://hl7.org/fhir/uv/ips/StructureDefinition/Condition-uv-ips"/>
            </meta>
            <text>
               <status value="generated"/>
               <div xmlns="http://www.w3.org/1999/xhtml">
                  <table class="hl7__ips">
                     <tr>
                        <td>
                           <span class="grayedout">Fracture of bone</span>
                        </td>
                        <td>
                           <span class="nb">16-Feb-2020 - 28-Jun-2020</span>
                        </td>
                        <td>
                           <span class="grayedout">inactive</span>
                        </td>
                     </tr>
                  </table>
               </div>
            </text>
            <category>
               <coding>
                  <system value="http://terminology.hl7.org/CodeSystem/condition-category"/>
                  <code value="problem-list-item"/>
                  <display value="Problem List Item"/>
               </coding>
            </category>
            <code>
               <coding>
                  <system value="http://snomed.info/sct"/>
                  <code value="125605004"/>
                  <display value="Fracture of bone (disorder)"/>
               </coding>
               <text value="Fracture of bone"/>
            </code>
            <subject>
               <reference value="urn:uuid:"/>
               <display value="Helene Andresen"/>
            </subject>
            <onsetDateTime value="2020-02-16"/>
            <abatementDateTime value="2020-06-28"/>
            <asserter>
               <reference value="urn:uuid:"/>
               <display value="Oslo universitetssykehus (Ullevål)"/>
            </asserter>
         </Condition>
      </resource>
   </entry>
   <entry>
      <fullUrl value="urn:uuid:2771ac99-493c-4e2b-b441-6f6dba58df4e"/>
      <resource>
         <Condition>
            <id value="2771ac99-493c-4e2b-b441-6f6dba58df4e"/>
            <meta>
               <profile value="http://hl7.org/fhir/uv/ips/StructureDefinition/Condition-uv-ips"/>
            </meta>
            <text>
               <status value="generated"/>
               <div xmlns="http://www.w3.org/1999/xhtml">
                  <table class="hl7__ips">
                     <tr>
                        <td>
                           <span class="grayedout">Fracture subluxation of wrist</span>
                        </td>
                        <td>
                           <span class="nb">16-Feb-2020 - 28-Jun-2020</span>
                        </td>
                        <td>
                           <span class="grayedout">inactive</span>
                        </td>
                     </tr>
                  </table>
               </div>
            </text>
            <category>
               <coding>
                  <system value="http://terminology.hl7.org/CodeSystem/condition-category"/>
                  <code value="problem-list-item"/>
                  <display value="Problem List Item"/>
               </coding>
            </category>
            <code>
               <coding>
                  <system value="http://snomed.info/sct"/>
                  <code value="263102004"/>
                  <display value="Fracture subluxation of wrist (disorder)"/>
               </coding>
               <text value="Fracture subluxation of wrist"/>
            </code>
            <subject>
               <reference value="urn:uuid:"/>
               <display value="Helene Andresen"/>
            </subject>
            <onsetDateTime value="2020-02-16"/>
            <abatementDateTime value="2020-06-28"/>
            <asserter>
               <reference value="urn:uuid:"/>
               <display value="Oslo universitetssykehus (Ullevål)"/>
            </asserter>
         </Condition>
      </resource>
   </entry>
   <entry>
      <fullUrl value="urn:uuid:3be0c217-a448-4cae-b0a8-63208b5ad58c"/>
      <resource>
         <Condition>
            <id value="3be0c217-a448-4cae-b0a8-63208b5ad58c"/>
            <meta>
               <profile value="http://hl7.org/fhir/uv/ips/StructureDefinition/Condition-uv-ips"/>
            </meta>
            <text>
               <status value="generated"/>
               <div xmlns="http://www.w3.org/1999/xhtml">
                  <table class="hl7__ips">
                     <tr>
                        <td>
                           <span class="grayedout">Osteoporotic fracture</span>
                        </td>
                        <td>
                           <span class="nb">16-Feb-2020 - 28-Jun-2020</span>
                        </td>
                        <td>
                           <span class="grayedout">inactive</span>
                        </td>
                     </tr>
                  </table>
               </div>
            </text>
            <category>
               <coding>
                  <system value="http://terminology.hl7.org/CodeSystem/condition-category"/>
                  <code value="problem-list-item"/>
                  <display value="Problem List Item"/>
               </coding>
            </category>
            <code>
               <coding>
                  <system value="http://snomed.info/sct"/>
                  <code value="443165006"/>
                  <display value="Osteoporotic fracture of bone (disorder)"/>
               </coding>
               <text value="Osteoporotic fracture"/>
            </code>
            <subject>
               <reference value="urn:uuid:"/>
               <display value="Helene Andresen"/>
            </subject>
            <onsetDateTime value="2020-02-16"/>
            <abatementDateTime value="2020-06-28"/>
            <asserter>
               <reference value="urn:uuid:"/>
               <display value="Oslo universitetssykehus (Ullevål)"/>
            </asserter>
         </Condition>
      </resource>
   </entry>
   <entry>
      <fullUrl value="urn:uuid:d86dd4c8-8f0e-431d-a86e-af09b3cdfa9c"/>
      <resource>
         <Condition>
            <id value="d86dd4c8-8f0e-431d-a86e-af09b3cdfa9c"/>
            <meta>
               <profile value="http://hl7.org/fhir/uv/ips/StructureDefinition/Condition-uv-ips"/>
            </meta>
            <text>
               <status value="generated"/>
               <div xmlns="http://www.w3.org/1999/xhtml">
                  <table class="hl7__ips">
                     <tr>
                        <td>
                           <span class="grayedout">Viral sinusitis</span>
                        </td>
                        <td>
                           <span class="nb">10-Jul-2016 - 23-Jul-2016</span>
                        </td>
                        <td>
                           <span class="grayedout">inactive</span>
                        </td>
                     </tr>
                  </table>
               </div>
            </text>
            <category>
               <coding>
                  <system value="http://terminology.hl7.org/CodeSystem/condition-category"/>
                  <code value="problem-list-item"/>
                  <display value="Problem List Item"/>
               </coding>
            </category>
            <code>
               <coding>
                  <system value="http://snomed.info/sct"/>
                  <code value="444814009"/>
                  <display value="Viral sinusitis (disorder)"/>
               </coding>
               <text value="Viral sinusitis"/>
            </code>
            <subject>
               <reference value="urn:uuid:"/>
               <display value="Helene Andresen"/>
            </subject>
            <onsetDateTime value="2016-07-10"/>
            <abatementDateTime value="2016-07-23"/>
            <asserter>
               <reference value="urn:uuid:"/>
               <display value="Oslo universitetssykehus (Ullevål)"/>
            </asserter>
         </Condition>
      </resource>
   </entry>
   <entry>
      <fullUrl value="urn:uuid:3a065180-53f0-4f85-9b71-c4d6d52f9bcc"/>
      <resource>
         <Medication>
            <id value="3a065180-53f0-4f85-9b71-c4d6d52f9bcc"/>
            <meta>
               <profile value="http://hl7.eu/fhir/eps/StructureDefinition/Medication-eu-eps"/>
            </meta>
            <text>
               <status value="generated"/>
               <div xmlns="http://www.w3.org/1999/xhtml">Simvastatin 10 mg oral tablet</div>
            </text>
            <code>
               <coding>
                  <system value="http://snomed.info/sct"/>
                  <code value="319996000"/>
                  <display value="Simvastatin 10 mg oral tablet"/>
               </coding>
               <text value="Simvastatin 10 mg oral tablet"/>
            </code>
         </Medication>
      </resource>
   </entry>
   <entry>
      <fullUrl value="urn:uuid:2e2ca888-29a1-41cd-930c-c24dd074e0f6"/>
      <resource>
         <MedicationStatement>
            <id value="2e2ca888-29a1-41cd-930c-c24dd074e0f6"/>
            <meta>
               <profile value="http://hl7.eu/fhir/eps/StructureDefinition/MedicationStatement-eu-eps"/>
            </meta>
            <text>
               <status value="generated"/>
               <div xmlns="http://www.w3.org/1999/xhtml">
                  <table class="hl7__ips first25">
                     <tr>
                        <th>Medication</th>
                        <th>Since</th>
                        <th>Form</th>
                        <th>Dosage</th>
                        <th>Reason</th>
                     </tr>
                     <tr>
                        <td>Simvastatin 10 mg oral tablet</td>
                        <td>
                           <span class="nb">2024-11-30</span>
                        </td>
                        <td>-</td>
                        <td>1 tablet (10 mg) by mouth once daily</td>
                        <td>Hyperlipidemia</td>
                     </tr>
                  </table>
               </div>
            </text>
            <status value="active"/>
            <medicationReference>
               <reference value="urn:uuid:3a065180-53f0-4f85-9b71-c4d6d52f9bcc"/>
               <display value="Simvastatin 10 mg oral tablet"/>
            </medicationReference>
            <subject>
               <reference value="urn:uuid:356b1a6a-4cfc-485b-876d-1814cf62fb15"/>
               <display value="Helene Andresen"/>
            </subject>
            <effectivePeriod>
               <start value="2024-11-30"/>
            </effectivePeriod>
            <reasonCode>
               <coding>
                  <system value="http://snomed.info/sct"/>
                  <code value="55822004"/>
                  <display value="Hyperlipidemia"/>
               </coding>
            </reasonCode>
            <dosage>
               <text value="1 tablet (10 mg) by mouth once daily"/>
               <timing>
                  <repeat>
                     <frequency value="1"/>
                     <period value="1"/>
                     <periodUnit value="d"/>
                  </repeat>
               </timing>
               <asNeededBoolean value="false"/>
               <doseAndRate>
                  <doseQuantity>
                     <value value="1"/>
                     <unit value="{tbl}"/>
                     <code value="{tbl}"/>
                  </doseQuantity>
               </doseAndRate>
            </dosage>
         </MedicationStatement>
      </resource>
   </entry>
   <entry>
      <fullUrl value="urn:uuid:ddcb13b5-0534-458a-b2bf-375f85c6da9e"/>
      <resource>
         <Medication>
            <id value="ddcb13b5-0534-458a-b2bf-375f85c6da9e"/>
            <meta>
               <profile value="http://hl7.eu/fhir/eps/StructureDefinition/Medication-eu-eps"/>
            </meta>
            <text>
               <status value="generated"/>
               <div xmlns="http://www.w3.org/1999/xhtml">Alendronic acid (as alendronate sodium) 10 mg oral tablet</div>
            </text>
            <code>
               <coding>
                  <system value="http://snomed.info/sct"/>
                  <code value="783144007"/>
                  <display value="Alendronic acid (as alendronate sodium) 10 mg oral tablet"/>
               </coding>
               <text value="Alendronic acid (as alendronate sodium) 10 mg oral tablet"/>
            </code>
         </Medication>
      </resource>
   </entry>
   <entry>
      <fullUrl value="urn:uuid:d538f4cc-1846-41dc-83a2-0d7a9bfa1b5f"/>
      <resource>
         <MedicationStatement>
            <id value="d538f4cc-1846-41dc-83a2-0d7a9bfa1b5f"/>
            <meta>
               <profile value="http://hl7.eu/fhir/eps/StructureDefinition/MedicationStatement-eu-eps"/>
            </meta>
            <text>
               <status value="generated"/>
               <div xmlns="http://www.w3.org/1999/xhtml">
                  <table class="hl7__ips first25">
                     <tr>
                        <th>Medication</th>
                        <th>Since</th>
                        <th>Form</th>
                        <th>Dosage</th>
                        <th>Reason</th>
                     </tr>
                     <tr>
                        <td>Alendronic acid (as alendronate sodium) 10 mg oral tablet</td>
                        <td>
                           <span class="nb">2024-11-23</span>
                        </td>
                        <td>-</td>
                        <td>1 tablet (10 mg) once daily</td>
                        <td>Osteoporosis (disorder)</td>
                     </tr>
                  </table>
               </div>
            </text>
            <status value="active"/>
            <medicationReference>
               <reference value="urn:uuid:ddcb13b5-0534-458a-b2bf-375f85c6da9e"/>
               <display value="Alendronic acid (as alendronate sodium) 10 mg oral tablet"/>
            </medicationReference>
            <subject>
               <reference value="urn:uuid:356b1a6a-4cfc-485b-876d-1814cf62fb15"/>
               <display value="Helene Andresen"/>
            </subject>
            <effectivePeriod>
               <start value="2024-11-23"/>
            </effectivePeriod>
            <reasonCode>
               <coding>
                  <system value="http://snomed.info/sct"/>
                  <code value="64859006"/>
                  <display value="Osteoporosis (disorder)"/>
               </coding>
            </reasonCode>
            <dosage>
               <text value="1 tablet (10 mg) once daily"/>
               <timing>
                  <repeat>
                     <frequency value="1"/>
                     <period value="1"/>
                     <periodUnit value="d"/>
                  </repeat>
               </timing>
               <asNeededBoolean value="false"/>
               <doseAndRate>
                  <doseQuantity>
                     <value value="1"/>
                     <unit value="{tbl}"/>
                     <code value="{tbl}"/>
                  </doseQuantity>
               </doseAndRate>
            </dosage>
         </MedicationStatement>
      </resource>
   </entry>
   <entry>
      <fullUrl value="urn:uuid:b1b9aa59-702e-493a-be68-42760514b26e"/>
      <resource>
         <Immunization>
            <id value="b1b9aa59-702e-493a-be68-42760514b26e"/>
            <meta>
               <profile value="http://hl7.org/fhir/uv/ips/StructureDefinition/Immunization-uv-ips"/>
            </meta>
            <text>
               <status value="generated"/>
               <div xmlns="http://www.w3.org/1999/xhtml">
                  <table class="hl7__ips">
                     <tr>
                        <td>Influenza virus antigen only vaccine product</td>
                        <td>
                           <span class="nb">23-Nov-2024</span>
                        </td>
                     </tr>
                  </table>
               </div>
            </text>
            <status value="completed"/>
            <vaccineCode>
               <coding>
                  <system value="http://snomed.info/sct"/>
                  <code value="1181000221105"/>
                  <display value="Vaccine product containing Influenza virus antigen"/>
               </coding>
               <coding>
                  <system value="http://www.whocc.no/atc"/>
                  <code value="J07BB02"/>
                  <display value="Influenza, inactivated, split virus"/>
               </coding>
               <text value="Influenza virus antigen only vaccine product"/>
            </vaccineCode>
            <patient>
               <reference value="urn:uuid:356b1a6a-4cfc-485b-876d-1814cf62fb15"/>
               <display value="Helene Andresen"/>
            </patient>
            <occurrenceDateTime value="2024-11-23"/>
            <lotNumber value="ZC-8deG"/>
            <expirationDate value="2025-06-12"/>
            <site>
               <coding>
                  <system value="http://snomed.info/sct"/>
                  <code value="244979005"/>
                  <display value="Entire muscle of upper arm"/>
               </coding>
               <text value="Entire muscle of upper arm"/>
            </site>
            <route>
               <coding>
                  <system value="http://snomed.info/sct"/>
                  <code value="78421000"/>
                  <display value="Intramuscular route"/>
               </coding>
               <text value="Intramuscular route"/>
            </route>
         </Immunization>
      </resource>
   </entry>
   <entry>
      <fullUrl value="urn:uuid:5bed6127-0df9-4d34-842f-6ca61f76c84c"/>
      <resource>
         <Immunization>
            <id value="5bed6127-0df9-4d34-842f-6ca61f76c84c"/>
            <meta>
               <profile value="http://hl7.org/fhir/uv/ips/StructureDefinition/Immunization-uv-ips"/>
            </meta>
            <text>
               <status value="generated"/>
               <div xmlns="http://www.w3.org/1999/xhtml">
                  <table class="hl7__ips">
                     <tr>
                        <td>SARS-CoV-2 mRNA vaccine</td>
                        <td>
                           <span class="nb">05-Jun-2021</span>
                        </td>
                     </tr>
                  </table>
               </div>
            </text>
            <status value="completed"/>
            <vaccineCode>
               <coding>
                  <system value="http://snomed.info/sct"/>
                  <code value="1119349007"/>
                  <display value="Vaccine product containing SARS-CoV-2 mRNA"/>
               </coding>
               <coding>
                  <system value="http://www.whocc.no/atc"/>
                  <code value="J07BX03"/>
                  <display value="COVID-19 mRNA vaccines"/>
               </coding>
               <text value="SARS-CoV-2 mRNA vaccine"/>
            </vaccineCode>
            <patient>
               <reference value="urn:uuid:356b1a6a-4cfc-485b-876d-1814cf62fb15"/>
               <display value="Helene Andresen"/>
            </patient>
            <occurrenceDateTime value="2021-06-05"/>
            <lotNumber value="OE-Kq0WhJ"/>
            <expirationDate value="2021-11-22"/>
            <site>
               <coding>
                  <system value="http://snomed.info/sct"/>
                  <code value="244979005"/>
                  <display value="Entire muscle of upper arm"/>
               </coding>
               <text value="Entire muscle of upper arm"/>
            </site>
            <route>
               <coding>
                  <system value="http://snomed.info/sct"/>
                  <code value="78421000"/>
                  <display value="Intramuscular route"/>
               </coding>
               <text value="Intramuscular route"/>
            </route>
         </Immunization>
      </resource>
   </entry>
   <entry>
      <fullUrl value="urn:uuid:ba7ad52f-87a0-47b2-9b8e-39d6550a140e"/>
      <resource>
         <Immunization>
            <id value="ba7ad52f-87a0-47b2-9b8e-39d6550a140e"/>
            <meta>
               <profile value="http://hl7.org/fhir/uv/ips/StructureDefinition/Immunization-uv-ips"/>
            </meta>
            <text>
               <status value="generated"/>
               <div xmlns="http://www.w3.org/1999/xhtml">
                  <table class="hl7__ips">
                     <tr>
                        <td>Clostridium tetani toxoid antigen adsorbed only vaccine product</td>
                        <td>
                           <span class="nb">26-Oct-2019</span>
                        </td>
                     </tr>
                  </table>
               </div>
            </text>
            <status value="completed"/>
            <vaccineCode>
               <coding>
                  <system value="http://snomed.info/sct"/>
                  <code value="777725002"/>
                  <display value="Vaccine product containing only Clostridium tetani toxoid antigen adsorbed"/>
               </coding>
               <coding>
                  <system value="http://www.whocc.no/atc"/>
                  <code value="J07AM51"/>
                  <display value="Diphtheria-tetanus vaccines, adult type"/>
               </coding>
               <text value="Clostridium tetani toxoid antigen adsorbed only vaccine product"/>
            </vaccineCode>
            <patient>
               <reference value="urn:uuid:356b1a6a-4cfc-485b-876d-1814cf62fb15"/>
               <display value="Helene Andresen"/>
            </patient>
            <occurrenceDateTime value="2019-10-26"/>
            <lotNumber value="MA-NaXCTm"/>
            <expirationDate value="2020-09-04"/>
            <site>
               <coding>
                  <system value="http://snomed.info/sct"/>
                  <code value="244979005"/>
                  <display value="Entire muscle of upper arm"/>
               </coding>
               <text value="Entire muscle of upper arm"/>
            </site>
            <route>
               <coding>
                  <system value="http://snomed.info/sct"/>
                  <code value="78421000"/>
                  <display value="Intramuscular route"/>
               </coding>
               <text value="Intramuscular route"/>
            </route>
         </Immunization>
      </resource>
   </entry>
   <entry>
      <fullUrl value="urn:uuid:59d4eec1-b40b-4c26-b888-f1b894f9779c"/>
      <resource>
         <Procedure>
            <id value="59d4eec1-b40b-4c26-b888-f1b894f9779c"/>
            <meta>
               <profile value="http://hl7.org/fhir/uv/ips/StructureDefinition/Procedure-uv-ips"/>
            </meta>
            <text>
               <status value="generated"/>
               <div xmlns="http://www.w3.org/1999/xhtml">
                  <table class="hl7__ips">
                     <tr>
                        <td>Suture open wound</td>
                        <td>
                           <span class="nb">30-Jun-2023</span>
                        </td>
                        <td>Laceration of hand</td>
                     </tr>
                  </table>
               </div>
            </text>
            <status value="completed"/>
            <code>
               <coding>
                  <system value="http://snomed.info/sct"/>
                  <code value="288086009"/>
                  <display value="Suture open wound"/>
               </coding>
               <text value="Suture open wound"/>
            </code>
            <subject>
               <reference value="urn:uuid:"/>
               <display value="Helene Andresen"/>
            </subject>
            <performedDateTime value="2023-06-30"/>
            <reasonCode>
               <coding>
                  <system value="http://snomed.info/sct"/>
                  <code value="284549007"/>
                  <display value="Laceration of hand"/>
               </coding>
            </reasonCode>
         </Procedure>
      </resource>
   </entry>
   <entry>
      <fullUrl value="urn:uuid:13d62578-1bba-4996-bf67-531e36f1cda3"/>
      <resource>
         <Procedure>
            <id value="13d62578-1bba-4996-bf67-531e36f1cda3"/>
            <meta>
               <profile value="http://hl7.org/fhir/uv/ips/StructureDefinition/Procedure-uv-ips"/>
            </meta>
            <text>
               <status value="generated"/>
               <div xmlns="http://www.w3.org/1999/xhtml">
                  <table class="hl7__ips">
                     <tr>
                        <td>Pre-discharge assessment</td>
                        <td>
                           <span class="nb">09-May-2021</span>
                        </td>
                        <td>-</td>
                     </tr>
                  </table>
               </div>
            </text>
            <status value="completed"/>
            <code>
               <coding>
                  <system value="http://snomed.info/sct"/>
                  <code value="225386006"/>
                  <display value="Pre-discharge assessment (procedure)"/>
               </coding>
               <text value="Pre-discharge assessment"/>
            </code>
            <subject>
               <reference value="urn:uuid:"/>
               <display value="Helene Andresen"/>
            </subject>
            <performedDateTime value="2021-05-09"/>
         </Procedure>
      </resource>
   </entry>
   <entry>
      <fullUrl value="urn:uuid:10f1bc48-d9ce-4844-87b3-7d2408991616"/>
      <resource>
         <Procedure>
            <id value="10f1bc48-d9ce-4844-87b3-7d2408991616"/>
            <meta>
               <profile value="http://hl7.org/fhir/uv/ips/StructureDefinition/Procedure-uv-ips"/>
            </meta>
            <text>
               <status value="generated"/>
               <div xmlns="http://www.w3.org/1999/xhtml">
                  <table class="hl7__ips">
                     <tr>
                        <td>Discharge from skilled nursing facility (procedure)</td>
                        <td>
                           <span class="nb">09-May-2021</span>
                        </td>
                        <td>-</td>
                     </tr>
                  </table>
               </div>
            </text>
            <status value="completed"/>
            <code>
               <coding>
                  <system value="http://snomed.info/sct"/>
                  <code value="449381000124108"/>
                  <display value="Discharge from skilled nursing facility (procedure)"/>
               </coding>
            </code>
            <subject>
               <reference value="urn:uuid:"/>
               <display value="Helene Andresen"/>
            </subject>
            <performedDateTime value="2021-05-09"/>
         </Procedure>
      </resource>
   </entry>
   <entry>
      <fullUrl value="urn:uuid:6459f50d-b7f8-4254-868d-b388d973e6ff"/>
      <resource>
         <Procedure>
            <id value="6459f50d-b7f8-4254-868d-b388d973e6ff"/>
            <meta>
               <profile value="http://hl7.org/fhir/uv/ips/StructureDefinition/Procedure-uv-ips"/>
            </meta>
            <text>
               <status value="generated"/>
               <div xmlns="http://www.w3.org/1999/xhtml">
                  <table class="hl7__ips">
                     <tr>
                        <td>Nursing care/supplementary surveillance</td>
                        <td>
                           <span class="nb">08-May-2021</span>
                        </td>
                        <td>-</td>
                     </tr>
                  </table>
               </div>
            </text>
            <status value="completed"/>
            <code>
               <coding>
                  <system value="http://snomed.info/sct"/>
                  <code value="410401003"/>
                  <display value="Nursing care/supplementary surveillance (regime/therapy)"/>
               </coding>
               <text value="Nursing care/supplementary surveillance"/>
            </code>
            <subject>
               <reference value="urn:uuid:"/>
               <display value="Helene Andresen"/>
            </subject>
            <performedDateTime value="2021-05-08"/>
         </Procedure>
      </resource>
   </entry>
   <entry>
      <fullUrl value="urn:uuid:5ee90d57-7b43-4e56-8791-7233d55e96c0"/>
      <resource>
         <Procedure>
            <id value="5ee90d57-7b43-4e56-8791-7233d55e96c0"/>
            <meta>
               <profile value="http://hl7.org/fhir/uv/ips/StructureDefinition/Procedure-uv-ips"/>
            </meta>
            <text>
               <status value="generated"/>
               <div xmlns="http://www.w3.org/1999/xhtml">
                  <table class="hl7__ips">
                     <tr>
                        <td>Physical therapy procedure</td>
                        <td>
                           <span class="nb">06-May-2021</span>
                        </td>
                        <td>-</td>
                     </tr>
                  </table>
               </div>
            </text>
            <status value="completed"/>
            <code>
               <coding>
                  <system value="http://snomed.info/sct"/>
                  <code value="91251008"/>
                  <display value="Physical therapy procedure (regime/therapy)"/>
               </coding>
               <text value="Physical therapy procedure"/>
            </code>
            <subject>
               <reference value="urn:uuid:"/>
               <display value="Helene Andresen"/>
            </subject>
            <performedDateTime value="2021-05-06"/>
         </Procedure>
      </resource>
   </entry>
   <entry>
      <fullUrl value="urn:uuid:a8abb798-c89d-4d84-a021-92d56ea01685"/>
      <resource>
         <Procedure>
            <id value="a8abb798-c89d-4d84-a021-92d56ea01685"/>
            <meta>
               <profile value="http://hl7.org/fhir/uv/ips/StructureDefinition/Procedure-uv-ips"/>
            </meta>
            <text>
               <status value="generated"/>
               <div xmlns="http://www.w3.org/1999/xhtml">
                  <table class="hl7__ips">
                     <tr>
                        <td>Radiography of humerus</td>
                        <td>
                           <span class="nb">01-May-2021</span>
                        </td>
                        <td>-</td>
                     </tr>
                  </table>
               </div>
            </text>
            <status value="completed"/>
            <code>
               <coding>
                  <system value="http://snomed.info/sct"/>
                  <code value="1225002"/>
                  <display value="Upper arm X-ray"/>
               </coding>
               <text value="Radiography of humerus"/>
            </code>
            <subject>
               <reference value="urn:uuid:"/>
               <display value="Helene Andresen"/>
            </subject>
            <performedDateTime value="2021-05-01"/>
         </Procedure>
      </resource>
   </entry>
   <entry>
      <fullUrl value="urn:uuid:17f94d95-c3a4-4832-b599-508ca2f0676f"/>
      <resource>
         <Procedure>
            <id value="17f94d95-c3a4-4832-b599-508ca2f0676f"/>
            <meta>
               <profile value="http://hl7.org/fhir/uv/ips/StructureDefinition/Procedure-uv-ips"/>
            </meta>
            <text>
               <status value="generated"/>
               <div xmlns="http://www.w3.org/1999/xhtml">
                  <table class="hl7__ips">
                     <tr>
                        <td>History AND physical examination</td>
                        <td>
                           <span class="nb">01-May-2021</span>
                        </td>
                        <td>-</td>
                     </tr>
                  </table>
               </div>
            </text>
            <status value="completed"/>
            <code>
               <coding>
                  <system value="http://snomed.info/sct"/>
                  <code value="63332003"/>
                  <display value="History AND physical examination (procedure)"/>
               </coding>
               <text value="History AND physical examination"/>
            </code>
            <subject>
               <reference value="urn:uuid:"/>
               <display value="Helene Andresen"/>
            </subject>
            <performedDateTime value="2021-05-01"/>
         </Procedure>
      </resource>
   </entry>
   <entry>
      <fullUrl value="urn:uuid:838401c8-7f0c-4ff2-a2d5-761a83ec19a0"/>
      <resource>
         <Procedure>
            <id value="838401c8-7f0c-4ff2-a2d5-761a83ec19a0"/>
            <meta>
               <profile value="http://hl7.org/fhir/uv/ips/StructureDefinition/Procedure-uv-ips"/>
            </meta>
            <text>
               <status value="generated"/>
               <div xmlns="http://www.w3.org/1999/xhtml">
                  <table class="hl7__ips">
                     <tr>
                        <td>Bone immobilization</td>
                        <td>
                           <span class="nb">01-May-2021</span>
                        </td>
                        <td>Fracture of forearm</td>
                     </tr>
                  </table>
               </div>
            </text>
            <status value="completed"/>
            <code>
               <coding>
                  <system value="http://snomed.info/sct"/>
                  <code value="274474001"/>
                  <display value="Bone immobilization"/>
               </coding>
               <text value="Bone immobilization"/>
            </code>
            <subject>
               <reference value="urn:uuid:"/>
               <display value="Helene Andresen"/>
            </subject>
            <performedDateTime value="2021-05-01"/>
            <reasonCode>
               <coding>
                  <system value="http://snomed.info/sct"/>
                  <code value="65966004"/>
                  <display value="Fracture of forearm"/>
               </coding>
            </reasonCode>
         </Procedure>
      </resource>
   </entry>
   <entry>
      <fullUrl value="urn:uuid:c5cb5218-5abe-4090-a80f-9ab906209c5e"/>
      <resource>
         <Procedure>
            <id value="c5cb5218-5abe-4090-a80f-9ab906209c5e"/>
            <meta>
               <profile value="http://hl7.org/fhir/uv/ips/StructureDefinition/Procedure-uv-ips"/>
            </meta>
            <text>
               <status value="generated"/>
               <div xmlns="http://www.w3.org/1999/xhtml">
                  <table class="hl7__ips">
                     <tr>
                        <td>Initial patient assessment</td>
                        <td>
                           <span class="nb">01-May-2021</span>
                        </td>
                        <td>-</td>
                     </tr>
                  </table>
               </div>
            </text>
            <status value="completed"/>
            <code>
               <coding>
                  <system value="http://snomed.info/sct"/>
                  <code value="315639002"/>
                  <display value="Initial patient assessment (procedure)"/>
               </coding>
               <text value="Initial patient assessment"/>
            </code>
            <subject>
               <reference value="urn:uuid:"/>
               <display value="Helene Andresen"/>
            </subject>
            <performedDateTime value="2021-05-01"/>
         </Procedure>
      </resource>
   </entry>
   <entry>
      <fullUrl value="urn:uuid:f98b5aaa-2f02-46c7-a419-ee02002589de"/>
      <resource>
         <Procedure>
            <id value="f98b5aaa-2f02-46c7-a419-ee02002589de"/>
            <meta>
               <profile value="http://hl7.org/fhir/uv/ips/StructureDefinition/Procedure-uv-ips"/>
            </meta>
            <text>
               <status value="generated"/>
               <div xmlns="http://www.w3.org/1999/xhtml">
                  <table class="hl7__ips">
                     <tr>
                        <td>Development of individualized plan of care</td>
                        <td>
                           <span class="nb">01-May-2021</span>
                        </td>
                        <td>-</td>
                     </tr>
                  </table>
               </div>
            </text>
            <status value="completed"/>
            <code>
               <coding>
                  <system value="http://snomed.info/sct"/>
                  <code value="370789001"/>
                  <display value="Development of individualized plan of care (procedure)"/>
               </coding>
               <text value="Development of individualized plan of care"/>
            </code>
            <subject>
               <reference value="urn:uuid:"/>
               <display value="Helene Andresen"/>
            </subject>
            <performedDateTime value="2021-05-01"/>
         </Procedure>
      </resource>
   </entry>
   <entry>
      <fullUrl value="urn:uuid:27f9c16f-629c-4f30-ac97-d7e4f55eb5ee"/>
      <resource>
         <Procedure>
            <id value="27f9c16f-629c-4f30-ac97-d7e4f55eb5ee"/>
            <meta>
               <profile value="http://hl7.org/fhir/uv/ips/StructureDefinition/Procedure-uv-ips"/>
            </meta>
            <text>
               <status value="generated"/>
               <div xmlns="http://www.w3.org/1999/xhtml">
                  <table class="hl7__ips">
                     <tr>
                        <td>Occupational therapy</td>
                        <td>
                           <span class="nb">05-Mar-2020</span>
                        </td>
                        <td>-</td>
                     </tr>
                  </table>
               </div>
            </text>
            <status value="completed"/>
            <code>
               <coding>
                  <system value="http://snomed.info/sct"/>
                  <code value="84478008"/>
                  <display value="Occupational therapy (regime/therapy)"/>
               </coding>
               <text value="Occupational therapy"/>
            </code>
            <subject>
               <reference value="urn:uuid:"/>
               <display value="Helene Andresen"/>
            </subject>
            <performedDateTime value="2020-03-05"/>
         </Procedure>
      </resource>
   </entry>
   <entry>
      <fullUrl value="urn:uuid:53eaf495-e163-4d1c-a6b8-dcb02a5aedfc"/>
      <resource>
         <Procedure>
            <id value="53eaf495-e163-4d1c-a6b8-dcb02a5aedfc"/>
            <meta>
               <profile value="http://hl7.org/fhir/uv/ips/StructureDefinition/Procedure-uv-ips"/>
            </meta>
            <text>
               <status value="generated"/>
               <div xmlns="http://www.w3.org/1999/xhtml">
                  <table class="hl7__ips">
                     <tr>
                        <td>Care regimes assessment</td>
                        <td>
                           <span class="nb">04-Mar-2020</span>
                        </td>
                        <td>-</td>
                     </tr>
                  </table>
               </div>
            </text>
            <status value="completed"/>
            <code>
               <coding>
                  <system value="http://snomed.info/sct"/>
                  <code value="392091000"/>
                  <display value="Care regimes assessment (procedure)"/>
               </coding>
               <text value="Care regimes assessment"/>
            </code>
            <subject>
               <reference value="urn:uuid:"/>
               <display value="Helene Andresen"/>
            </subject>
            <performedDateTime value="2020-03-04"/>
         </Procedure>
      </resource>
   </entry>
   <entry>
      <fullUrl value="urn:uuid:d5921009-afe9-4894-8d89-1097e57aa528"/>
      <resource>
         <Procedure>
            <id value="d5921009-afe9-4894-8d89-1097e57aa528"/>
            <meta>
               <profile value="http://hl7.org/fhir/uv/ips/StructureDefinition/Procedure-uv-ips"/>
            </meta>
            <text>
               <status value="generated"/>
               <div xmlns="http://www.w3.org/1999/xhtml">
                  <table class="hl7__ips">
                     <tr>
                        <td>Professional / ancillary services care</td>
                        <td>
                           <span class="nb">26-Feb-2020</span>
                        </td>
                        <td>-</td>
                     </tr>
                  </table>
               </div>
            </text>
            <status value="completed"/>
            <code>
               <coding>
                  <system value="http://snomed.info/sct"/>
                  <code value="409023009"/>
                  <display value="Professional / ancillary services care (regime/therapy)"/>
               </coding>
               <text value="Professional / ancillary services care"/>
            </code>
            <subject>
               <reference value="urn:uuid:"/>
               <display value="Helene Andresen"/>
            </subject>
            <performedDateTime value="2020-02-26"/>
         </Procedure>
      </resource>
   </entry>
   <entry>
      <fullUrl value="urn:uuid:95dfbea3-1943-4cd2-85aa-02e360ffe5be"/>
      <resource>
         <Procedure>
            <id value="95dfbea3-1943-4cd2-85aa-02e360ffe5be"/>
            <meta>
               <profile value="http://hl7.org/fhir/uv/ips/StructureDefinition/Procedure-uv-ips"/>
            </meta>
            <text>
               <status value="generated"/>
               <div xmlns="http://www.w3.org/1999/xhtml">
                  <table class="hl7__ips">
                     <tr>
                        <td>Radiography of wrist</td>
                        <td>
                           <span class="nb">16-Feb-2020</span>
                        </td>
                        <td>-</td>
                     </tr>
                  </table>
               </div>
            </text>
            <status value="completed"/>
            <code>
               <coding>
                  <system value="http://snomed.info/sct"/>
                  <code value="60027007"/>
                  <display value="Radiography of wrist (procedure)"/>
               </coding>
               <text value="Radiography of wrist"/>
            </code>
            <subject>
               <reference value="urn:uuid:"/>
               <display value="Helene Andresen"/>
            </subject>
            <performedDateTime value="2020-02-16"/>
         </Procedure>
      </resource>
   </entry>
   <entry>
      <fullUrl value="urn:uuid:e7388923-4025-448a-ab94-f4ee1d3695b3"/>
      <resource>
         <AllergyIntolerance>
            <id value="e7388923-4025-448a-ab94-f4ee1d3695b3"/>
            <meta>
               <profile value="http://hl7.eu/fhir/eps/StructureDefinition/allergyIntolerance-eu-eps"/>
            </meta>
            <text>
               <status value="generated"/>
               <div xmlns="http://www.w3.org/1999/xhtml">
                  <table class="hl7__ips">
                     <tr>
                        <th>Allergy/Intolerance</th>
                        <th>Onset Date</th>
                        <th>Status</th>
                        <th>Type</th>
                        <th>Reaction</th>
                     </tr>
                     <tr>
                        <td>Inadequate digital access affecting health care</td>
                        <td>
                           <span class="nb">2025-10-22</span>
                        </td>
                        <td>active</td>
                        <td>environment</td>
                        <td/>
                     </tr>
                  </table>
               </div>
            </text>
            <clinicalStatus>
               <coding>
                  <system value="http://terminology.hl7.org/CodeSystem/allergyintolerance-clinical"/>
                  <code value="active"/>
               </coding>
            </clinicalStatus>
            <verificationStatus>
               <coding>
                  <system value="http://terminology.hl7.org/CodeSystem/allergyintolerance-verification"/>
                  <code value="confirmed"/>
               </coding>
            </verificationStatus>
            <type value="intolerance"/>
            <category value="environment"/>
            <code>
               <coding>
                  <system value="http://snomed.info/sct"/>
                  <code value="1343356001"/>
                  <display value="Inadequate digital access affecting health care"/>
               </coding>
               <text value="Inadequate digital access affecting health care"/>
            </code>
            <patient>
               <reference value="urn:uuid:356b1a6a-4cfc-485b-876d-1814cf62fb15"/>
               <display value="Helene Andresen"/>
            </patient>
            <onsetDateTime value="2025-10-22"/>
         </AllergyIntolerance>
      </resource>
   </entry>
   <entry>
      <fullUrl value="urn:uuid:ddc2c776-97c6-4634-b253-3d4d9d197ee0"/>
      <resource>
         <CarePlan>
            <id value="ddc2c776-97c6-4634-b253-3d4d9d197ee0"/>
            <text>
               <status value="generated"/>
               <div xmlns="http://www.w3.org/1999/xhtml">
                  <table class="hl7__ips first25">
                     <tr>
                        <th>Active Planned Care / Goals</th>
                        <th>Start Date</th>
                        <th>Reason</th>
                     </tr>
                     <tr>
                        <td>Hyperlipidemia clinical management plan</td>
                        <td>
                           <span class="nb">28-May-1989</span>
                        </td>
                        <td>Hyperlipidemia</td>
                     </tr>
                     <tr>
                        <td>
                           <ul>
                              <li>Achieve LDL cholesterol less than 2.6 mmol/L</li>
                              <li>Achieve total cholesterol less than 5.2 mmol/L</li>
                              <li>Maintain HDL cholesterol greater than 1.3 mmol/L</li>
                              <li>Achieve triglycerides less than 1.7 mmol/L</li>
                           </ul>
                        </td>
                        <td/>
                        <td/>
                     </tr>
                  </table>
               </div>
            </text>
            <status value="active"/>
            <intent value="plan"/>
            <category>
               <coding>
                  <system value="http://terminology.hl7.org/CodeSystem/care-plan-category"/>
                  <code value="assess-plan"/>
                  <display value="Assessment and Plan"/>
               </coding>
            </category>
            <subject>
               <reference value="urn:uuid:356b1a6a-4cfc-485b-876d-1814cf62fb15"/>
               <display value="Helene Andresen"/>
            </subject>
            <period>
               <start value="1989-05-28"/>
            </period>
            <goal>
               <reference value="urn:uuid:d63a93ff-e34a-46df-beff-4adb86cfb636"/>
            </goal>
            <goal>
               <reference value="urn:uuid:2a92ad69-dc4e-4a11-8779-8051e20be961"/>
            </goal>
            <goal>
               <reference value="urn:uuid:73392951-ed33-402a-a497-0622dc5be147"/>
            </goal>
            <goal>
               <reference value="urn:uuid:1f9d9eb1-e250-4b2b-9aa7-e9b8a6bb2925"/>
            </goal>
            <activity>
               <detail>
                  <kind value="Appointment"/>
                  <code>
                     <coding>
                        <system value="http://snomed.info/sct"/>
                        <code value="736285004"/>
                        <display value="Hyperlipidemia clinical management plan (record artifact)"/>
                     </coding>
                  </code>
                  <reasonCode>
                     <coding>
                        <system value="http://snomed.info/sct"/>
                        <code value="55822004"/>
                        <display value="Hyperlipidemia"/>
                     </coding>
                  </reasonCode>
                  <status value="unknown"/>
                  <description value="Hyperlipidemia clinical management plan"/>
               </detail>
            </activity>
         </CarePlan>
      </resource>
   </entry>
   <entry>
      <fullUrl value="urn:uuid:5af4b0e2-98cc-4c23-8164-00585bbeaf34"/>
      <resource>
         <CarePlan>
            <id value="5af4b0e2-98cc-4c23-8164-00585bbeaf34"/>
            <text>
               <status value="generated"/>
               <div xmlns="http://www.w3.org/1999/xhtml">
                  <table class="hl7__ips first25">
                     <tr>
                        <th>Active Planned Care / Goals</th>
                        <th>Start Date</th>
                        <th>Reason</th>
                     </tr>
                     <tr>
                        <td>Diabetes self management plan</td>
                        <td>
                           <span class="nb">02-Jul-1960</span>
                        </td>
                        <td>Prediabetes</td>
                     </tr>
                     <tr>
                        <td>
                           <ul>
                              <li>Patient will implement and maintain a diabetes self-management plan to reduce risk of progression from prediabetes.</li>
                              <li>Patient will achieve and maintain a healthy weight as part of diabetes self-management.</li>
                              <li>Patient will engage in at least 150 minutes of moderate-intensity physical activity per week.</li>
                           </ul>
                        </td>
                        <td/>
                        <td/>
                     </tr>
                  </table>
               </div>
            </text>
            <status value="active"/>
            <intent value="plan"/>
            <category>
               <coding>
                  <system value="http://terminology.hl7.org/CodeSystem/care-plan-category"/>
                  <code value="assess-plan"/>
                  <display value="Assessment and Plan"/>
               </coding>
            </category>
            <subject>
               <reference value="urn:uuid:356b1a6a-4cfc-485b-876d-1814cf62fb15"/>
               <display value="Helene Andresen"/>
            </subject>
            <period>
               <start value="1960-07-02"/>
            </period>
            <goal>
               <reference value="urn:uuid:a3b56e2f-ae8a-470e-bea9-41f3ef216838"/>
            </goal>
            <goal>
               <reference value="urn:uuid:2f1d9a77-5676-4cc7-b86e-d2362c33ed18"/>
            </goal>
            <goal>
               <reference value="urn:uuid:9ee368a6-1724-4172-a142-a2ee9dddf1a6"/>
            </goal>
            <activity>
               <detail>
                  <kind value="Appointment"/>
                  <code>
                     <coding>
                        <system value="http://snomed.info/sct"/>
                        <code value="698360004"/>
                        <display value="Diabetes self management plan (qualifier value)"/>
                     </coding>
                  </code>
                  <reasonCode>
                     <coding>
                        <system value="http://snomed.info/sct"/>
                        <code value="15777000"/>
                        <display value="Prediabetes"/>
                     </coding>
                  </reasonCode>
                  <status value="unknown"/>
                  <description value="Diabetes self management plan"/>
               </detail>
            </activity>
         </CarePlan>
      </resource>
   </entry>
   <entry>
      <fullUrl value="urn:uuid:3b21d93b-54a1-432b-bfb3-99aec17c9181"/>
      <resource>
         <ImmunizationRecommendation>
            <id value="3b21d93b-54a1-432b-bfb3-99aec17c9181"/>
            <text>
               <status value="generated"/>
               <div xmlns="http://www.w3.org/1999/xhtml">
                  <table class="hl7__ips">
                     <tr>
                        <td>Vaccine product containing only Influenza virus antigen (medicinal product)</td>
                        <td>
                           <span class="nb">01-Oct-2025</span>
                        </td>
                        <td>Annual seasonal influenza vaccination</td>
                     </tr>
                  </table>
               </div>
            </text>
            <patient>
               <reference value="urn:uuid:356b1a6a-4cfc-485b-876d-1814cf62fb15"/>
               <display value="Helene Andresen"/>
            </patient>
            <date value="2025-10-22"/>
            <recommendation>
               <vaccineCode>
                  <coding>
                     <system value="http://snomed.info/sct"/>
                     <code value="1181000221105"/>
                     <display value="Vaccine product containing only Influenza virus antigen (medicinal product)"/>
                  </coding>
               </vaccineCode>
               <targetDisease>
                  <coding>
                     <system value="http://snomed.info/sct"/>
                     <code value="6142004"/>
                     <display value="Influenza (disorder)"/>
                  </coding>
               </targetDisease>
               <forecastStatus>
                  <coding>
                     <system value="http://terminology.hl7.org/CodeSystem/immunization-recommendation-status"/>
                     <code value="due"/>
                     <display value="Due"/>
                  </coding>
               </forecastStatus>
               <dateCriterion>
                  <code>
                     <coding>
                        <system value="http://loinc.org"/>
                        <code value="30980-7"/>
                        <display value="Date vaccine due"/>
                     </coding>
                  </code>
                  <value value="2025-10-01"/>
               </dateCriterion>
               <series value="Annual seasonal influenza vaccination"/>
            </recommendation>
         </ImmunizationRecommendation>
      </resource>
   </entry>
   <entry>
      <fullUrl value="urn:uuid:0a15f1fe-0821-463f-a689-6a286c882718"/>
      <resource>
         <Observation>
            <id value="0a15f1fe-0821-463f-a689-6a286c882718"/>
            <meta>
               <profile value="http://hl7.org/fhir/StructureDefinition/vitalsigns"/>
            </meta>
            <text>
               <status value="generated"/>
               <div xmlns="http://www.w3.org/1999/xhtml">
                  <table class="hl7__ips">
                     <tr>
                        <th>Vital Sign</th>
                        <th>Date</th>
                        <th>Measurement</th>
                     </tr>
                     <tr>
                        <td>Body Height</td>
                        <td>23-Nov-2024</td>
                        <td>166.9 cm</td>
                     </tr>
                  </table>
               </div>
            </text>
            <status value="final"/>
            <category>
               <coding>
                  <system value="http://terminology.hl7.org/CodeSystem/observation-category"/>
                  <code value="vital-signs"/>
                  <display value="Vital Signs"/>
               </coding>
            </category>
            <code>
               <coding>
                  <system value="http://loinc.org"/>
                  <code value="$8302-2"/>
                  <display value="Body Height"/>
               </coding>
            </code>
            <subject>
               <reference value="urn:uuid:356b1a6a-4cfc-485b-876d-1814cf62fb15"/>
               <display value="Helene Andresen"/>
            </subject>
            <effectiveDateTime value="2024-11-23"/>
            <valueQuantity>
               <value value="166.9"/>
               <unit value="cm"/>
               <code value="cm"/>
            </valueQuantity>
         </Observation>
      </resource>
   </entry>
   <entry>
      <fullUrl value="urn:uuid:57949397-0280-4904-bf38-0cbfbf43ef81"/>
      <resource>
         <Observation>
            <id value="57949397-0280-4904-bf38-0cbfbf43ef81"/>
            <meta>
               <profile value="http://hl7.org/fhir/StructureDefinition/vitalsigns"/>
            </meta>
            <text>
               <status value="generated"/>
               <div xmlns="http://www.w3.org/1999/xhtml">
                  <table class="hl7__ips">
                     <tr>
                        <th>Vital Sign</th>
                        <th>Date</th>
                        <th>Measurement</th>
                     </tr>
                     <tr>
                        <td>Pain severity - 0-10 verbal numeric rating [Score] - Reported</td>
                        <td>23-Nov-2024</td>
                        <td>4 {score}</td>
                     </tr>
                  </table>
               </div>
            </text>
            <status value="final"/>
            <category>
               <coding>
                  <system value="http://terminology.hl7.org/CodeSystem/observation-category"/>
                  <code value="vital-signs"/>
                  <display value="Vital Signs"/>
               </coding>
            </category>
            <code>
               <coding>
                  <system value="http://loinc.org"/>
                  <code value="$72514-3"/>
                  <display value="Pain severity - 0-10 verbal numeric rating [Score] - Reported"/>
               </coding>
            </code>
            <subject>
               <reference value="urn:uuid:356b1a6a-4cfc-485b-876d-1814cf62fb15"/>
               <display value="Helene Andresen"/>
            </subject>
            <effectiveDateTime value="2024-11-23"/>
            <valueQuantity>
               <value value="4"/>
               <unit value="{score}"/>
               <code value="{score}"/>
            </valueQuantity>
         </Observation>
      </resource>
   </entry>
   <entry>
      <fullUrl value="urn:uuid:4aa62438-1871-4b3c-8704-b6be9379378c"/>
      <resource>
         <Observation>
            <id value="4aa62438-1871-4b3c-8704-b6be9379378c"/>
            <meta>
               <profile value="http://hl7.org/fhir/StructureDefinition/vitalsigns"/>
            </meta>
            <text>
               <status value="generated"/>
               <div xmlns="http://www.w3.org/1999/xhtml">
                  <table class="hl7__ips">
                     <tr>
                        <th>Vital Sign</th>
                        <th>Date</th>
                        <th>Measurement</th>
                     </tr>
                     <tr>
                        <td>Body Weight</td>
                        <td>23-Nov-2024</td>
                        <td>76.6 kg</td>
                     </tr>
                  </table>
               </div>
            </text>
            <status value="final"/>
            <category>
               <coding>
                  <system value="http://terminology.hl7.org/CodeSystem/observation-category"/>
                  <code value="vital-signs"/>
                  <display value="Vital Signs"/>
               </coding>
            </category>
            <code>
               <coding>
                  <system value="http://loinc.org"/>
                  <code value="$29463-7"/>
                  <display value="Body Weight"/>
               </coding>
            </code>
            <subject>
               <reference value="urn:uuid:356b1a6a-4cfc-485b-876d-1814cf62fb15"/>
               <display value="Helene Andresen"/>
            </subject>
            <effectiveDateTime value="2024-11-23"/>
            <valueQuantity>
               <value value="76.6"/>
               <unit value="kg"/>
               <code value="kg"/>
            </valueQuantity>
         </Observation>
      </resource>
   </entry>
   <entry>
      <fullUrl value="urn:uuid:d925615b-6b2d-4d63-98d8-70b189300d7a"/>
      <resource>
         <Observation>
            <id value="d925615b-6b2d-4d63-98d8-70b189300d7a"/>
            <meta>
               <profile value="http://hl7.org/fhir/StructureDefinition/vitalsigns"/>
            </meta>
            <text>
               <status value="generated"/>
               <div xmlns="http://www.w3.org/1999/xhtml">
                  <table class="hl7__ips">
                     <tr>
                        <th>Vital Sign</th>
                        <th>Date</th>
                        <th>Measurement</th>
                     </tr>
                     <tr>
                        <td>Body mass index (BMI) [Ratio]</td>
                        <td>23-Nov-2024</td>
                        <td>27.5 kg/m2</td>
                     </tr>
                  </table>
               </div>
            </text>
            <status value="final"/>
            <category>
               <coding>
                  <system value="http://terminology.hl7.org/CodeSystem/observation-category"/>
                  <code value="vital-signs"/>
                  <display value="Vital Signs"/>
               </coding>
            </category>
            <code>
               <coding>
                  <system value="http://loinc.org"/>
                  <code value="$39156-5"/>
                  <display value="Body mass index (BMI) [Ratio]"/>
               </coding>
            </code>
            <subject>
               <reference value="urn:uuid:356b1a6a-4cfc-485b-876d-1814cf62fb15"/>
               <display value="Helene Andresen"/>
            </subject>
            <effectiveDateTime value="2024-11-23"/>
            <valueQuantity>
               <value value="27.5"/>
               <unit value="kg/m2"/>
               <code value="kg/m2"/>
            </valueQuantity>
         </Observation>
      </resource>
   </entry>
   <entry>
      <fullUrl value="urn:uuid:4675870a-36d6-4197-bf7f-da4c34bc6445"/>
      <resource>
         <Observation>
            <id value="4675870a-36d6-4197-bf7f-da4c34bc6445"/>
            <meta>
               <profile value="http://hl7.org/fhir/StructureDefinition/vitalsigns"/>
            </meta>
            <text>
               <status value="generated"/>
               <div xmlns="http://www.w3.org/1999/xhtml">
                  <table class="hl7__ips">
                     <tr>
                        <th>Vital Sign</th>
                        <th>Date</th>
                        <th>Measurement</th>
                     </tr>
                     <tr>
                        <td>Diastolic Blood Pressure</td>
                        <td>23-Nov-2024</td>
                        <td>83 mm[Hg]</td>
                     </tr>
                  </table>
               </div>
            </text>
            <status value="final"/>
            <category>
               <coding>
                  <system value="http://terminology.hl7.org/CodeSystem/observation-category"/>
                  <code value="vital-signs"/>
                  <display value="Vital Signs"/>
               </coding>
            </category>
            <code>
               <coding>
                  <system value="http://loinc.org"/>
                  <code value="$8462-4"/>
                  <display value="Diastolic Blood Pressure"/>
               </coding>
            </code>
            <subject>
               <reference value="urn:uuid:356b1a6a-4cfc-485b-876d-1814cf62fb15"/>
               <display value="Helene Andresen"/>
            </subject>
            <effectiveDateTime value="2024-11-23"/>
            <valueQuantity>
               <value value="83"/>
               <unit value="mm[Hg]"/>
               <code value="mm[Hg]"/>
            </valueQuantity>
         </Observation>
      </resource>
   </entry>
   <entry>
      <fullUrl value="urn:uuid:f92a86ba-e432-4b4f-8a69-ff6b20e2fb9a"/>
      <resource>
         <Observation>
            <id value="f92a86ba-e432-4b4f-8a69-ff6b20e2fb9a"/>
            <meta>
               <profile value="http://hl7.org/fhir/StructureDefinition/vitalsigns"/>
            </meta>
            <text>
               <status value="generated"/>
               <div xmlns="http://www.w3.org/1999/xhtml">
                  <table class="hl7__ips">
                     <tr>
                        <th>Vital Sign</th>
                        <th>Date</th>
                        <th>Measurement</th>
                     </tr>
                     <tr>
                        <td>Systolic Blood Pressure</td>
                        <td>23-Nov-2024</td>
                        <td>124 mm[Hg]</td>
                     </tr>
                  </table>
               </div>
            </text>
            <status value="final"/>
            <category>
               <coding>
                  <system value="http://terminology.hl7.org/CodeSystem/observation-category"/>
                  <code value="vital-signs"/>
                  <display value="Vital Signs"/>
               </coding>
            </category>
            <code>
               <coding>
                  <system value="http://loinc.org"/>
                  <code value="$8480-6"/>
                  <display value="Systolic Blood Pressure"/>
               </coding>
            </code>
            <subject>
               <reference value="urn:uuid:356b1a6a-4cfc-485b-876d-1814cf62fb15"/>
               <display value="Helene Andresen"/>
            </subject>
            <effectiveDateTime value="2024-11-23"/>
            <valueQuantity>
               <value value="124"/>
               <unit value="mm[Hg]"/>
               <code value="mm[Hg]"/>
            </valueQuantity>
         </Observation>
      </resource>
   </entry>
   <entry>
      <fullUrl value="urn:uuid:5ac1d0b0-99c1-4cf8-8988-e26b97202baa"/>
      <resource>
         <Observation>
            <id value="5ac1d0b0-99c1-4cf8-8988-e26b97202baa"/>
            <meta>
               <profile value="http://hl7.org/fhir/StructureDefinition/vitalsigns"/>
            </meta>
            <text>
               <status value="generated"/>
               <div xmlns="http://www.w3.org/1999/xhtml">
                  <table class="hl7__ips">
                     <tr>
                        <th>Vital Sign</th>
                        <th>Date</th>
                        <th>Measurement</th>
                     </tr>
                     <tr>
                        <td>Heart rate</td>
                        <td>23-Nov-2024</td>
                        <td>92 /min</td>
                     </tr>
                  </table>
               </div>
            </text>
            <status value="final"/>
            <category>
               <coding>
                  <system value="http://terminology.hl7.org/CodeSystem/observation-category"/>
                  <code value="vital-signs"/>
                  <display value="Vital Signs"/>
               </coding>
            </category>
            <code>
               <coding>
                  <system value="http://loinc.org"/>
                  <code value="$8867-4"/>
                  <display value="Heart rate"/>
               </coding>
            </code>
            <subject>
               <reference value="urn:uuid:356b1a6a-4cfc-485b-876d-1814cf62fb15"/>
               <display value="Helene Andresen"/>
            </subject>
            <effectiveDateTime value="2024-11-23"/>
            <valueQuantity>
               <value value="92"/>
               <unit value="/min"/>
               <code value="/min"/>
            </valueQuantity>
         </Observation>
      </resource>
   </entry>
   <entry>
      <fullUrl value="urn:uuid:58031562-5132-4949-8dff-4a5fe85f9279"/>
      <resource>
         <Observation>
            <id value="58031562-5132-4949-8dff-4a5fe85f9279"/>
            <meta>
               <profile value="http://hl7.org/fhir/StructureDefinition/vitalsigns"/>
            </meta>
            <text>
               <status value="generated"/>
               <div xmlns="http://www.w3.org/1999/xhtml">
                  <table class="hl7__ips">
                     <tr>
                        <th>Vital Sign</th>
                        <th>Date</th>
                        <th>Measurement</th>
                     </tr>
                     <tr>
                        <td>Respiratory rate</td>
                        <td>23-Nov-2024</td>
                        <td>13 /min</td>
                     </tr>
                  </table>
               </div>
            </text>
            <status value="final"/>
            <category>
               <coding>
                  <system value="http://terminology.hl7.org/CodeSystem/observation-category"/>
                  <code value="vital-signs"/>
                  <display value="Vital Signs"/>
               </coding>
            </category>
            <code>
               <coding>
                  <system value="http://loinc.org"/>
                  <code value="$9279-1"/>
                  <display value="Respiratory rate"/>
               </coding>
            </code>
            <subject>
               <reference value="urn:uuid:356b1a6a-4cfc-485b-876d-1814cf62fb15"/>
               <display value="Helene Andresen"/>
            </subject>
            <effectiveDateTime value="2024-11-23"/>
            <valueQuantity>
               <value value="13"/>
               <unit value="/min"/>
               <code value="/min"/>
            </valueQuantity>
         </Observation>
      </resource>
   </entry>
   <entry>
      <fullUrl value="urn:uuid:75641c35-14ce-45d8-9e35-de708503a34f"/>
      <resource>
         <Observation>
            <id value="75641c35-14ce-45d8-9e35-de708503a34f"/>
            <meta>
               <profile value="http://hl7.org/fhir/StructureDefinition/vitalsigns"/>
            </meta>
            <text>
               <status value="generated"/>
               <div xmlns="http://www.w3.org/1999/xhtml">
                  <table class="hl7__ips">
                     <tr>
                        <th>Vital Sign</th>
                        <th>Date</th>
                        <th>Measurement</th>
                     </tr>
                     <tr>
                        <td>Body Height</td>
                        <td>18-Nov-2023</td>
                        <td>166.9 cm</td>
                     </tr>
                  </table>
               </div>
            </text>
            <status value="final"/>
            <category>
               <coding>
                  <system value="http://terminology.hl7.org/CodeSystem/observation-category"/>
                  <code value="vital-signs"/>
                  <display value="Vital Signs"/>
               </coding>
            </category>
            <code>
               <coding>
                  <system value="http://loinc.org"/>
                  <code value="$8302-2"/>
                  <display value="Body Height"/>
               </coding>
            </code>
            <subject>
               <reference value="urn:uuid:356b1a6a-4cfc-485b-876d-1814cf62fb15"/>
               <display value="Helene Andresen"/>
            </subject>
            <effectiveDateTime value="2023-11-18"/>
            <valueQuantity>
               <value value="166.9"/>
               <unit value="cm"/>
               <code value="cm"/>
            </valueQuantity>
         </Observation>
      </resource>
   </entry>
   <entry>
      <fullUrl value="urn:uuid:532ed21d-a3e4-44ae-a86b-2933f1e2b17b"/>
      <resource>
         <Observation>
            <id value="532ed21d-a3e4-44ae-a86b-2933f1e2b17b"/>
            <meta>
               <profile value="http://hl7.org/fhir/StructureDefinition/vitalsigns"/>
            </meta>
            <text>
               <status value="generated"/>
               <div xmlns="http://www.w3.org/1999/xhtml">
                  <table class="hl7__ips">
                     <tr>
                        <th>Vital Sign</th>
                        <th>Date</th>
                        <th>Measurement</th>
                     </tr>
                     <tr>
                        <td>Pain severity - 0-10 verbal numeric rating [Score] - Reported</td>
                        <td>18-Nov-2023</td>
                        <td>0 {score}</td>
                     </tr>
                  </table>
               </div>
            </text>
            <status value="final"/>
            <category>
               <coding>
                  <system value="http://terminology.hl7.org/CodeSystem/observation-category"/>
                  <code value="vital-signs"/>
                  <display value="Vital Signs"/>
               </coding>
            </category>
            <code>
               <coding>
                  <system value="http://loinc.org"/>
                  <code value="$72514-3"/>
                  <display value="Pain severity - 0-10 verbal numeric rating [Score] - Reported"/>
               </coding>
            </code>
            <subject>
               <reference value="urn:uuid:356b1a6a-4cfc-485b-876d-1814cf62fb15"/>
               <display value="Helene Andresen"/>
            </subject>
            <effectiveDateTime value="2023-11-18"/>
            <valueQuantity>
               <value value="0"/>
               <unit value="{score}"/>
               <code value="{score}"/>
            </valueQuantity>
         </Observation>
      </resource>
   </entry>
   <entry>
      <fullUrl value="urn:uuid:e9b3d19f-a942-45c2-a21c-a178e7803275"/>
      <resource>
         <Observation>
            <id value="e9b3d19f-a942-45c2-a21c-a178e7803275"/>
            <meta>
               <profile value="http://hl7.org/fhir/StructureDefinition/vitalsigns"/>
            </meta>
            <text>
               <status value="generated"/>
               <div xmlns="http://www.w3.org/1999/xhtml">
                  <table class="hl7__ips">
                     <tr>
                        <th>Vital Sign</th>
                        <th>Date</th>
                        <th>Measurement</th>
                     </tr>
                     <tr>
                        <td>Body Weight</td>
                        <td>18-Nov-2023</td>
                        <td>76.6 kg</td>
                     </tr>
                  </table>
               </div>
            </text>
            <status value="final"/>
            <category>
               <coding>
                  <system value="http://terminology.hl7.org/CodeSystem/observation-category"/>
                  <code value="vital-signs"/>
                  <display value="Vital Signs"/>
               </coding>
            </category>
            <code>
               <coding>
                  <system value="http://loinc.org"/>
                  <code value="$29463-7"/>
                  <display value="Body Weight"/>
               </coding>
            </code>
            <subject>
               <reference value="urn:uuid:356b1a6a-4cfc-485b-876d-1814cf62fb15"/>
               <display value="Helene Andresen"/>
            </subject>
            <effectiveDateTime value="2023-11-18"/>
            <valueQuantity>
               <value value="76.6"/>
               <unit value="kg"/>
               <code value="kg"/>
            </valueQuantity>
         </Observation>
      </resource>
   </entry>
   <entry>
      <fullUrl value="urn:uuid:f0a52b20-a1df-455a-9558-f47dcfe287e4"/>
      <resource>
         <Observation>
            <id value="f0a52b20-a1df-455a-9558-f47dcfe287e4"/>
            <meta>
               <profile value="http://hl7.org/fhir/StructureDefinition/vitalsigns"/>
            </meta>
            <text>
               <status value="generated"/>
               <div xmlns="http://www.w3.org/1999/xhtml">
                  <table class="hl7__ips">
                     <tr>
                        <th>Vital Sign</th>
                        <th>Date</th>
                        <th>Measurement</th>
                     </tr>
                     <tr>
                        <td>Body mass index (BMI) [Ratio]</td>
                        <td>18-Nov-2023</td>
                        <td>27.5 kg/m2</td>
                     </tr>
                  </table>
               </div>
            </text>
            <status value="final"/>
            <category>
               <coding>
                  <system value="http://terminology.hl7.org/CodeSystem/observation-category"/>
                  <code value="vital-signs"/>
                  <display value="Vital Signs"/>
               </coding>
            </category>
            <code>
               <coding>
                  <system value="http://loinc.org"/>
                  <code value="$39156-5"/>
                  <display value="Body mass index (BMI) [Ratio]"/>
               </coding>
            </code>
            <subject>
               <reference value="urn:uuid:356b1a6a-4cfc-485b-876d-1814cf62fb15"/>
               <display value="Helene Andresen"/>
            </subject>
            <effectiveDateTime value="2023-11-18"/>
            <valueQuantity>
               <value value="27.5"/>
               <unit value="kg/m2"/>
               <code value="kg/m2"/>
            </valueQuantity>
         </Observation>
      </resource>
   </entry>
   <entry>
      <fullUrl value="urn:uuid:ecedcc77-995a-44ad-b1c4-a8e965cea375"/>
      <resource>
         <Observation>
            <id value="ecedcc77-995a-44ad-b1c4-a8e965cea375"/>
            <meta>
               <profile value="http://hl7.org/fhir/StructureDefinition/vitalsigns"/>
            </meta>
            <text>
               <status value="generated"/>
               <div xmlns="http://www.w3.org/1999/xhtml">
                  <table class="hl7__ips">
                     <tr>
                        <th>Vital Sign</th>
                        <th>Date</th>
                        <th>Measurement</th>
                     </tr>
                     <tr>
                        <td>Diastolic Blood Pressure</td>
                        <td>18-Nov-2023</td>
                        <td>75 mm[Hg]</td>
                     </tr>
                  </table>
               </div>
            </text>
            <status value="final"/>
            <category>
               <coding>
                  <system value="http://terminology.hl7.org/CodeSystem/observation-category"/>
                  <code value="vital-signs"/>
                  <display value="Vital Signs"/>
               </coding>
            </category>
            <code>
               <coding>
                  <system value="http://loinc.org"/>
                  <code value="$8462-4"/>
                  <display value="Diastolic Blood Pressure"/>
               </coding>
            </code>
            <subject>
               <reference value="urn:uuid:356b1a6a-4cfc-485b-876d-1814cf62fb15"/>
               <display value="Helene Andresen"/>
            </subject>
            <effectiveDateTime value="2023-11-18"/>
            <valueQuantity>
               <value value="75"/>
               <unit value="mm[Hg]"/>
               <code value="mm[Hg]"/>
            </valueQuantity>
         </Observation>
      </resource>
   </entry>
   <entry>
      <fullUrl value="urn:uuid:fcffc7f6-8d29-4d24-b659-435f34a6688c"/>
      <resource>
         <Observation>
            <id value="fcffc7f6-8d29-4d24-b659-435f34a6688c"/>
            <meta>
               <profile value="http://hl7.org/fhir/StructureDefinition/vitalsigns"/>
            </meta>
            <text>
               <status value="generated"/>
               <div xmlns="http://www.w3.org/1999/xhtml">
                  <table class="hl7__ips">
                     <tr>
                        <th>Vital Sign</th>
                        <th>Date</th>
                        <th>Measurement</th>
                     </tr>
                     <tr>
                        <td>Systolic Blood Pressure</td>
                        <td>18-Nov-2023</td>
                        <td>127 mm[Hg]</td>
                     </tr>
                  </table>
               </div>
            </text>
            <status value="final"/>
            <category>
               <coding>
                  <system value="http://terminology.hl7.org/CodeSystem/observation-category"/>
                  <code value="vital-signs"/>
                  <display value="Vital Signs"/>
               </coding>
            </category>
            <code>
               <coding>
                  <system value="http://loinc.org"/>
                  <code value="$8480-6"/>
                  <display value="Systolic Blood Pressure"/>
               </coding>
            </code>
            <subject>
               <reference value="urn:uuid:356b1a6a-4cfc-485b-876d-1814cf62fb15"/>
               <display value="Helene Andresen"/>
            </subject>
            <effectiveDateTime value="2023-11-18"/>
            <valueQuantity>
               <value value="127"/>
               <unit value="mm[Hg]"/>
               <code value="mm[Hg]"/>
            </valueQuantity>
         </Observation>
      </resource>
   </entry>
   <entry>
      <fullUrl value="urn:uuid:fcf39641-0cd9-4f79-be2a-1d1b316116a7"/>
      <resource>
         <Observation>
            <id value="fcf39641-0cd9-4f79-be2a-1d1b316116a7"/>
            <meta>
               <profile value="http://hl7.org/fhir/StructureDefinition/vitalsigns"/>
            </meta>
            <text>
               <status value="generated"/>
               <div xmlns="http://www.w3.org/1999/xhtml">
                  <table class="hl7__ips">
                     <tr>
                        <th>Vital Sign</th>
                        <th>Date</th>
                        <th>Measurement</th>
                     </tr>
                     <tr>
                        <td>Heart rate</td>
                        <td>18-Nov-2023</td>
                        <td>81 /min</td>
                     </tr>
                  </table>
               </div>
            </text>
            <status value="final"/>
            <category>
               <coding>
                  <system value="http://terminology.hl7.org/CodeSystem/observation-category"/>
                  <code value="vital-signs"/>
                  <display value="Vital Signs"/>
               </coding>
            </category>
            <code>
               <coding>
                  <system value="http://loinc.org"/>
                  <code value="$8867-4"/>
                  <display value="Heart rate"/>
               </coding>
            </code>
            <subject>
               <reference value="urn:uuid:356b1a6a-4cfc-485b-876d-1814cf62fb15"/>
               <display value="Helene Andresen"/>
            </subject>
            <effectiveDateTime value="2023-11-18"/>
            <valueQuantity>
               <value value="81"/>
               <unit value="/min"/>
               <code value="/min"/>
            </valueQuantity>
         </Observation>
      </resource>
   </entry>
   <entry>
      <fullUrl value="urn:uuid:61623983-68af-4165-adf2-5039b900277d"/>
      <resource>
         <Observation>
            <id value="61623983-68af-4165-adf2-5039b900277d"/>
            <meta>
               <profile value="http://hl7.org/fhir/StructureDefinition/vitalsigns"/>
            </meta>
            <text>
               <status value="generated"/>
               <div xmlns="http://www.w3.org/1999/xhtml">
                  <table class="hl7__ips">
                     <tr>
                        <th>Vital Sign</th>
                        <th>Date</th>
                        <th>Measurement</th>
                     </tr>
                     <tr>
                        <td>Respiratory rate</td>
                        <td>18-Nov-2023</td>
                        <td>15 /min</td>
                     </tr>
                  </table>
               </div>
            </text>
            <status value="final"/>
            <category>
               <coding>
                  <system value="http://terminology.hl7.org/CodeSystem/observation-category"/>
                  <code value="vital-signs"/>
                  <display value="Vital Signs"/>
               </coding>
            </category>
            <code>
               <coding>
                  <system value="http://loinc.org"/>
                  <code value="$9279-1"/>
                  <display value="Respiratory rate"/>
               </coding>
            </code>
            <subject>
               <reference value="urn:uuid:356b1a6a-4cfc-485b-876d-1814cf62fb15"/>
               <display value="Helene Andresen"/>
            </subject>
            <effectiveDateTime value="2023-11-18"/>
            <valueQuantity>
               <value value="15"/>
               <unit value="/min"/>
               <code value="/min"/>
            </valueQuantity>
         </Observation>
      </resource>
   </entry>
   <entry>
      <fullUrl value="urn:uuid:db4d8cdf-8e67-420f-b378-d26a0f691b49"/>
      <resource>
         <Observation>
            <id value="db4d8cdf-8e67-420f-b378-d26a0f691b49"/>
            <meta>
               <profile value="http://hl7.eu/fhir/laboratory/StructureDefinition/Observation-resultslab-eu-lab"/>
            </meta>
            <text>
               <status value="generated"/>
               <div xmlns="http://www.w3.org/1999/xhtml">
                  <table class="hl7__eu__lab__report">
                     <tr>
                        <th>Test</th>
                        <th>30-Nov-2024</th>
                        <th>Reference Range</th>
                        <th>Unit</th>
                     </tr>
                     <tr>
                        <td>Glucose [Mass/volume] in Blood</td>
                        <td>86.2</td>
                        <td>70 - 140</td>
                        <td/>
                        <td>mg/dL</td>
                     </tr>
                  </table>
               </div>
            </text>
            <status value="final"/>
            <category>
               <coding>
                  <system value="http://terminology.hl7.org/CodeSystem/observation-category"/>
                  <code value="laboratory"/>
               </coding>
            </category>
            <code>
               <coding>
                  <system value="http://loinc.org"/>
                  <code value="2339-0"/>
                  <display value="Glucose [Mass/volume] in Blood"/>
               </coding>
               <text value="Glucose [Mass/volume] in Blood"/>
            </code>
            <subject>
               <reference value="urn:uuid:356b1a6a-4cfc-485b-876d-1814cf62fb15"/>
               <display value="Helene Andresen"/>
            </subject>
            <effectiveDateTime value="2024-11-30T22:53:36Z"/>
            <performer>
               <display value="The Central European Lab"/>
            </performer>
            <valueQuantity>
               <value value="86.2"/>
               <unit value="mg/dL"/>
               <system value="http://unitsofmeasure.org"/>
               <code value="mg/dL"/>
            </valueQuantity>
            <referenceRange>
               <low>
                  <value value="70"/>
                  <system value="http://unitsofmeasure.org"/>
                  <code value="mg/dL"/>
               </low>
            </referenceRange>
            <referenceRange>
               <high>
                  <value value="140"/>
                  <system value="http://unitsofmeasure.org"/>
                  <code value="mg/dL"/>
               </high>
            </referenceRange>
         </Observation>
      </resource>
   </entry>
   <entry>
      <fullUrl value="urn:uuid:794e55c4-7cfc-4259-afad-4a734d5ed969"/>
      <resource>
         <Observation>
            <id value="794e55c4-7cfc-4259-afad-4a734d5ed969"/>
            <meta>
               <profile value="http://hl7.eu/fhir/laboratory/StructureDefinition/Observation-resultslab-eu-lab"/>
            </meta>
            <text>
               <status value="generated"/>
               <div xmlns="http://www.w3.org/1999/xhtml">
                  <table class="hl7__eu__lab__report">
                     <tr>
                        <th>Test</th>
                        <th>30-Nov-2024</th>
                        <th>Reference Range</th>
                        <th>Unit</th>
                     </tr>
                     <tr>
                        <td>Urea nitrogen [Mass/volume] in Blood</td>
                        <td>15.0</td>
                        <td>7 - 25</td>
                        <td/>
                        <td>mg/dL</td>
                     </tr>
                  </table>
               </div>
            </text>
            <status value="final"/>
            <category>
               <coding>
                  <system value="http://terminology.hl7.org/CodeSystem/observation-category"/>
                  <code value="laboratory"/>
               </coding>
            </category>
            <code>
               <coding>
                  <system value="http://loinc.org"/>
                  <code value="6299-2"/>
                  <display value="Urea nitrogen [Mass/volume] in Blood"/>
               </coding>
               <text value="Urea nitrogen [Mass/volume] in Blood"/>
            </code>
            <subject>
               <reference value="urn:uuid:356b1a6a-4cfc-485b-876d-1814cf62fb15"/>
               <display value="Helene Andresen"/>
            </subject>
            <effectiveDateTime value="2024-11-30T22:53:36Z"/>
            <performer>
               <display value="The Central European Lab"/>
            </performer>
            <valueQuantity>
               <value value="15"/>
               <unit value="mg/dL"/>
               <system value="http://unitsofmeasure.org"/>
               <code value="mg/dL"/>
            </valueQuantity>
            <referenceRange>
               <low>
                  <value value="7"/>
                  <system value="http://unitsofmeasure.org"/>
                  <code value="mg/dL"/>
               </low>
            </referenceRange>
            <referenceRange>
               <high>
                  <value value="25"/>
                  <system value="http://unitsofmeasure.org"/>
                  <code value="mg/dL"/>
               </high>
            </referenceRange>
         </Observation>
      </resource>
   </entry>
   <entry>
      <fullUrl value="urn:uuid:034f21b0-9870-4797-98b6-9429b9de5178"/>
      <resource>
         <Observation>
            <id value="034f21b0-9870-4797-98b6-9429b9de5178"/>
            <meta>
               <profile value="http://hl7.eu/fhir/laboratory/StructureDefinition/Observation-resultslab-eu-lab"/>
            </meta>
            <text>
               <status value="generated"/>
               <div xmlns="http://www.w3.org/1999/xhtml">
                  <table class="hl7__eu__lab__report">
                     <tr>
                        <th>Test</th>
                        <th>30-Nov-2024</th>
                        <th>Reference Range</th>
                        <th>Unit</th>
                     </tr>
                     <tr>
                        <td>Creatinine [Mass/volume] in Blood</td>
                        <td>2.7</td>
                        <td>0.6 - 1.1</td>
                        <td>H</td>
                        <td>mg/dL</td>
                     </tr>
                  </table>
               </div>
            </text>
            <status value="final"/>
            <category>
               <coding>
                  <system value="http://terminology.hl7.org/CodeSystem/observation-category"/>
                  <code value="laboratory"/>
               </coding>
            </category>
            <code>
               <coding>
                  <system value="http://loinc.org"/>
                  <code value="38483-4"/>
                  <display value="Creatinine [Mass/volume] in Blood"/>
               </coding>
               <text value="Creatinine [Mass/volume] in Blood"/>
            </code>
            <subject>
               <reference value="urn:uuid:356b1a6a-4cfc-485b-876d-1814cf62fb15"/>
               <display value="Helene Andresen"/>
            </subject>
            <effectiveDateTime value="2024-11-30T22:53:36Z"/>
            <performer>
               <display value="The Central European Lab"/>
            </performer>
            <valueQuantity>
               <value value="2.7"/>
               <unit value="mg/dL"/>
               <system value="http://unitsofmeasure.org"/>
               <code value="mg/dL"/>
            </valueQuantity>
            <interpretation>
               <coding>
                  <system value="http://terminology.hl7.org/CodeSystem/v3-ObservationInterpretation"/>
                  <code value="H"/>
                  <display value="High"/>
               </coding>
            </interpretation>
            <referenceRange>
               <low>
                  <value value="0.6"/>
                  <system value="http://unitsofmeasure.org"/>
                  <code value="mg/dL"/>
               </low>
            </referenceRange>
            <referenceRange>
               <high>
                  <value value="1.1"/>
                  <system value="http://unitsofmeasure.org"/>
                  <code value="mg/dL"/>
               </high>
            </referenceRange>
         </Observation>
      </resource>
   </entry>
   <entry>
      <fullUrl value="urn:uuid:5b8ada2f-d57d-47a9-8951-685e7cc86fc2"/>
      <resource>
         <Observation>
            <id value="5b8ada2f-d57d-47a9-8951-685e7cc86fc2"/>
            <meta>
               <profile value="http://hl7.eu/fhir/laboratory/StructureDefinition/Observation-resultslab-eu-lab"/>
            </meta>
            <text>
               <status value="generated"/>
               <div xmlns="http://www.w3.org/1999/xhtml">
                  <table class="hl7__eu__lab__report">
                     <tr>
                        <th>Test</th>
                        <th>30-Nov-2024</th>
                        <th>Reference Range</th>
                        <th>Unit</th>
                     </tr>
                     <tr>
                        <td>Calcium [Mass/volume] in Blood</td>
                        <td>8.6</td>
                        <td>8.6 - 10.4</td>
                        <td/>
                        <td>mg/dL</td>
                     </tr>
                  </table>
               </div>
            </text>
            <status value="final"/>
            <category>
               <coding>
                  <system value="http://terminology.hl7.org/CodeSystem/observation-category"/>
                  <code value="laboratory"/>
               </coding>
            </category>
            <code>
               <coding>
                  <system value="http://loinc.org"/>
                  <code value="49765-1"/>
                  <display value="Calcium [Mass/volume] in Blood"/>
               </coding>
               <text value="Calcium [Mass/volume] in Blood"/>
            </code>
            <subject>
               <reference value="urn:uuid:356b1a6a-4cfc-485b-876d-1814cf62fb15"/>
               <display value="Helene Andresen"/>
            </subject>
            <effectiveDateTime value="2024-11-30T22:53:36Z"/>
            <performer>
               <display value="The Central European Lab"/>
            </performer>
            <valueQuantity>
               <value value="8.6"/>
               <unit value="mg/dL"/>
               <system value="http://unitsofmeasure.org"/>
               <code value="mg/dL"/>
            </valueQuantity>
            <referenceRange>
               <low>
                  <value value="8.6"/>
                  <system value="http://unitsofmeasure.org"/>
                  <code value="mg/dL"/>
               </low>
            </referenceRange>
            <referenceRange>
               <high>
                  <value value="10.4"/>
                  <system value="http://unitsofmeasure.org"/>
                  <code value="mg/dL"/>
               </high>
            </referenceRange>
         </Observation>
      </resource>
   </entry>
   <entry>
      <fullUrl value="urn:uuid:2c2a6c49-d26a-4547-9af0-d66e3f95a73b"/>
      <resource>
         <Observation>
            <id value="2c2a6c49-d26a-4547-9af0-d66e3f95a73b"/>
            <meta>
               <profile value="http://hl7.eu/fhir/laboratory/StructureDefinition/Observation-resultslab-eu-lab"/>
            </meta>
            <text>
               <status value="generated"/>
               <div xmlns="http://www.w3.org/1999/xhtml">
                  <table class="hl7__eu__lab__report">
                     <tr>
                        <th>Test</th>
                        <th>30-Nov-2024</th>
                        <th>Reference Range</th>
                        <th>Unit</th>
                     </tr>
                     <tr>
                        <td>Sodium [Moles/volume] in Blood</td>
                        <td>142.2</td>
                        <td>135 - 145</td>
                        <td/>
                        <td>mmol/L</td>
                     </tr>
                  </table>
               </div>
            </text>
            <status value="final"/>
            <category>
               <coding>
                  <system value="http://terminology.hl7.org/CodeSystem/observation-category"/>
                  <code value="laboratory"/>
               </coding>
            </category>
            <code>
               <coding>
                  <system value="http://loinc.org"/>
                  <code value="2947-0"/>
                  <display value="Sodium [Moles/volume] in Blood"/>
               </coding>
               <text value="Sodium [Moles/volume] in Blood"/>
            </code>
            <subject>
               <reference value="urn:uuid:356b1a6a-4cfc-485b-876d-1814cf62fb15"/>
               <display value="Helene Andresen"/>
            </subject>
            <effectiveDateTime value="2024-11-30T22:53:36Z"/>
            <performer>
               <display value="The Central European Lab"/>
            </performer>
            <valueQuantity>
               <value value="142.2"/>
               <unit value="mmol/L"/>
               <system value="http://unitsofmeasure.org"/>
               <code value="mmol/L"/>
            </valueQuantity>
            <referenceRange>
               <low>
                  <value value="135"/>
                  <system value="http://unitsofmeasure.org"/>
                  <code value="mmol/L"/>
               </low>
            </referenceRange>
            <referenceRange>
               <high>
                  <value value="145"/>
                  <system value="http://unitsofmeasure.org"/>
                  <code value="mmol/L"/>
               </high>
            </referenceRange>
         </Observation>
      </resource>
   </entry>
   <entry>
      <fullUrl value="urn:uuid:524c5add-0e3b-4457-b724-2b6ea2d4724d"/>
      <resource>
         <Observation>
            <id value="524c5add-0e3b-4457-b724-2b6ea2d4724d"/>
            <meta>
               <profile value="http://hl7.eu/fhir/laboratory/StructureDefinition/Observation-resultslab-eu-lab"/>
            </meta>
            <text>
               <status value="generated"/>
               <div xmlns="http://www.w3.org/1999/xhtml">
                  <table class="hl7__eu__lab__report">
                     <tr>
                        <th>Test</th>
                        <th>30-Nov-2024</th>
                        <th>Reference Range</th>
                        <th>Unit</th>
                     </tr>
                     <tr>
                        <td>Potassium [Moles/volume] in Blood</td>
                        <td>5.0</td>
                        <td>3.5 - 5.3</td>
                        <td/>
                        <td>mmol/L</td>
                     </tr>
                  </table>
               </div>
            </text>
            <status value="final"/>
            <category>
               <coding>
                  <system value="http://terminology.hl7.org/CodeSystem/observation-category"/>
                  <code value="laboratory"/>
               </coding>
            </category>
            <code>
               <coding>
                  <system value="http://loinc.org"/>
                  <code value="6298-4"/>
                  <display value="Potassium [Moles/volume] in Blood"/>
               </coding>
               <text value="Potassium [Moles/volume] in Blood"/>
            </code>
            <subject>
               <reference value="urn:uuid:356b1a6a-4cfc-485b-876d-1814cf62fb15"/>
               <display value="Helene Andresen"/>
            </subject>
            <effectiveDateTime value="2024-11-30T22:53:36Z"/>
            <performer>
               <display value="The Central European Lab"/>
            </performer>
            <valueQuantity>
               <value value="5"/>
               <unit value="mmol/L"/>
               <system value="http://unitsofmeasure.org"/>
               <code value="mmol/L"/>
            </valueQuantity>
            <referenceRange>
               <low>
                  <value value="3.5"/>
                  <system value="http://unitsofmeasure.org"/>
                  <code value="mmol/L"/>
               </low>
            </referenceRange>
            <referenceRange>
               <high>
                  <value value="5.3"/>
                  <system value="http://unitsofmeasure.org"/>
                  <code value="mmol/L"/>
               </high>
            </referenceRange>
         </Observation>
      </resource>
   </entry>
   <entry>
      <fullUrl value="urn:uuid:7bb9dc9c-c86a-453f-87e5-910874879708"/>
      <resource>
         <Observation>
            <id value="7bb9dc9c-c86a-453f-87e5-910874879708"/>
            <meta>
               <profile value="http://hl7.eu/fhir/laboratory/StructureDefinition/Observation-resultslab-eu-lab"/>
            </meta>
            <text>
               <status value="generated"/>
               <div xmlns="http://www.w3.org/1999/xhtml">
                  <table class="hl7__eu__lab__report">
                     <tr>
                        <th>Test</th>
                        <th>30-Nov-2024</th>
                        <th>Reference Range</th>
                        <th>Unit</th>
                     </tr>
                     <tr>
                        <td>Chloride [Moles/volume] in Blood</td>
                        <td>106.8</td>
                        <td>98 - 108</td>
                        <td/>
                        <td>mmol/L</td>
                     </tr>
                  </table>
               </div>
            </text>
            <status value="final"/>
            <category>
               <coding>
                  <system value="http://terminology.hl7.org/CodeSystem/observation-category"/>
                  <code value="laboratory"/>
               </coding>
            </category>
            <code>
               <coding>
                  <system value="http://loinc.org"/>
                  <code value="2069-3"/>
                  <display value="Chloride [Moles/volume] in Blood"/>
               </coding>
               <text value="Chloride [Moles/volume] in Blood"/>
            </code>
            <subject>
               <reference value="urn:uuid:356b1a6a-4cfc-485b-876d-1814cf62fb15"/>
               <display value="Helene Andresen"/>
            </subject>
            <effectiveDateTime value="2024-11-30T22:53:36Z"/>
            <performer>
               <display value="The Central European Lab"/>
            </performer>
            <valueQuantity>
               <value value="106.8"/>
               <unit value="mmol/L"/>
               <system value="http://unitsofmeasure.org"/>
               <code value="mmol/L"/>
            </valueQuantity>
            <referenceRange>
               <low>
                  <value value="98"/>
                  <system value="http://unitsofmeasure.org"/>
                  <code value="mmol/L"/>
               </low>
            </referenceRange>
            <referenceRange>
               <high>
                  <value value="108"/>
                  <system value="http://unitsofmeasure.org"/>
                  <code value="mmol/L"/>
               </high>
            </referenceRange>
         </Observation>
      </resource>
   </entry>
   <entry>
      <fullUrl value="urn:uuid:7c709279-9486-4b78-91c0-05b26e8615a7"/>
      <resource>
         <Observation>
            <id value="7c709279-9486-4b78-91c0-05b26e8615a7"/>
            <meta>
               <profile value="http://hl7.eu/fhir/laboratory/StructureDefinition/Observation-resultslab-eu-lab"/>
            </meta>
            <text>
               <status value="generated"/>
               <div xmlns="http://www.w3.org/1999/xhtml">
                  <table class="hl7__eu__lab__report">
                     <tr>
                        <th>Test</th>
                        <th>30-Nov-2024</th>
                        <th>Reference Range</th>
                        <th>Unit</th>
                     </tr>
                     <tr>
                        <td>Carbon dioxide, total [Moles/volume] in Blood</td>
                        <td>20.6</td>
                        <td>22 - 32</td>
                        <td>L</td>
                        <td>mmol/L</td>
                     </tr>
                  </table>
               </div>
            </text>
            <status value="final"/>
            <category>
               <coding>
                  <system value="http://terminology.hl7.org/CodeSystem/observation-category"/>
                  <code value="laboratory"/>
               </coding>
            </category>
            <code>
               <coding>
                  <system value="http://loinc.org"/>
                  <code value="20565-8"/>
                  <display value="Carbon dioxide, total [Moles/volume] in Blood"/>
               </coding>
               <text value="Carbon dioxide, total [Moles/volume] in Blood"/>
            </code>
            <subject>
               <reference value="urn:uuid:356b1a6a-4cfc-485b-876d-1814cf62fb15"/>
               <display value="Helene Andresen"/>
            </subject>
            <effectiveDateTime value="2024-11-30T22:53:36Z"/>
            <performer>
               <display value="The Central European Lab"/>
            </performer>
            <valueQuantity>
               <value value="20.6"/>
               <unit value="mmol/L"/>
               <system value="http://unitsofmeasure.org"/>
               <code value="mmol/L"/>
            </valueQuantity>
            <interpretation>
               <coding>
                  <system value="http://terminology.hl7.org/CodeSystem/v3-ObservationInterpretation"/>
                  <code value="L"/>
                  <display value="Low"/>
               </coding>
            </interpretation>
            <referenceRange>
               <low>
                  <value value="22"/>
                  <system value="http://unitsofmeasure.org"/>
                  <code value="mmol/L"/>
               </low>
            </referenceRange>
            <referenceRange>
               <high>
                  <value value="32"/>
                  <system value="http://unitsofmeasure.org"/>
                  <code value="mmol/L"/>
               </high>
            </referenceRange>
         </Observation>
      </resource>
   </entry>
   <entry>
      <fullUrl value="urn:uuid:4119660f-2bd5-4442-ae0e-84f5e4629b24"/>
      <resource>
         <Observation>
            <id value="4119660f-2bd5-4442-ae0e-84f5e4629b24"/>
            <meta>
               <profile value="http://hl7.eu/fhir/laboratory/StructureDefinition/Observation-resultslab-eu-lab"/>
            </meta>
            <text>
               <status value="generated"/>
               <div xmlns="http://www.w3.org/1999/xhtml">
                  <table class="hl7__eu__lab__report">
                     <tr>
                        <th>Test</th>
                        <th>30-Nov-2024</th>
                        <th>Reference Range</th>
                        <th>Unit</th>
                     </tr>
                     <tr>
                        <td>Protein [Mass/volume] in Serum or Plasma</td>
                        <td>6.7</td>
                        <td>6.6 - 8.3</td>
                        <td/>
                        <td>g/dL</td>
                     </tr>
                  </table>
               </div>
            </text>
            <status value="final"/>
            <category>
               <coding>
                  <system value="http://terminology.hl7.org/CodeSystem/observation-category"/>
                  <code value="laboratory"/>
               </coding>
            </category>
            <code>
               <coding>
                  <system value="http://loinc.org"/>
                  <code value="2885-2"/>
                  <display value="Protein [Mass/volume] in Serum or Plasma"/>
               </coding>
               <text value="Protein [Mass/volume] in Serum or Plasma"/>
            </code>
            <subject>
               <reference value="urn:uuid:356b1a6a-4cfc-485b-876d-1814cf62fb15"/>
               <display value="Helene Andresen"/>
            </subject>
            <effectiveDateTime value="2024-11-30T22:53:36Z"/>
            <performer>
               <display value="The Central European Lab"/>
            </performer>
            <valueQuantity>
               <value value="6.7"/>
               <unit value="g/dL"/>
               <system value="http://unitsofmeasure.org"/>
               <code value="g/dL"/>
            </valueQuantity>
            <referenceRange>
               <low>
                  <value value="6.6"/>
                  <system value="http://unitsofmeasure.org"/>
                  <code value="g/dL"/>
               </low>
            </referenceRange>
            <referenceRange>
               <high>
                  <value value="8.3"/>
                  <system value="http://unitsofmeasure.org"/>
                  <code value="g/dL"/>
               </high>
            </referenceRange>
         </Observation>
      </resource>
   </entry>
   <entry>
      <fullUrl value="urn:uuid:a0a2ba53-7382-41a7-a6da-135e4440b090"/>
      <resource>
         <Observation>
            <id value="a0a2ba53-7382-41a7-a6da-135e4440b090"/>
            <meta>
               <profile value="http://hl7.eu/fhir/laboratory/StructureDefinition/Observation-resultslab-eu-lab"/>
            </meta>
            <text>
               <status value="generated"/>
               <div xmlns="http://www.w3.org/1999/xhtml">
                  <table class="hl7__eu__lab__report">
                     <tr>
                        <th>Test</th>
                        <th>30-Nov-2024</th>
                        <th>Reference Range</th>
                        <th>Unit</th>
                     </tr>
                     <tr>
                        <td>Albumin [Mass/volume] in Serum or Plasma</td>
                        <td>4.0</td>
                        <td>3.5 - 5.5</td>
                        <td/>
                        <td>g/dL</td>
                     </tr>
                  </table>
               </div>
            </text>
            <status value="final"/>
            <category>
               <coding>
                  <system value="http://terminology.hl7.org/CodeSystem/observation-category"/>
                  <code value="laboratory"/>
               </coding>
            </category>
            <code>
               <coding>
                  <system value="http://loinc.org"/>
                  <code value="1751-7"/>
                  <display value="Albumin [Mass/volume] in Serum or Plasma"/>
               </coding>
               <text value="Albumin [Mass/volume] in Serum or Plasma"/>
            </code>
            <subject>
               <reference value="urn:uuid:356b1a6a-4cfc-485b-876d-1814cf62fb15"/>
               <display value="Helene Andresen"/>
            </subject>
            <effectiveDateTime value="2024-11-30T22:53:36Z"/>
            <performer>
               <display value="The Central European Lab"/>
            </performer>
            <valueQuantity>
               <value value="4"/>
               <unit value="g/dL"/>
               <system value="http://unitsofmeasure.org"/>
               <code value="g/dL"/>
            </valueQuantity>
            <referenceRange>
               <low>
                  <value value="3.5"/>
                  <system value="http://unitsofmeasure.org"/>
                  <code value="g/dL"/>
               </low>
            </referenceRange>
            <referenceRange>
               <high>
                  <value value="5.5"/>
                  <system value="http://unitsofmeasure.org"/>
                  <code value="g/dL"/>
               </high>
            </referenceRange>
         </Observation>
      </resource>
   </entry>
   <entry>
      <fullUrl value="urn:uuid:9f523797-f94f-4500-93a0-a5e33c64045e"/>
      <resource>
         <Observation>
            <id value="9f523797-f94f-4500-93a0-a5e33c64045e"/>
            <meta>
               <profile value="http://hl7.eu/fhir/laboratory/StructureDefinition/Observation-resultslab-eu-lab"/>
            </meta>
            <text>
               <status value="generated"/>
               <div xmlns="http://www.w3.org/1999/xhtml">
                  <table class="hl7__eu__lab__report">
                     <tr>
                        <th>Test</th>
                        <th>30-Nov-2024</th>
                        <th>Reference Range</th>
                        <th>Unit</th>
                     </tr>
                     <tr>
                        <td>Globulin [Mass/volume] in Serum by calculation</td>
                        <td>2.2</td>
                        <td>2.2 - 3.7</td>
                        <td/>
                        <td>g/L</td>
                     </tr>
                  </table>
               </div>
            </text>
            <status value="final"/>
            <category>
               <coding>
                  <system value="http://terminology.hl7.org/CodeSystem/observation-category"/>
                  <code value="laboratory"/>
               </coding>
            </category>
            <code>
               <coding>
                  <system value="http://loinc.org"/>
                  <code value="10834-0"/>
                  <display value="Globulin [Mass/volume] in Serum by calculation"/>
               </coding>
               <text value="Globulin [Mass/volume] in Serum by calculation"/>
            </code>
            <subject>
               <reference value="urn:uuid:356b1a6a-4cfc-485b-876d-1814cf62fb15"/>
               <display value="Helene Andresen"/>
            </subject>
            <effectiveDateTime value="2024-11-30T22:53:36Z"/>
            <performer>
               <display value="The Central European Lab"/>
            </performer>
            <valueQuantity>
               <value value="2.2"/>
               <unit value="g/L"/>
               <system value="http://unitsofmeasure.org"/>
               <code value="g/L"/>
            </valueQuantity>
            <referenceRange>
               <low>
                  <value value="2.2"/>
                  <system value="http://unitsofmeasure.org"/>
                  <code value="g/L"/>
               </low>
            </referenceRange>
            <referenceRange>
               <high>
                  <value value="3.7"/>
                  <system value="http://unitsofmeasure.org"/>
                  <code value="g/L"/>
               </high>
            </referenceRange>
         </Observation>
      </resource>
   </entry>
   <entry>
      <fullUrl value="urn:uuid:8430b955-1d04-4bd0-87bc-e73d15d36c3d"/>
      <resource>
         <Observation>
            <id value="8430b955-1d04-4bd0-87bc-e73d15d36c3d"/>
            <meta>
               <profile value="http://hl7.eu/fhir/laboratory/StructureDefinition/Observation-resultslab-eu-lab"/>
            </meta>
            <text>
               <status value="generated"/>
               <div xmlns="http://www.w3.org/1999/xhtml">
                  <table class="hl7__eu__lab__report">
                     <tr>
                        <th>Test</th>
                        <th>30-Nov-2024</th>
                        <th>Reference Range</th>
                        <th>Unit</th>
                     </tr>
                     <tr>
                        <td>Bilirubin.total [Mass/volume] in Serum or Plasma</td>
                        <td>0.3</td>
                        <td>0.3 - 1.2</td>
                        <td/>
                        <td>mg/dL</td>
                     </tr>
                  </table>
               </div>
            </text>
            <status value="final"/>
            <category>
               <coding>
                  <system value="http://terminology.hl7.org/CodeSystem/observation-category"/>
                  <code value="laboratory"/>
               </coding>
            </category>
            <code>
               <coding>
                  <system value="http://loinc.org"/>
                  <code value="1975-2"/>
                  <display value="Bilirubin.total [Mass/volume] in Serum or Plasma"/>
               </coding>
               <text value="Bilirubin.total [Mass/volume] in Serum or Plasma"/>
            </code>
            <subject>
               <reference value="urn:uuid:356b1a6a-4cfc-485b-876d-1814cf62fb15"/>
               <display value="Helene Andresen"/>
            </subject>
            <effectiveDateTime value="2024-11-30T22:53:36Z"/>
            <performer>
               <display value="The Central European Lab"/>
            </performer>
            <valueQuantity>
               <value value="0.3"/>
               <unit value="mg/dL"/>
               <system value="http://unitsofmeasure.org"/>
               <code value="mg/dL"/>
            </valueQuantity>
            <referenceRange>
               <low>
                  <value value="0.3"/>
                  <system value="http://unitsofmeasure.org"/>
                  <code value="mg/dL"/>
               </low>
            </referenceRange>
            <referenceRange>
               <high>
                  <value value="1.2"/>
                  <system value="http://unitsofmeasure.org"/>
                  <code value="mg/dL"/>
               </high>
            </referenceRange>
         </Observation>
      </resource>
   </entry>
   <entry>
      <fullUrl value="urn:uuid:abe1082d-9520-4ef4-a660-925e554e3af0"/>
      <resource>
         <Observation>
            <id value="abe1082d-9520-4ef4-a660-925e554e3af0"/>
            <meta>
               <profile value="http://hl7.eu/fhir/laboratory/StructureDefinition/Observation-resultslab-eu-lab"/>
            </meta>
            <text>
               <status value="generated"/>
               <div xmlns="http://www.w3.org/1999/xhtml">
                  <table class="hl7__eu__lab__report">
                     <tr>
                        <th>Test</th>
                        <th>30-Nov-2024</th>
                        <th>Reference Range</th>
                        <th>Unit</th>
                     </tr>
                     <tr>
                        <td>Alkaline phosphatase [Enzymatic activity/volume] in Serum or Plasma</td>
                        <td>44.6</td>
                        <td>40 - 130</td>
                        <td/>
                        <td>U/L</td>
                     </tr>
                  </table>
               </div>
            </text>
            <status value="final"/>
            <category>
               <coding>
                  <system value="http://terminology.hl7.org/CodeSystem/observation-category"/>
                  <code value="laboratory"/>
               </coding>
            </category>
            <code>
               <coding>
                  <system value="http://loinc.org"/>
                  <code value="6768-6"/>
                  <display value="Alkaline phosphatase [Enzymatic activity/volume] in Serum or Plasma"/>
               </coding>
               <text value="Alkaline phosphatase [Enzymatic activity/volume] in Serum or Plasma"/>
            </code>
            <subject>
               <reference value="urn:uuid:356b1a6a-4cfc-485b-876d-1814cf62fb15"/>
               <display value="Helene Andresen"/>
            </subject>
            <effectiveDateTime value="2024-11-30T22:53:36Z"/>
            <performer>
               <display value="The Central European Lab"/>
            </performer>
            <valueQuantity>
               <value value="44.6"/>
               <unit value="U/L"/>
               <system value="http://unitsofmeasure.org"/>
               <code value="U/L"/>
            </valueQuantity>
            <referenceRange>
               <low>
                  <value value="40"/>
                  <system value="http://unitsofmeasure.org"/>
                  <code value="U/L"/>
               </low>
            </referenceRange>
            <referenceRange>
               <high>
                  <value value="130"/>
                  <system value="http://unitsofmeasure.org"/>
                  <code value="U/L"/>
               </high>
            </referenceRange>
         </Observation>
      </resource>
   </entry>
   <entry>
      <fullUrl value="urn:uuid:17711978-5960-44cc-82a1-50c91bd0ab45"/>
      <resource>
         <Observation>
            <id value="17711978-5960-44cc-82a1-50c91bd0ab45"/>
            <meta>
               <profile value="http://hl7.eu/fhir/laboratory/StructureDefinition/Observation-resultslab-eu-lab"/>
            </meta>
            <text>
               <status value="generated"/>
               <div xmlns="http://www.w3.org/1999/xhtml">
                  <table class="hl7__eu__lab__report">
                     <tr>
                        <th>Test</th>
                        <th>30-Nov-2024</th>
                        <th>Reference Range</th>
                        <th>Unit</th>
                     </tr>
                     <tr>
                        <td>Alanine aminotransferase [Enzymatic activity/volume] in Serum or Plasma</td>
                        <td>43.4</td>
                        <td>7 - 55</td>
                        <td/>
                        <td>U/L</td>
                     </tr>
                  </table>
               </div>
            </text>
            <status value="final"/>
            <category>
               <coding>
                  <system value="http://terminology.hl7.org/CodeSystem/observation-category"/>
                  <code value="laboratory"/>
               </coding>
            </category>
            <code>
               <coding>
                  <system value="http://loinc.org"/>
                  <code value="1742-6"/>
                  <display value="Alanine aminotransferase [Enzymatic activity/volume] in Serum or Plasma"/>
               </coding>
               <text value="Alanine aminotransferase [Enzymatic activity/volume] in Serum or Plasma"/>
            </code>
            <subject>
               <reference value="urn:uuid:356b1a6a-4cfc-485b-876d-1814cf62fb15"/>
               <display value="Helene Andresen"/>
            </subject>
            <effectiveDateTime value="2024-11-30T22:53:36Z"/>
            <performer>
               <display value="The Central European Lab"/>
            </performer>
            <valueQuantity>
               <value value="43.4"/>
               <unit value="U/L"/>
               <system value="http://unitsofmeasure.org"/>
               <code value="U/L"/>
            </valueQuantity>
            <referenceRange>
               <low>
                  <value value="7"/>
                  <system value="http://unitsofmeasure.org"/>
                  <code value="U/L"/>
               </low>
            </referenceRange>
            <referenceRange>
               <high>
                  <value value="55"/>
                  <system value="http://unitsofmeasure.org"/>
                  <code value="U/L"/>
               </high>
            </referenceRange>
         </Observation>
      </resource>
   </entry>
   <entry>
      <fullUrl value="urn:uuid:6cd2dce2-5028-4344-b263-37f67ac38400"/>
      <resource>
         <Observation>
            <id value="6cd2dce2-5028-4344-b263-37f67ac38400"/>
            <meta>
               <profile value="http://hl7.eu/fhir/laboratory/StructureDefinition/Observation-resultslab-eu-lab"/>
            </meta>
            <text>
               <status value="generated"/>
               <div xmlns="http://www.w3.org/1999/xhtml">
                  <table class="hl7__eu__lab__report">
                     <tr>
                        <th>Test</th>
                        <th>30-Nov-2024</th>
                        <th>Reference Range</th>
                        <th>Unit</th>
                     </tr>
                     <tr>
                        <td>Aspartate aminotransferase [Enzymatic activity/volume] in Serum or Plasma</td>
                        <td>15.6</td>
                        <td>10 - 40</td>
                        <td/>
                        <td>U/L</td>
                     </tr>
                  </table>
               </div>
            </text>
            <status value="final"/>
            <category>
               <coding>
                  <system value="http://terminology.hl7.org/CodeSystem/observation-category"/>
                  <code value="laboratory"/>
               </coding>
            </category>
            <code>
               <coding>
                  <system value="http://loinc.org"/>
                  <code value="1920-8"/>
                  <display value="Aspartate aminotransferase [Enzymatic activity/volume] in Serum or Plasma"/>
               </coding>
               <text value="Aspartate aminotransferase [Enzymatic activity/volume] in Serum or Plasma"/>
            </code>
            <subject>
               <reference value="urn:uuid:356b1a6a-4cfc-485b-876d-1814cf62fb15"/>
               <display value="Helene Andresen"/>
            </subject>
            <effectiveDateTime value="2024-11-30T22:53:36Z"/>
            <performer>
               <display value="The Central European Lab"/>
            </performer>
            <valueQuantity>
               <value value="15.6"/>
               <unit value="U/L"/>
               <system value="http://unitsofmeasure.org"/>
               <code value="U/L"/>
            </valueQuantity>
            <referenceRange>
               <low>
                  <value value="10"/>
                  <system value="http://unitsofmeasure.org"/>
                  <code value="U/L"/>
               </low>
            </referenceRange>
            <referenceRange>
               <high>
                  <value value="40"/>
                  <system value="http://unitsofmeasure.org"/>
                  <code value="U/L"/>
               </high>
            </referenceRange>
         </Observation>
      </resource>
   </entry>
   <entry>
      <fullUrl value="urn:uuid:4da3a01d-b5d1-440a-950e-c642070e7066"/>
      <resource>
         <Observation>
            <id value="4da3a01d-b5d1-440a-950e-c642070e7066"/>
            <meta>
               <profile value="http://hl7.eu/fhir/laboratory/StructureDefinition/Observation-resultslab-eu-lab"/>
            </meta>
            <text>
               <status value="generated"/>
               <div xmlns="http://www.w3.org/1999/xhtml">
                  <table class="hl7__eu__lab__report">
                     <tr>
                        <th>Test</th>
                        <th>30-Nov-2024</th>
                        <th>Reference Range</th>
                        <th>Unit</th>
                     </tr>
                     <tr>
                        <td>Cholesterol [Mass/volume] in Serum or Plasma</td>
                        <td>204.8</td>
                        <td>125 - 200</td>
                        <td>H</td>
                        <td>mg/dL</td>
                     </tr>
                  </table>
               </div>
            </text>
            <status value="final"/>
            <category>
               <coding>
                  <system value="http://terminology.hl7.org/CodeSystem/observation-category"/>
                  <code value="laboratory"/>
               </coding>
            </category>
            <code>
               <coding>
                  <system value="http://loinc.org"/>
                  <code value="2093-3"/>
                  <display value="Cholesterol [Mass/volume] in Serum or Plasma"/>
               </coding>
               <text value="Cholesterol [Mass/volume] in Serum or Plasma"/>
            </code>
            <subject>
               <reference value="urn:uuid:356b1a6a-4cfc-485b-876d-1814cf62fb15"/>
               <display value="Helene Andresen"/>
            </subject>
            <effectiveDateTime value="2024-11-30T22:53:36Z"/>
            <performer>
               <display value="The Central European Lab"/>
            </performer>
            <valueQuantity>
               <value value="204.8"/>
               <unit value="mg/dL"/>
               <system value="http://unitsofmeasure.org"/>
               <code value="mg/dL"/>
            </valueQuantity>
            <interpretation>
               <coding>
                  <system value="http://terminology.hl7.org/CodeSystem/v3-ObservationInterpretation"/>
                  <code value="H"/>
                  <display value="High"/>
               </coding>
            </interpretation>
            <referenceRange>
               <low>
                  <value value="125"/>
                  <system value="http://unitsofmeasure.org"/>
                  <code value="mg/dL"/>
               </low>
            </referenceRange>
            <referenceRange>
               <high>
                  <value value="200"/>
                  <system value="http://unitsofmeasure.org"/>
                  <code value="mg/dL"/>
               </high>
            </referenceRange>
         </Observation>
      </resource>
   </entry>
   <entry>
      <fullUrl value="urn:uuid:c816cd2e-3c09-41bb-a0b1-f261846d0aec"/>
      <resource>
         <Observation>
            <id value="c816cd2e-3c09-41bb-a0b1-f261846d0aec"/>
            <meta>
               <profile value="http://hl7.eu/fhir/laboratory/StructureDefinition/Observation-resultslab-eu-lab"/>
            </meta>
            <text>
               <status value="generated"/>
               <div xmlns="http://www.w3.org/1999/xhtml">
                  <table class="hl7__eu__lab__report">
                     <tr>
                        <th>Test</th>
                        <th>30-Nov-2024</th>
                        <th>Reference Range</th>
                        <th>Unit</th>
                     </tr>
                     <tr>
                        <td>Triglyceride [Mass/volume] in Serum or Plasma</td>
                        <td>151.8</td>
                        <td>10 - 175</td>
                        <td/>
                        <td>mg/dL</td>
                     </tr>
                  </table>
               </div>
            </text>
            <status value="final"/>
            <category>
               <coding>
                  <system value="http://terminology.hl7.org/CodeSystem/observation-category"/>
                  <code value="laboratory"/>
               </coding>
            </category>
            <code>
               <coding>
                  <system value="http://loinc.org"/>
                  <code value="2571-8"/>
                  <display value="Triglyceride [Mass/volume] in Serum or Plasma"/>
               </coding>
               <text value="Triglyceride [Mass/volume] in Serum or Plasma"/>
            </code>
            <subject>
               <reference value="urn:uuid:356b1a6a-4cfc-485b-876d-1814cf62fb15"/>
               <display value="Helene Andresen"/>
            </subject>
            <effectiveDateTime value="2024-11-30T22:53:36Z"/>
            <performer>
               <display value="The Central European Lab"/>
            </performer>
            <valueQuantity>
               <value value="151.8"/>
               <unit value="mg/dL"/>
               <system value="http://unitsofmeasure.org"/>
               <code value="mg/dL"/>
            </valueQuantity>
            <referenceRange>
               <low>
                  <value value="10"/>
                  <system value="http://unitsofmeasure.org"/>
                  <code value="mg/dL"/>
               </low>
            </referenceRange>
            <referenceRange>
               <high>
                  <value value="175"/>
                  <system value="http://unitsofmeasure.org"/>
                  <code value="mg/dL"/>
               </high>
            </referenceRange>
         </Observation>
      </resource>
   </entry>
   <entry>
      <fullUrl value="urn:uuid:71c5b2ee-be2b-4485-842f-78182030c621"/>
      <resource>
         <Observation>
            <id value="71c5b2ee-be2b-4485-842f-78182030c621"/>
            <meta>
               <profile value="http://hl7.eu/fhir/laboratory/StructureDefinition/Observation-resultslab-eu-lab"/>
            </meta>
            <text>
               <status value="generated"/>
               <div xmlns="http://www.w3.org/1999/xhtml">
                  <table class="hl7__eu__lab__report">
                     <tr>
                        <th>Test</th>
                        <th>30-Nov-2024</th>
                        <th>Reference Range</th>
                        <th>Unit</th>
                     </tr>
                     <tr>
                        <td>Cholesterol in LDL [Mass/volume] in Serum or Plasma by Direct assay</td>
                        <td>100.8</td>
                        <td>0 - 130</td>
                        <td/>
                        <td>mg/dL</td>
                     </tr>
                  </table>
               </div>
            </text>
            <status value="final"/>
            <category>
               <coding>
                  <system value="http://terminology.hl7.org/CodeSystem/observation-category"/>
                  <code value="laboratory"/>
               </coding>
            </category>
            <code>
               <coding>
                  <system value="http://loinc.org"/>
                  <code value="18262-6"/>
                  <display value="Cholesterol in LDL [Mass/volume] in Serum or Plasma by Direct assay"/>
               </coding>
               <text value="Cholesterol in LDL [Mass/volume] in Serum or Plasma by Direct assay"/>
            </code>
            <subject>
               <reference value="urn:uuid:356b1a6a-4cfc-485b-876d-1814cf62fb15"/>
               <display value="Helene Andresen"/>
            </subject>
            <effectiveDateTime value="2024-11-30T22:53:36Z"/>
            <performer>
               <display value="The Central European Lab"/>
            </performer>
            <valueQuantity>
               <value value="100.8"/>
               <unit value="mg/dL"/>
               <system value="http://unitsofmeasure.org"/>
               <code value="mg/dL"/>
            </valueQuantity>
            <referenceRange>
               <low>
                  <value value="0"/>
                  <system value="http://unitsofmeasure.org"/>
                  <code value="mg/dL"/>
               </low>
            </referenceRange>
            <referenceRange>
               <high>
                  <value value="130"/>
                  <system value="http://unitsofmeasure.org"/>
                  <code value="mg/dL"/>
               </high>
            </referenceRange>
         </Observation>
      </resource>
   </entry>
   <entry>
      <fullUrl value="urn:uuid:293db8bb-fa47-4735-92c5-0636220e4620"/>
      <resource>
         <Observation>
            <id value="293db8bb-fa47-4735-92c5-0636220e4620"/>
            <meta>
               <profile value="http://hl7.eu/fhir/laboratory/StructureDefinition/Observation-resultslab-eu-lab"/>
            </meta>
            <text>
               <status value="generated"/>
               <div xmlns="http://www.w3.org/1999/xhtml">
                  <table class="hl7__eu__lab__report">
                     <tr>
                        <th>Test</th>
                        <th>30-Nov-2024</th>
                        <th>Reference Range</th>
                        <th>Unit</th>
                     </tr>
                     <tr>
                        <td>Cholesterol in HDL [Mass/volume] in Serum or Plasma</td>
                        <td>32.2</td>
                        <td>50 - 100</td>
                        <td>L</td>
                        <td>mg/dL</td>
                     </tr>
                  </table>
               </div>
            </text>
            <status value="final"/>
            <category>
               <coding>
                  <system value="http://terminology.hl7.org/CodeSystem/observation-category"/>
                  <code value="laboratory"/>
               </coding>
            </category>
            <code>
               <coding>
                  <system value="http://loinc.org"/>
                  <code value="2085-9"/>
                  <display value="Cholesterol in HDL [Mass/volume] in Serum or Plasma"/>
               </coding>
               <text value="Cholesterol in HDL [Mass/volume] in Serum or Plasma"/>
            </code>
            <subject>
               <reference value="urn:uuid:356b1a6a-4cfc-485b-876d-1814cf62fb15"/>
               <display value="Helene Andresen"/>
            </subject>
            <effectiveDateTime value="2024-11-30T22:53:36Z"/>
            <performer>
               <display value="The Central European Lab"/>
            </performer>
            <valueQuantity>
               <value value="32.2"/>
               <unit value="mg/dL"/>
               <system value="http://unitsofmeasure.org"/>
               <code value="mg/dL"/>
            </valueQuantity>
            <interpretation>
               <coding>
                  <system value="http://terminology.hl7.org/CodeSystem/v3-ObservationInterpretation"/>
                  <code value="L"/>
                  <display value="Low"/>
               </coding>
            </interpretation>
            <referenceRange>
               <low>
                  <value value="50"/>
                  <system value="http://unitsofmeasure.org"/>
                  <code value="mg/dL"/>
               </low>
            </referenceRange>
            <referenceRange>
               <high>
                  <value value="100"/>
                  <system value="http://unitsofmeasure.org"/>
                  <code value="mg/dL"/>
               </high>
            </referenceRange>
         </Observation>
      </resource>
   </entry>
   <entry>
      <fullUrl value="urn:uuid:6340ff75-a3e1-44b3-9819-253a22b26d51"/>
      <resource>
         <DeviceUseStatement>
            <id value="6340ff75-a3e1-44b3-9819-253a22b26d51"/>
            <meta>
               <profile value="http://hl7.eu/fhir/eps/StructureDefinition/deviceUseStatement-eu-eps"/>
            </meta>
            <text>
               <status value="generated"/>
               <div xmlns="http://www.w3.org/1999/xhtml">
                  <table class="hl7__ips">
                     <tr>
                        <td>Home nebulizer (physical object)</td>
                        <td>
                           <span class="nb">31-May-1999</span>
                        </td>
                     </tr>
                  </table>
               </div>
            </text>
            <status value="active"/>
            <subject>
               <reference value="urn:uuid:356b1a6a-4cfc-485b-876d-1814cf62fb15"/>
               <display value="Helene Andresen"/>
            </subject>
            <timingPeriod>
               <start value="1999-05-31"/>
            </timingPeriod>
            <device>
               <reference value="urn:uuid:69443fc9-98e7-4b90-bc55-9feac903dd08"/>
               <display value="Home nebulizer (physical object)"/>
            </device>
         </DeviceUseStatement>
      </resource>
   </entry>
   <entry>
      <fullUrl value="urn:uuid:69443fc9-98e7-4b90-bc55-9feac903dd08"/>
      <resource>
         <Device>
            <id value="69443fc9-98e7-4b90-bc55-9feac903dd08"/>
            <meta>
               <profile value="http://hl7.eu/fhir/eps/StructureDefinition/device-eu-eps"/>
            </meta>
            <udiCarrier id="(01)22587227325714(11)990510(17)240524(10)63575205(21)61758505064052717"/>
            <status value="active"/>
            <type>
               <coding>
                  <system value="http://snomed.info/sct"/>
                  <code value="170615005"/>
                  <display value="Home nebulizer (physical object)"/>
               </coding>
            </type>
            <patient>
               <reference value="urn:uuid:356b1a6a-4cfc-485b-876d-1814cf62fb15"/>
               <display value="Helene Andresen"/>
            </patient>
         </Device>
      </resource>
   </entry>
   <entry>
      <fullUrl value="urn:uuid:e5033ec0-358d-46af-bd9b-00a68cc975b3"/>
      <resource>
         <DeviceUseStatement>
            <id value="e5033ec0-358d-46af-bd9b-00a68cc975b3"/>
            <meta>
               <profile value="http://hl7.eu/fhir/eps/StructureDefinition/deviceUseStatement-eu-eps"/>
            </meta>
            <text>
               <status value="generated"/>
               <div xmlns="http://www.w3.org/1999/xhtml">
                  <table class="hl7__ips">
                     <tr>
                        <td>Blood glucose meter (physical object)</td>
                        <td>
                           <span class="nb">02-Jul-1960</span>
                        </td>
                     </tr>
                  </table>
               </div>
            </text>
            <status value="active"/>
            <subject>
               <reference value="urn:uuid:356b1a6a-4cfc-485b-876d-1814cf62fb15"/>
               <display value="Helene Andresen"/>
            </subject>
            <timingPeriod>
               <start value="1960-07-02"/>
            </timingPeriod>
            <device>
               <reference value="urn:uuid:2e80c345-5a1e-4772-bdde-f2f2d39e6af5"/>
               <display value="Blood glucose meter (physical object)"/>
            </device>
         </DeviceUseStatement>
      </resource>
   </entry>
   <entry>
      <fullUrl value="urn:uuid:2e80c345-5a1e-4772-bdde-f2f2d39e6af5"/>
      <resource>
         <Device>
            <id value="2e80c345-5a1e-4772-bdde-f2f2d39e6af5"/>
            <meta>
               <profile value="http://hl7.eu/fhir/eps/StructureDefinition/device-eu-eps"/>
            </meta>
            <udiCarrier id="(01)57536095449055(11)600611(17)850627(10)70837(21)40552787"/>
            <status value="active"/>
            <type>
               <coding>
                  <system value="http://snomed.info/sct"/>
                  <code value="337414009"/>
                  <display value="Blood glucose meter (physical object)"/>
               </coding>
            </type>
            <patient>
               <reference value="urn:uuid:356b1a6a-4cfc-485b-876d-1814cf62fb15"/>
               <display value="Helene Andresen"/>
            </patient>
         </Device>
      </resource>
   </entry>
   <entry>
      <fullUrl value="urn:uuid:d6fff0b8-80dc-412a-a139-deba3bea49f3"/>
      <resource>
         <Device>
            <id value="d6fff0b8-80dc-412a-a139-deba3bea49f3"/>
            <text>
               <status value="generated"/>
               <div xmlns="http://www.w3.org/1999/xhtml">SYNDERAI Synthetic Generator v5.0</div>
            </text>
            <status value="active&#34;"/>
            <distinctIdentifier value="synderai-generator-50"/>
            <manufacturer value="SYNDERAI Project"/>
            <deviceName>
               <name value="SYNDERAI Synthetic Generator"/>
               <type value="manufacturer-name"/>
            </deviceName>
            <version>
               <value value="5.0"/>
            </version>
         </Device>
      </resource>
   </entry>
   <entry>
      <fullUrl value="urn:uuid:4544e3fb-1d80-4f59-8e2c-edd21dd82ad6"/>
      <resource>
         <Provenance>
            <id value="4544e3fb-1d80-4f59-8e2c-edd21dd82ad6"/>
            <text>
               <status value="generated"/>
               <div xmlns="http://www.w3.org/1999/xhtml">Provenance for SYNDERAI Synthetic Example Data Resource</div>
            </text>
            <target>
               <reference value="Patient/356b1a6a-4cfc-485b-876d-1814cf62fb15"/>
            </target>
            <target>
               <reference value="Bundle/bde5f9ec-1418-4f11-b279-31f26a68676d"/>
            </target>
            <target>
               <reference value="Composition/815a857f-b50b-4576-b6fb-aa9d061ecc64"/>
            </target>
            <target>
               <reference value="PractitionerRole/8b62a1d5-7ac0-4a61-a64b-5637d749b532"/>
            </target>
            <target>
               <reference value="Organization/704307a4-2a78-447b-b149-e6d8d4daedb2"/>
            </target>
            <target>
               <reference value="Practitioner/f386e736-d46c-4748-a750-d55199582c72"/>
            </target>
            <recorded value="2024-11-30T22:53:36Z"/>
            <policy value="https://synderai.net/synderai-synthetic-data-policy"/>
            <reason>
               <text value="Interoperability Testing and Training (non-clinical use)"/>
            </reason>
            <activity>
               <text value="Synthetic Example Data Generation"/>
            </activity>
            <agent>
               <type>
                  <text value="author"/>
               </type>
               <who>
                  <reference value="Device/d6fff0b8-80dc-412a-a139-deba3bea49f3"/>
               </who>
            </agent>
         </Provenance>
      </resource>
   </entry>
</Bundle>