<Bundle xmlns="http://hl7.org/fhir">
   <id value="12d62271-5bdd-4567-9d05-581f03e5fb98"/>
   <meta>
      <profile value="http://hl7.eu/fhir/eps/StructureDefinition/bundle-eu-eps"/>
   </meta>
   <identifier>
      <system value="urn:oid:2.16.840.1.113883.2.51.999"/>
      <value value="5a3baa38-e8c9-4a30-9acd-36a143d48d58"/>
      <assigner>
         <display value="HL7 Europe"/>
      </assigner>
   </identifier>
   <type value="document"/>
   <timestamp value="2023-04-08T18:20:37Z"/>
   <entry>
      <fullUrl value="urn:uuid:f279d99a-114d-452d-bc88-4949d4d93a73"/>
      <resource>
         <Composition>
            <id value="f279d99a-114d-452d-bc88-4949d4d93a73"/>
            <meta>
               <profile value="http://hl7.eu/fhir/eps/StructureDefinition/composition-eu-eps"/>
               <security>
                  <system value="http://terminology.hl7.org/CodeSystem/v3-ActReason"/>
                  <code value="HTEST"/>
               </security>
               <security>
                  <system value="http://terminology.hl7.org/CodeSystem/v3-ActReason"/>
                  <code value="TRAIN"/>
               </security>
               <tag>
                  <system value="https://synderai.net/fhir/CodeSystem/tags"/>
                  <code value="synthetic"/>
                  <display value="SYNDERAI Synthetic data"/>
               </tag>
            </meta>
            <identifier>
               <system value="urn:oid:2.16.840.1.113883.2.51.999"/>
               <value value="aeb14a3c-6896-4d04-8b2c-83f5119abf74"/>
               <assigner>
                  <display value="HL7 Europe"/>
               </assigner>
            </identifier>
            <status value="final"/>
            <type>
               <coding>
                  <system value="http://loinc.org"/>
                  <code value="60591-5"/>
                  <display value="Patient summary Document"/>
               </coding>
               <text value="Patient summary Document"/>
            </type>
            <subject>
               <reference value="urn:uuid:7ff15040-d3cc-4dbd-8d79-6d02aec111bb"/>
               <display value="Pamela Dixon"/>
            </subject>
            <date value="2023-04-08"/>
            <author>
               <reference value="urn:uuid:cb958b8a-27a8-4ee7-96bb-59254e798ebb"/>
            </author>
            <title value="European Patient Summary"/>
            <confidentiality value="N"/>
            <custodian>
               <reference value="urn:uuid:1a9cee9f-1d2c-4a35-9905-3fb41a5a2e07"/>
            </custodian>
            <section>
               <title value="Problem list"/>
               <code>
                  <coding>
                     <system value="http://loinc.org"/>
                     <code value="11450-4"/>
                     <display value="Problem list - Reported"/>
                  </coding>
               </code>
               <text>
                  <status value="generated"/>
                  <div xmlns="http://www.w3.org/1999/xhtml">
                     <table class="hl7__ips">
                        <tr>
                           <td>No known problems or disabilities</td>
                        </tr>
                     </table>
                  </div>
               </text>
               <entry>
                  <reference value="urn:uuid:27192557-fe92-4af5-ba52-4c595289da0c"/>
               </entry>
            </section>
            <section>
               <title value="Medication list"/>
               <code>
                  <coding>
                     <system value="http://loinc.org"/>
                     <code value="10160-0"/>
                     <display value="History of Medication use Narrative"/>
                  </coding>
               </code>
               <text>
                  <status value="generated"/>
                  <div xmlns="http://www.w3.org/1999/xhtml">
                     <table class="hl7__ips">
                        <tr>
                           <th>Medication</th>
                           <th>Since</th>
                           <th>Form</th>
                           <th>Dosage</th>
                           <th>Reason</th>
                        </tr>
                        <tr>
                           <td>Acetaminophen 325 mg oral tablet</td>
                           <td>
                              <span class="nb">2025-04-19</span>
                           </td>
                           <td>-</td>
                           <td>1 tablet (325 mg) every 4 to 6 hours as needed</td>
                           <td>-</td>
                        </tr>
                        <tr>
                           <td>Acetaminophen 325 MG / Oxycodone Hydrochloride 10 MG Oral Tablet [Percocet]</td>
                           <td>
                              <span class="nb">2025-04-19</span>
                           </td>
                           <td>-</td>
                           <td>1 tablet (10 mg oxycodone / 325 mg acetaminophen) every 6 hours as needed for pain</td>
                           <td>-</td>
                        </tr>
                     </table>
                  </div>
               </text>
               <entry>
                  <reference value="urn:uuid:6f033766-598e-47a5-9826-4203b8a7e3ba"/>
               </entry>
               <entry>
                  <reference value="urn:uuid:8e66525b-f542-41dd-b16d-9d84756cb3a3"/>
               </entry>
            </section>
            <section>
               <title value="Immunizations list"/>
               <code>
                  <coding>
                     <system value="http://loinc.org"/>
                     <code value="11369-6"/>
                     <display value="History of Immunization note"/>
                  </coding>
               </code>
               <text>
                  <status value="generated"/>
                  <div xmlns="http://www.w3.org/1999/xhtml">
                     <table class="hl7__ips">
                        <tr>
                           <th>Vaccine</th>
                           <th>Date</th>
                        </tr>
                        <tr>
                           <td>Influenza virus antigen only vaccine product</td>
                           <td>
                              <span class="nb">19-Apr-2025</span>
                           </td>
                        </tr>
                        <tr>
                           <td>Clostridium tetani toxoid antigen adsorbed only vaccine product</td>
                           <td>
                              <span class="nb">27-Mar-2021</span>
                           </td>
                        </tr>
                     </table>
                  </div>
               </text>
               <entry>
                  <reference value="urn:uuid:a6759d42-c8dc-4da2-b68b-3442bdaad243"/>
               </entry>
               <entry>
                  <reference value="urn:uuid:d22edd81-c600-4d46-a1d9-2c92b13b7239"/>
               </entry>
            </section>
            <section>
               <title value="Procedure History list"/>
               <code>
                  <coding>
                     <system value="http://loinc.org"/>
                     <code value="47519-4"/>
                     <display value="History of Procedures Document"/>
                  </coding>
               </code>
               <text>
                  <status value="generated"/>
                  <div xmlns="http://www.w3.org/1999/xhtml">
                     <table class="hl7__ips">
                        <tr>
                           <th>Procedure</th>
                           <th>Date</th>
                           <th>Reason</th>
                        </tr>
                        <tr>
                           <td>Medical induction of labor</td>
                           <td>
                              <span class="nb">30-Jun-2018</span>
                           </td>
                           <td>Normal pregnancy</td>
                        </tr>
                        <tr>
                           <td>Parturition</td>
                           <td>
                              <span class="nb">30-Jun-2018</span>
                           </td>
                           <td>Normal pregnancy</td>
                        </tr>
                     </table>
                  </div>
               </text>
               <entry>
                  <reference value="urn:uuid:db43fc8c-783a-4552-b561-1ff8da8d6d00"/>
               </entry>
               <entry>
                  <reference value="urn:uuid:73690938-ff5b-41a1-b422-2bcbfa36d098"/>
               </entry>
            </section>
            <section>
               <title value="Allergies and Intolerances"/>
               <code>
                  <coding>
                     <system value="http://loinc.org"/>
                     <code value="48765-2"/>
                     <display value="Allergies and adverse reactions Document"/>
                  </coding>
               </code>
               <text>
                  <status value="generated"/>
                  <div xmlns="http://www.w3.org/1999/xhtml">
                     <table class="hl7__ips">
                        <tr>
                           <th>Allergy/Intolerance</th>
                           <th>Onset Date</th>
                           <th>Status</th>
                           <th>Type</th>
                           <th>Reaction</th>
                        </tr>
                        <tr>
                           <td/>
                           <td>?</td>
                           <td>active</td>
                           <td>?</td>
                           <td/>
                        </tr>
                     </table>
                  </div>
               </text>
               <entry>
                  <reference value="urn:uuid:3341e128-85b5-4d23-a5aa-25d740dd5572"/>
               </entry>
            </section>
            <section>
               <title value="Care Plan"/>
               <code>
                  <coding>
                     <system value="http://loinc.org"/>
                     <code value="18776-5"/>
                     <display value="Plan of care note"/>
                  </coding>
               </code>
               <text>
                  <status value="generated"/>
                  <div xmlns="http://www.w3.org/1999/xhtml">
                     <table class="hl7__ips">
                        <tr>
                           <th>Active Planned Care / Goals</th>
                           <th>Start Date</th>
                           <th>Reason</th>
                        </tr>
                        <tr>
                           <td>Therapy</td>
                           <td>
                              <span class="nb">17-Mar-2014</span>
                           </td>
                           <td>-</td>
                        </tr>
                     </table>
                  </div>
               </text>
               <entry>
                  <reference value="urn:uuid:0ab1b012-00ed-4e71-90ce-49fbc16c7ea1"/>
               </entry>
            </section>
            <section>
               <title value="Vital Signs"/>
               <code>
                  <coding>
                     <system value="http://loinc.org"/>
                     <code value="8716-3"/>
                     <display value="Vital signs note"/>
                  </coding>
               </code>
               <text>
                  <status value="generated"/>
                  <div xmlns="http://www.w3.org/1999/xhtml">
                     <table class="hl7__ips">
                        <tr>
                           <th>Vital Signs</th>
                           <th>2025-04-19</th>
                           <th>2024-04-13</th>
                        </tr>
                        <tr>
                           <td>Body Height</td>
                           <td>150 cm</td>
                           <td>150 cm</td>
                        </tr>
                        <tr>
                           <td>Pain severity - 0-10 verbal numeric rating [Score] - Reported</td>
                           <td>3 {score}</td>
                           <td>3 {score}</td>
                        </tr>
                        <tr>
                           <td>Body Weight</td>
                           <td>68.2 kg</td>
                           <td>68.2 kg</td>
                        </tr>
                        <tr>
                           <td>Body mass index (BMI) [Ratio]</td>
                           <td>30.3 kg/m2</td>
                           <td>30.3 kg/m2</td>
                        </tr>
                        <tr>
                           <td>Diastolic Blood Pressure</td>
                           <td>67 mm[Hg]</td>
                           <td>70 mm[Hg]</td>
                        </tr>
                        <tr>
                           <td>Systolic Blood Pressure</td>
                           <td>92 mm[Hg]</td>
                           <td>93 mm[Hg]</td>
                        </tr>
                        <tr>
                           <td>Heart rate</td>
                           <td>86 /min</td>
                           <td>99 /min</td>
                        </tr>
                        <tr>
                           <td>Respiratory rate</td>
                           <td>14 /min</td>
                           <td>13 /min</td>
                        </tr>
                     </table>
                  </div>
               </text>
               <entry>
                  <reference value="urn:uuid:7c41db11-2958-4652-905d-01706c8d9e06"/>
               </entry>
               <entry>
                  <reference value="urn:uuid:b10364e4-5042-4e66-904d-9f5903723b80"/>
               </entry>
               <entry>
                  <reference value="urn:uuid:457acd83-d75c-4ef3-9714-8be485a9ff3a"/>
               </entry>
               <entry>
                  <reference value="urn:uuid:2b8a57b3-d879-4270-9813-011b09f28614"/>
               </entry>
               <entry>
                  <reference value="urn:uuid:01523078-73a2-42e7-a0e0-9209ae3d5d51"/>
               </entry>
               <entry>
                  <reference value="urn:uuid:9422b8ea-0c52-47ab-8fc5-1c28b98eda71"/>
               </entry>
               <entry>
                  <reference value="urn:uuid:dde40f6b-4704-454b-a458-15414f7d07d5"/>
               </entry>
               <entry>
                  <reference value="urn:uuid:5b90585a-e18b-48ed-be51-33fe2085881f"/>
               </entry>
               <entry>
                  <reference value="urn:uuid:b9a5ba2a-4ae7-4d1a-bd90-50b83d155571"/>
               </entry>
               <entry>
                  <reference value="urn:uuid:ea49cef1-fa31-4479-af46-9f4c03566766"/>
               </entry>
               <entry>
                  <reference value="urn:uuid:3f57ec56-2b89-4eba-8fc8-103dec968059"/>
               </entry>
               <entry>
                  <reference value="urn:uuid:1cd746c5-17aa-4cc2-bc8d-e32a900e9c9c"/>
               </entry>
               <entry>
                  <reference value="urn:uuid:09fdd4ab-f03c-4656-9487-477599eeb655"/>
               </entry>
               <entry>
                  <reference value="urn:uuid:d9230d41-ab49-4b34-a046-00c5e8432c13"/>
               </entry>
               <entry>
                  <reference value="urn:uuid:eb6d7e29-d6b5-4913-a91b-1b2ef4276d1c"/>
               </entry>
               <entry>
                  <reference value="urn:uuid:f4584f57-9779-4869-91ae-1821e1840d12"/>
               </entry>
            </section>
            <section>
               <title value="Pregnancy History"/>
               <code>
                  <coding>
                     <system value="http://loinc.org"/>
                     <code value="10162-6"/>
                     <display value="History of pregnancies Narrative"/>
                  </coding>
               </code>
               <text>
                  <status value="generated"/>
                  <div xmlns="http://www.w3.org/1999/xhtml">
                     <table class="hl7__ips">$<tr>
                           <td>[#] Births total</td>
                           <td>1</td>
                        </tr>
                     </table>
                  </div>
               </text>
            </section>
            <section>
               <title value="Relevant diagnostic tests/laboratory data"/>
               <code>
                  <coding>
                     <system value="http://loinc.org"/>
                     <code value="30954-2"/>
                     <display value="Relevant diagnostic tests/laboratory data note"/>
                  </coding>
               </code>
               <text>
                  <status value="generated"/>
                  <div xmlns="http://www.w3.org/1999/xhtml">
                     <table class="hl7__ips">
                        <table class="hl7__ips">
                           <thead>
                              <tr>
                                 <th>Recent Lab Observations</th>
                                 <th>08-APR-2023</th>
                                 <th>Reference Range</th>
                                 <th>Unit</th>
                              </tr>
                           </thead>
                           <tbody>
                              <tr>
                                 <td>Cholesterol [Mass/volume] in Serum or Plasma</td>
                                 <td>194.8</td>
                                 <td>125 - 200</td>
                                 <td>mg/dL</td>
                              </tr>
                              <tr>
                                 <td>Triglyceride [Mass/volume] in Serum or Plasma</td>
                                 <td>133.5</td>
                                 <td>35 - 150</td>
                                 <td>mg/dL</td>
                              </tr>
                              <tr>
                                 <td>Cholesterol in LDL [Mass/volume] in Serum or Plasma by Direct assay</td>
                                 <td>118.0</td>
                                 <td>0 - 130</td>
                                 <td>mg/dL</td>
                              </tr>
                              <tr>
                                 <td>Cholesterol in HDL [Mass/volume] in Serum or Plasma</td>
                                 <td>50.1</td>
                                 <td>40 - 60</td>
                                 <td>mg/dL</td>
                              </tr>
                           </tbody>
                        </table>
                     </table>
                  </div>
               </text>
               <entry>
                  <reference value="urn:uuid:5b099fcf-0ec6-4515-8a82-bd1568af09f8"/>
               </entry>
               <entry>
                  <reference value="urn:uuid:5ef6e20f-15fe-4b7f-908b-4750edf14ef0"/>
               </entry>
               <entry>
                  <reference value="urn:uuid:f5c20339-be8f-45e5-9328-4bc7504a7746"/>
               </entry>
               <entry>
                  <reference value="urn:uuid:24501766-5bad-445e-a92a-af859b0bd329"/>
               </entry>
            </section>
         </Composition>
      </resource>
   </entry>
   <entry>
      <fullUrl value="urn:uuid:7ff15040-d3cc-4dbd-8d79-6d02aec111bb"/>
      <resource>
         <Patient>
            <id value="7ff15040-d3cc-4dbd-8d79-6d02aec111bb"/>
            <meta>
               <profile value="http://hl7.eu/fhir/eps/StructureDefinition/patient-eu-eps"/>
               <security>
                  <system value="http://terminology.hl7.org/CodeSystem/v3-ActReason"/>
                  <code value="HTEST"/>
               </security>
               <security>
                  <system value="http://terminology.hl7.org/CodeSystem/v3-ActReason"/>
                  <code value="TRAIN"/>
               </security>
               <tag>
                  <system value="https://synderai.net/fhir/CodeSystem/tags"/>
                  <code value="synthetic"/>
                  <display value="SYNDERAI Synthetic data"/>
               </tag>
            </meta>
            <text>
               <status value="generated"/>
               <div xmlns="http://www.w3.org/1999/xhtml">
                  <table class="hl7__ips">
                     <tr>
                        <td>Pamela Dixon</td>
                        <td>female</td>
                        <td>01-Dec-1990</td>
                     </tr>
                  </table>
               </div>
            </text>
            <extension url="http://hl7.org/fhir/StructureDefinition/patient-nationality">
               <valueCodeableConcept>
                  <coding>
                     <system value="http://hl7.org/fhir/ValueSet/country"/>
                     <code value="GB"/>
                  </coding>
               </valueCodeableConcept>
            </extension>
            <identifier>
               <type>
                  <coding>
                     <system value="http://terminology.hl7.org/CodeSystem/v2-0203"/>
                     <code value="PT"/>
                  </coding>
               </type>
               <system value="http://ec.europa.eu/identifier/eci"/>
               <value value="6166-148600-3"/>
            </identifier>
            <identifier>
               <type>
                  <coding>
                     <system value="http://terminology.hl7.org/CodeSystem/v2-0203"/>
                     <code value="MR"/>
                  </coding>
               </type>
               <system value="http://local.setting.eu/identifier"/>
               <value value="aa6e2273-ade9-f985-ca21-1a30863d243e"/>
            </identifier>
            <name>
               <family value="Dixon"/>
            </name>
            <name>
               <given value="Pamela"/>
            </name>
            <name>
               <text value="Pamela Dixon"/>
            </name>
            <telecom>
               <system value="phone"/>
               <value value="0121 496 0481"/>
            </telecom>
            <gender value="female"/>
            <birthDate value="1990-12-01"/>
            <address>
               <use value="home"/>
               <type value="physical"/>
               <line value="6 Diana landing"/>
               <city value="Claireport"/>
               <postalCode value="M14"/>
               <country value="United Kingdom"/>
            </address>
         </Patient>
      </resource>
   </entry>
   <entry>
      <fullUrl value="urn:uuid:cb958b8a-27a8-4ee7-96bb-59254e798ebb"/>
      <resource>
         <PractitionerRole>
            <id value="cb958b8a-27a8-4ee7-96bb-59254e798ebb"/>
            <meta>
               <profile value="http://hl7.eu/fhir/base/StructureDefinition/practitionerRole-eu"/>
            </meta>
            <text>
               <status value="generated"/>
               <div xmlns="http://www.w3.org/1999/xhtml">
                  <table class="hl7__ips">Provider Role Id cb958b8a-27a8-4ee7-96bb-59254e798ebb</table>
               </div>
            </text>
            <practitioner>
               <reference value="urn:uuid:2816d274-e9a8-4aab-8017-71e255e4218e"/>
            </practitioner>
            <organization>
               <reference value="urn:uuid:1a9cee9f-1d2c-4a35-9905-3fb41a5a2e07"/>
            </organization>
         </PractitionerRole>
      </resource>
   </entry>
   <entry>
      <fullUrl value="urn:uuid:2816d274-e9a8-4aab-8017-71e255e4218e"/>
      <resource>
         <Practitioner>
            <id value="2816d274-e9a8-4aab-8017-71e255e4218e"/>
            <meta>
               <profile value="http://hl7.eu/fhir/base/StructureDefinition/practitioner-eu"/>
            </meta>
            <text>
               <status value="generated"/>
               <div xmlns="http://www.w3.org/1999/xhtml">
                  <table class="hl7__ips">Dr. Hel Ping</table>
               </div>
            </text>
            <name>
               <family value="Ping"/>
               <given value="Hel"/>
               <prefix value="Dr."/>
            </name>
         </Practitioner>
      </resource>
   </entry>
   <entry>
      <fullUrl value="urn:uuid:1a9cee9f-1d2c-4a35-9905-3fb41a5a2e07"/>
      <resource>
         <Organization>
            <id value="1a9cee9f-1d2c-4a35-9905-3fb41a5a2e07"/>
            <meta>
               <profile value="http://hl7.eu/fhir/base/StructureDefinition/organization-eu"/>
            </meta>
            <text>
               <status value="generated"/>
               <div xmlns="http://www.w3.org/1999/xhtml">
                  <table class="hl7__ips">Cornbrook Medical Practice</table>
               </div>
            </text>
            <identifier>
               <system value="urn:oid:2.16.840.1.113883.2.51.999"/>
               <value value="6aef4da9-e599-486a-b606-d3b95df163ec"/>
               <assigner>
                  <display value="HL7 Europe"/>
               </assigner>
            </identifier>
            <name value="Cornbrook Medical Practice"/>
            <address>
               <line value="City Road 204"/>
               <city value="Manchester"/>
               <postalCode value="M3 3"/>
               <country value="United Kingdom"/>
            </address>
         </Organization>
      </resource>
   </entry>
   <entry>
      <fullUrl value="urn:uuid:27192557-fe92-4af5-ba52-4c595289da0c"/>
      <resource>
         <Condition>
            <id value="27192557-fe92-4af5-ba52-4c595289da0c"/>
            <meta>
               <profile value="http://hl7.org/fhir/uv/ips/StructureDefinition/Condition-uv-ips"/>
            </meta>
            <text>
               <status value="generated"/>
               <div xmlns="http://www.w3.org/1999/xhtml">
                  <table class="hl7__ips">
                     <tr>
                        <td>No known problems or disabilities</td>
                     </tr>
                  </table>
               </div>
            </text>
            <code>
               <coding>
                  <system value="http://snomed.info/sct"/>
                  <code value="160245001"/>
                  <display value="No current problems or disability (situation)"/>
               </coding>
            </code>
            <subject>
               <reference value="Patient/7ff15040-d3cc-4dbd-8d79-6d02aec111bb"/>
               <display value="Pamela Dixon"/>
            </subject>
            <onsetDateTime>
               <extension url="http://hl7.org/fhir/StructureDefinition/data-absent-reason">
                  <valueCode value="unknown&#34;"/>
               </extension>
            </onsetDateTime>
         </Condition>
      </resource>
   </entry>
   <entry>
      <fullUrl value="urn:uuid:d6cb8f4b-d74d-48a6-bb3a-4880637fcd84"/>
      <resource>
         <Medication>
            <id value="d6cb8f4b-d74d-48a6-bb3a-4880637fcd84"/>
            <meta>
               <profile value="http://hl7.eu/fhir/eps/StructureDefinition/Medication-eu-eps"/>
            </meta>
            <text>
               <status value="generated"/>
               <div xmlns="http://www.w3.org/1999/xhtml">Acetaminophen 325 mg oral tablet</div>
            </text>
            <code>
               <coding>
                  <system value="http://snomed.info/sct"/>
                  <code value="370150001"/>
                  <display value="Acetaminophen 325 mg oral tablet"/>
               </coding>
               <text value="Acetaminophen 325 mg oral tablet"/>
            </code>
         </Medication>
      </resource>
   </entry>
   <entry>
      <fullUrl value="urn:uuid:6f033766-598e-47a5-9826-4203b8a7e3ba"/>
      <resource>
         <MedicationStatement>
            <id value="6f033766-598e-47a5-9826-4203b8a7e3ba"/>
            <meta>
               <profile value="http://hl7.eu/fhir/eps/StructureDefinition/MedicationStatement-eu-eps"/>
            </meta>
            <text>
               <status value="generated"/>
               <div xmlns="http://www.w3.org/1999/xhtml">
                  <table class="hl7__ips first25">
                     <tr>
                        <th>Medication</th>
                        <th>Since</th>
                        <th>Form</th>
                        <th>Dosage</th>
                        <th>Reason</th>
                     </tr>
                     <tr>
                        <td>Acetaminophen 325 mg oral tablet</td>
                        <td>
                           <span class="nb">2025-04-19</span>
                        </td>
                        <td>-</td>
                        <td>1 tablet (325 mg) every 4 to 6 hours as needed</td>
                        <td>-</td>
                     </tr>
                  </table>
               </div>
            </text>
            <status value="active"/>
            <medicationReference>
               <reference value="urn:uuid:d6cb8f4b-d74d-48a6-bb3a-4880637fcd84"/>
               <display value="Acetaminophen 325 mg oral tablet"/>
            </medicationReference>
            <subject>
               <reference value="urn:uuid:7ff15040-d3cc-4dbd-8d79-6d02aec111bb"/>
               <display value="Pamela Dixon"/>
            </subject>
            <effectivePeriod>
               <start value="2025-04-19"/>
            </effectivePeriod>
            <dosage>
               <text value="1 tablet (325 mg) every 4 to 6 hours as needed"/>
               <timing>
                  <repeat>
                     <frequency value="1"/>
                     <period value="4"/>
                     <periodUnit value="h"/>
                  </repeat>
               </timing>
               <asNeededBoolean value="true"/>
               <doseAndRate>
                  <doseQuantity>
                     <value value="1"/>
                     <unit value="{tbl}"/>
                     <system value="$ucum"/>
                     <code value="{tbl}"/>
                  </doseQuantity>
               </doseAndRate>
            </dosage>
         </MedicationStatement>
      </resource>
   </entry>
   <entry>
      <fullUrl value="urn:uuid:62c6f10c-5a3d-480b-8ee2-6048e85fb6f5"/>
      <resource>
         <Medication>
            <id value="62c6f10c-5a3d-480b-8ee2-6048e85fb6f5"/>
            <meta>
               <profile value="http://hl7.eu/fhir/eps/StructureDefinition/Medication-eu-eps"/>
            </meta>
            <text>
               <status value="generated"/>
               <div xmlns="http://www.w3.org/1999/xhtml">Acetaminophen 325 MG / Oxycodone Hydrochloride 10 MG Oral Tablet [Percocet]</div>
            </text>
            <code>
               <coding>
                  <system value="http://www.nlm.nih.gov/research/umls/rxnorm"/>
                  <code value="1049625"/>
                  <display value="Acetaminophen 325 MG / Oxycodone Hydrochloride 10 MG Oral Tablet [Percocet]"/>
               </coding>
               <text value="Acetaminophen 325 MG / Oxycodone Hydrochloride 10 MG Oral Tablet [Percocet]"/>
            </code>
         </Medication>
      </resource>
   </entry>
   <entry>
      <fullUrl value="urn:uuid:8e66525b-f542-41dd-b16d-9d84756cb3a3"/>
      <resource>
         <MedicationStatement>
            <id value="8e66525b-f542-41dd-b16d-9d84756cb3a3"/>
            <meta>
               <profile value="http://hl7.eu/fhir/eps/StructureDefinition/MedicationStatement-eu-eps"/>
            </meta>
            <text>
               <status value="generated"/>
               <div xmlns="http://www.w3.org/1999/xhtml">
                  <table class="hl7__ips first25">
                     <tr>
                        <th>Medication</th>
                        <th>Since</th>
                        <th>Form</th>
                        <th>Dosage</th>
                        <th>Reason</th>
                     </tr>
                     <tr>
                        <td>Acetaminophen 325 MG / Oxycodone Hydrochloride 10 MG Oral Tablet [Percocet]</td>
                        <td>
                           <span class="nb">2025-04-19</span>
                        </td>
                        <td>-</td>
                        <td>1 tablet (10 mg oxycodone / 325 mg acetaminophen) every 6 hours as needed for pain</td>
                        <td>-</td>
                     </tr>
                  </table>
               </div>
            </text>
            <status value="active"/>
            <medicationReference>
               <reference value="urn:uuid:62c6f10c-5a3d-480b-8ee2-6048e85fb6f5"/>
               <display value="Acetaminophen 325 MG / Oxycodone Hydrochloride 10 MG Oral Tablet [Percocet]"/>
            </medicationReference>
            <subject>
               <reference value="urn:uuid:7ff15040-d3cc-4dbd-8d79-6d02aec111bb"/>
               <display value="Pamela Dixon"/>
            </subject>
            <effectivePeriod>
               <start value="2025-04-19"/>
            </effectivePeriod>
            <dosage>
               <text value="1 tablet (10 mg oxycodone / 325 mg acetaminophen) every 6 hours as needed for pain"/>
               <timing>
                  <repeat>
                     <frequency value="4"/>
                     <period value="1"/>
                     <periodUnit value="d"/>
                  </repeat>
               </timing>
               <asNeededBoolean value="true"/>
               <doseAndRate>
                  <doseQuantity>
                     <value value="1"/>
                     <unit value="{tbl}"/>
                     <system value="$ucum"/>
                     <code value="{tbl}"/>
                  </doseQuantity>
               </doseAndRate>
            </dosage>
         </MedicationStatement>
      </resource>
   </entry>
   <entry>
      <fullUrl value="urn:uuid:a6759d42-c8dc-4da2-b68b-3442bdaad243"/>
      <resource>
         <Immunization>
            <id value="a6759d42-c8dc-4da2-b68b-3442bdaad243"/>
            <meta>
               <profile value="http://hl7.org/fhir/uv/ips/StructureDefinition/Immunization-uv-ips"/>
            </meta>
            <text>
               <status value="generated"/>
               <div xmlns="http://www.w3.org/1999/xhtml">
                  <table class="hl7__ips">
                     <tr>
                        <td>Influenza virus antigen only vaccine product</td>
                        <td>
                           <span class="nb">19-Apr-2025</span>
                        </td>
                     </tr>
                  </table>
               </div>
            </text>
            <status value="completed"/>
            <vaccineCode>
               <coding>
                  <system value="http://snomed.info/sct"/>
                  <code value="1181000221105"/>
                  <display value="Vaccine product containing Influenza virus antigen"/>
               </coding>
               <coding>
                  <system value="http://www.whocc.no/atc"/>
                  <code value="J07BB02"/>
                  <display value="Influenza, inactivated, split virus"/>
               </coding>
               <text value="Influenza virus antigen only vaccine product"/>
            </vaccineCode>
            <patient>
               <reference value="urn:uuid:7ff15040-d3cc-4dbd-8d79-6d02aec111bb"/>
               <display value="Pamela Dixon"/>
            </patient>
            <occurrenceDateTime value="2025-04-19"/>
            <lotNumber value="UP-xZ0iJn"/>
            <expirationDate value="2025-09-30"/>
            <site>
               <coding>
                  <system value="http://snomed.info/sct"/>
                  <code value="244979005"/>
                  <display value="Entire muscle of upper arm"/>
               </coding>
               <text value="Entire muscle of upper arm"/>
            </site>
            <route>
               <coding>
                  <system value="http://snomed.info/sct"/>
                  <code value="78421000"/>
                  <display value="Intramuscular route"/>
               </coding>
               <text value="Intramuscular route"/>
            </route>
         </Immunization>
      </resource>
   </entry>
   <entry>
      <fullUrl value="urn:uuid:d22edd81-c600-4d46-a1d9-2c92b13b7239"/>
      <resource>
         <Immunization>
            <id value="d22edd81-c600-4d46-a1d9-2c92b13b7239"/>
            <meta>
               <profile value="http://hl7.org/fhir/uv/ips/StructureDefinition/Immunization-uv-ips"/>
            </meta>
            <text>
               <status value="generated"/>
               <div xmlns="http://www.w3.org/1999/xhtml">
                  <table class="hl7__ips">
                     <tr>
                        <td>Clostridium tetani toxoid antigen adsorbed only vaccine product</td>
                        <td>
                           <span class="nb">27-Mar-2021</span>
                        </td>
                     </tr>
                  </table>
               </div>
            </text>
            <status value="completed"/>
            <vaccineCode>
               <coding>
                  <system value="http://snomed.info/sct"/>
                  <code value="777725002"/>
                  <display value="Vaccine product containing only Clostridium tetani toxoid antigen adsorbed"/>
               </coding>
               <coding>
                  <system value="http://www.whocc.no/atc"/>
                  <code value="J07AM51"/>
                  <display value="Diphtheria-tetanus vaccines, adult type"/>
               </coding>
               <text value="Clostridium tetani toxoid antigen adsorbed only vaccine product"/>
            </vaccineCode>
            <patient>
               <reference value="urn:uuid:7ff15040-d3cc-4dbd-8d79-6d02aec111bb"/>
               <display value="Pamela Dixon"/>
            </patient>
            <occurrenceDateTime value="2021-03-27"/>
            <lotNumber value="TS-1xJr2v"/>
            <expirationDate value="2021-05-05"/>
            <site>
               <coding>
                  <system value="http://snomed.info/sct"/>
                  <code value="244979005"/>
                  <display value="Entire muscle of upper arm"/>
               </coding>
               <text value="Entire muscle of upper arm"/>
            </site>
            <route>
               <coding>
                  <system value="http://snomed.info/sct"/>
                  <code value="78421000"/>
                  <display value="Intramuscular route"/>
               </coding>
               <text value="Intramuscular route"/>
            </route>
         </Immunization>
      </resource>
   </entry>
   <entry>
      <fullUrl value="urn:uuid:db43fc8c-783a-4552-b561-1ff8da8d6d00"/>
      <resource>
         <Procedure>
            <id value="db43fc8c-783a-4552-b561-1ff8da8d6d00"/>
            <meta>
               <profile value="http://hl7.org/fhir/uv/ips/StructureDefinition/Procedure-uv-ips"/>
            </meta>
            <text>
               <status value="generated"/>
               <div xmlns="http://www.w3.org/1999/xhtml">
                  <table class="hl7__ips">
                     <tr>
                        <td>Medical induction of labor</td>
                        <td>
                           <span class="nb">30-Jun-2018</span>
                        </td>
                        <td>Normal pregnancy</td>
                     </tr>
                  </table>
               </div>
            </text>
            <status value="completed"/>
            <code>
               <coding>
                  <system value="http://snomed.info/sct"/>
                  <code value="31208007"/>
                  <display value="Medical induction of labor"/>
               </coding>
               <text value="Medical induction of labor"/>
            </code>
            <subject>
               <reference value="urn:uuid:"/>
               <display value="Pamela Dixon"/>
            </subject>
            <performedDateTime value="2018-06-30"/>
            <reasonCode>
               <coding>
                  <system value="http://snomed.info/sct"/>
                  <code value="72892002"/>
                  <display value="Normal pregnancy"/>
               </coding>
            </reasonCode>
         </Procedure>
      </resource>
   </entry>
   <entry>
      <fullUrl value="urn:uuid:73690938-ff5b-41a1-b422-2bcbfa36d098"/>
      <resource>
         <Procedure>
            <id value="73690938-ff5b-41a1-b422-2bcbfa36d098"/>
            <meta>
               <profile value="http://hl7.org/fhir/uv/ips/StructureDefinition/Procedure-uv-ips"/>
            </meta>
            <text>
               <status value="generated"/>
               <div xmlns="http://www.w3.org/1999/xhtml">
                  <table class="hl7__ips">
                     <tr>
                        <td>Parturition</td>
                        <td>
                           <span class="nb">30-Jun-2018</span>
                        </td>
                        <td>Normal pregnancy</td>
                     </tr>
                  </table>
               </div>
            </text>
            <status value="completed"/>
            <code>
               <coding>
                  <system value="http://snomed.info/sct"/>
                  <code value="66348005"/>
                  <display value="Childbirth"/>
               </coding>
               <text value="Parturition"/>
            </code>
            <subject>
               <reference value="urn:uuid:"/>
               <display value="Pamela Dixon"/>
            </subject>
            <performedDateTime value="2018-06-30"/>
            <reasonCode>
               <coding>
                  <system value="http://snomed.info/sct"/>
                  <code value="72892002"/>
                  <display value="Normal pregnancy"/>
               </coding>
            </reasonCode>
         </Procedure>
      </resource>
   </entry>
   <entry>
      <fullUrl value="urn:uuid:3341e128-85b5-4d23-a5aa-25d740dd5572"/>
      <resource>
         <AllergyIntolerance>
            <id value="3341e128-85b5-4d23-a5aa-25d740dd5572"/>
            <meta>
               <profile value="http://hl7.eu/fhir/eps/StructureDefinition/allergyIntolerance-eu-eps"/>
            </meta>
            <text>
               <status value="generated"/>
               <div xmlns="http://www.w3.org/1999/xhtml">
                  <table class="hl7__ips">
                     <tr>
                        <th>Allergy/Intolerance</th>
                        <th>Onset Date</th>
                        <th>Status</th>
                        <th>Type</th>
                        <th>Reaction</th>
                     </tr>
                     <tr>
                        <td/>
                        <td>?</td>
                        <td>active</td>
                        <td>?</td>
                        <td/>
                     </tr>
                  </table>
               </div>
            </text>
            <clinicalStatus>
               <coding>
                  <system value="http://terminology.hl7.org/CodeSystem/allergyintolerance-clinical"/>
                  <code value="active"/>
               </coding>
            </clinicalStatus>
            <verificationStatus>
               <coding>
                  <system value="http://terminology.hl7.org/CodeSystem/allergyintolerance-verification"/>
                  <code value="confirmed"/>
               </coding>
            </verificationStatus>
            <code>
               <text/>
            </code>
            <patient>
               <reference value="urn:uuid:7ff15040-d3cc-4dbd-8d79-6d02aec111bb"/>
               <display value="Pamela Dixon"/>
            </patient>
            <onsetDateTime>
               <extension url="http://hl7.org/fhir/StructureDefinition/data-absent-reason">
                  <valueCode value="unknown"/>
               </extension>
            </onsetDateTime>
         </AllergyIntolerance>
      </resource>
   </entry>
   <entry>
      <fullUrl value="urn:uuid:0ab1b012-00ed-4e71-90ce-49fbc16c7ea1"/>
      <resource>
         <CarePlan>
            <id value="0ab1b012-00ed-4e71-90ce-49fbc16c7ea1"/>
            <text>
               <status value="generated"/>
               <div xmlns="http://www.w3.org/1999/xhtml">
                  <table class="hl7__ips first25">
                     <tr>
                        <th>Active Planned Care / Goals</th>
                        <th>Start Date</th>
                        <th>Reason</th>
                     </tr>
                     <tr>
                        <td>Therapy</td>
                        <td>
                           <span class="nb">17-Mar-2014</span>
                        </td>
                        <td>-</td>
                     </tr>
                  </table>
               </div>
            </text>
            <status value="active"/>
            <intent value="plan"/>
            <category>
               <coding>
                  <system value="http://terminology.hl7.org/CodeSystem/care-plan-category"/>
                  <code value="assess-plan"/>
                  <display value="Assessment and Plan"/>
               </coding>
            </category>
            <subject>
               <reference value="urn:uuid:7ff15040-d3cc-4dbd-8d79-6d02aec111bb"/>
               <display value="Pamela Dixon"/>
            </subject>
            <period>
               <start value="2014-03-17"/>
            </period>
            <activity>
               <detail>
                  <kind value="Appointment"/>
                  <code>
                     <coding>
                        <system value="http://snomed.info/sct"/>
                        <code value="276239002"/>
                        <display value="Therapy (regime/therapy)"/>
                     </coding>
                  </code>
                  <status value="unknown"/>
                  <description value="Therapy"/>
               </detail>
            </activity>
         </CarePlan>
      </resource>
   </entry>
   <entry>
      <fullUrl value="urn:uuid:7c41db11-2958-4652-905d-01706c8d9e06"/>
      <resource>
         <Observation>
            <id value="7c41db11-2958-4652-905d-01706c8d9e06"/>
            <meta>
               <profile value="http://hl7.org/fhir/StructureDefinition/vitalsigns"/>
            </meta>
            <text>
               <status value="generated"/>
               <div xmlns="http://www.w3.org/1999/xhtml">
                  <table class="hl7__ips">
                     <tr>
                        <th>Vital Sign</th>
                        <th>Date</th>
                        <th>Measurement</th>
                     </tr>
                     <tr>
                        <td>Body Height</td>
                        <td>19-Apr-2025</td>
                        <td>150 cm</td>
                     </tr>
                  </table>
               </div>
            </text>
            <status value="final"/>
            <category>
               <coding>
                  <system value="http://terminology.hl7.org/CodeSystem/observation-category"/>
                  <code value="vital-signs"/>
                  <display value="Vital Signs"/>
               </coding>
            </category>
            <code>
               <coding>
                  <system value="http://loinc.org"/>
                  <code value="$8302-2"/>
                  <display value="Body Height"/>
               </coding>
            </code>
            <subject>
               <reference value="urn:uuid:7ff15040-d3cc-4dbd-8d79-6d02aec111bb"/>
               <display value="Pamela Dixon"/>
            </subject>
            <effectiveDateTime value="2025-04-19"/>
            <valueQuantity>
               <value value="150"/>
               <unit value="cm"/>
               <code value="cm"/>
            </valueQuantity>
         </Observation>
      </resource>
   </entry>
   <entry>
      <fullUrl value="urn:uuid:b10364e4-5042-4e66-904d-9f5903723b80"/>
      <resource>
         <Observation>
            <id value="b10364e4-5042-4e66-904d-9f5903723b80"/>
            <meta>
               <profile value="http://hl7.org/fhir/StructureDefinition/vitalsigns"/>
            </meta>
            <text>
               <status value="generated"/>
               <div xmlns="http://www.w3.org/1999/xhtml">
                  <table class="hl7__ips">
                     <tr>
                        <th>Vital Sign</th>
                        <th>Date</th>
                        <th>Measurement</th>
                     </tr>
                     <tr>
                        <td>Pain severity - 0-10 verbal numeric rating [Score] - Reported</td>
                        <td>19-Apr-2025</td>
                        <td>3 {score}</td>
                     </tr>
                  </table>
               </div>
            </text>
            <status value="final"/>
            <category>
               <coding>
                  <system value="http://terminology.hl7.org/CodeSystem/observation-category"/>
                  <code value="vital-signs"/>
                  <display value="Vital Signs"/>
               </coding>
            </category>
            <code>
               <coding>
                  <system value="http://loinc.org"/>
                  <code value="$72514-3"/>
                  <display value="Pain severity - 0-10 verbal numeric rating [Score] - Reported"/>
               </coding>
            </code>
            <subject>
               <reference value="urn:uuid:7ff15040-d3cc-4dbd-8d79-6d02aec111bb"/>
               <display value="Pamela Dixon"/>
            </subject>
            <effectiveDateTime value="2025-04-19"/>
            <valueQuantity>
               <value value="3"/>
               <unit value="{score}"/>
               <code value="{score}"/>
            </valueQuantity>
         </Observation>
      </resource>
   </entry>
   <entry>
      <fullUrl value="urn:uuid:457acd83-d75c-4ef3-9714-8be485a9ff3a"/>
      <resource>
         <Observation>
            <id value="457acd83-d75c-4ef3-9714-8be485a9ff3a"/>
            <meta>
               <profile value="http://hl7.org/fhir/StructureDefinition/vitalsigns"/>
            </meta>
            <text>
               <status value="generated"/>
               <div xmlns="http://www.w3.org/1999/xhtml">
                  <table class="hl7__ips">
                     <tr>
                        <th>Vital Sign</th>
                        <th>Date</th>
                        <th>Measurement</th>
                     </tr>
                     <tr>
                        <td>Body Weight</td>
                        <td>19-Apr-2025</td>
                        <td>68.2 kg</td>
                     </tr>
                  </table>
               </div>
            </text>
            <status value="final"/>
            <category>
               <coding>
                  <system value="http://terminology.hl7.org/CodeSystem/observation-category"/>
                  <code value="vital-signs"/>
                  <display value="Vital Signs"/>
               </coding>
            </category>
            <code>
               <coding>
                  <system value="http://loinc.org"/>
                  <code value="$29463-7"/>
                  <display value="Body Weight"/>
               </coding>
            </code>
            <subject>
               <reference value="urn:uuid:7ff15040-d3cc-4dbd-8d79-6d02aec111bb"/>
               <display value="Pamela Dixon"/>
            </subject>
            <effectiveDateTime value="2025-04-19"/>
            <valueQuantity>
               <value value="68.2"/>
               <unit value="kg"/>
               <code value="kg"/>
            </valueQuantity>
         </Observation>
      </resource>
   </entry>
   <entry>
      <fullUrl value="urn:uuid:2b8a57b3-d879-4270-9813-011b09f28614"/>
      <resource>
         <Observation>
            <id value="2b8a57b3-d879-4270-9813-011b09f28614"/>
            <meta>
               <profile value="http://hl7.org/fhir/StructureDefinition/vitalsigns"/>
            </meta>
            <text>
               <status value="generated"/>
               <div xmlns="http://www.w3.org/1999/xhtml">
                  <table class="hl7__ips">
                     <tr>
                        <th>Vital Sign</th>
                        <th>Date</th>
                        <th>Measurement</th>
                     </tr>
                     <tr>
                        <td>Body mass index (BMI) [Ratio]</td>
                        <td>19-Apr-2025</td>
                        <td>30.3 kg/m2</td>
                     </tr>
                  </table>
               </div>
            </text>
            <status value="final"/>
            <category>
               <coding>
                  <system value="http://terminology.hl7.org/CodeSystem/observation-category"/>
                  <code value="vital-signs"/>
                  <display value="Vital Signs"/>
               </coding>
            </category>
            <code>
               <coding>
                  <system value="http://loinc.org"/>
                  <code value="$39156-5"/>
                  <display value="Body mass index (BMI) [Ratio]"/>
               </coding>
            </code>
            <subject>
               <reference value="urn:uuid:7ff15040-d3cc-4dbd-8d79-6d02aec111bb"/>
               <display value="Pamela Dixon"/>
            </subject>
            <effectiveDateTime value="2025-04-19"/>
            <valueQuantity>
               <value value="30.3"/>
               <unit value="kg/m2"/>
               <code value="kg/m2"/>
            </valueQuantity>
         </Observation>
      </resource>
   </entry>
   <entry>
      <fullUrl value="urn:uuid:01523078-73a2-42e7-a0e0-9209ae3d5d51"/>
      <resource>
         <Observation>
            <id value="01523078-73a2-42e7-a0e0-9209ae3d5d51"/>
            <meta>
               <profile value="http://hl7.org/fhir/StructureDefinition/vitalsigns"/>
            </meta>
            <text>
               <status value="generated"/>
               <div xmlns="http://www.w3.org/1999/xhtml">
                  <table class="hl7__ips">
                     <tr>
                        <th>Vital Sign</th>
                        <th>Date</th>
                        <th>Measurement</th>
                     </tr>
                     <tr>
                        <td>Diastolic Blood Pressure</td>
                        <td>19-Apr-2025</td>
                        <td>67 mm[Hg]</td>
                     </tr>
                  </table>
               </div>
            </text>
            <status value="final"/>
            <category>
               <coding>
                  <system value="http://terminology.hl7.org/CodeSystem/observation-category"/>
                  <code value="vital-signs"/>
                  <display value="Vital Signs"/>
               </coding>
            </category>
            <code>
               <coding>
                  <system value="http://loinc.org"/>
                  <code value="$8462-4"/>
                  <display value="Diastolic Blood Pressure"/>
               </coding>
            </code>
            <subject>
               <reference value="urn:uuid:7ff15040-d3cc-4dbd-8d79-6d02aec111bb"/>
               <display value="Pamela Dixon"/>
            </subject>
            <effectiveDateTime value="2025-04-19"/>
            <valueQuantity>
               <value value="67"/>
               <unit value="mm[Hg]"/>
               <code value="mm[Hg]"/>
            </valueQuantity>
         </Observation>
      </resource>
   </entry>
   <entry>
      <fullUrl value="urn:uuid:9422b8ea-0c52-47ab-8fc5-1c28b98eda71"/>
      <resource>
         <Observation>
            <id value="9422b8ea-0c52-47ab-8fc5-1c28b98eda71"/>
            <meta>
               <profile value="http://hl7.org/fhir/StructureDefinition/vitalsigns"/>
            </meta>
            <text>
               <status value="generated"/>
               <div xmlns="http://www.w3.org/1999/xhtml">
                  <table class="hl7__ips">
                     <tr>
                        <th>Vital Sign</th>
                        <th>Date</th>
                        <th>Measurement</th>
                     </tr>
                     <tr>
                        <td>Systolic Blood Pressure</td>
                        <td>19-Apr-2025</td>
                        <td>92 mm[Hg]</td>
                     </tr>
                  </table>
               </div>
            </text>
            <status value="final"/>
            <category>
               <coding>
                  <system value="http://terminology.hl7.org/CodeSystem/observation-category"/>
                  <code value="vital-signs"/>
                  <display value="Vital Signs"/>
               </coding>
            </category>
            <code>
               <coding>
                  <system value="http://loinc.org"/>
                  <code value="$8480-6"/>
                  <display value="Systolic Blood Pressure"/>
               </coding>
            </code>
            <subject>
               <reference value="urn:uuid:7ff15040-d3cc-4dbd-8d79-6d02aec111bb"/>
               <display value="Pamela Dixon"/>
            </subject>
            <effectiveDateTime value="2025-04-19"/>
            <valueQuantity>
               <value value="92"/>
               <unit value="mm[Hg]"/>
               <code value="mm[Hg]"/>
            </valueQuantity>
         </Observation>
      </resource>
   </entry>
   <entry>
      <fullUrl value="urn:uuid:dde40f6b-4704-454b-a458-15414f7d07d5"/>
      <resource>
         <Observation>
            <id value="dde40f6b-4704-454b-a458-15414f7d07d5"/>
            <meta>
               <profile value="http://hl7.org/fhir/StructureDefinition/vitalsigns"/>
            </meta>
            <text>
               <status value="generated"/>
               <div xmlns="http://www.w3.org/1999/xhtml">
                  <table class="hl7__ips">
                     <tr>
                        <th>Vital Sign</th>
                        <th>Date</th>
                        <th>Measurement</th>
                     </tr>
                     <tr>
                        <td>Heart rate</td>
                        <td>19-Apr-2025</td>
                        <td>86 /min</td>
                     </tr>
                  </table>
               </div>
            </text>
            <status value="final"/>
            <category>
               <coding>
                  <system value="http://terminology.hl7.org/CodeSystem/observation-category"/>
                  <code value="vital-signs"/>
                  <display value="Vital Signs"/>
               </coding>
            </category>
            <code>
               <coding>
                  <system value="http://loinc.org"/>
                  <code value="$8867-4"/>
                  <display value="Heart rate"/>
               </coding>
            </code>
            <subject>
               <reference value="urn:uuid:7ff15040-d3cc-4dbd-8d79-6d02aec111bb"/>
               <display value="Pamela Dixon"/>
            </subject>
            <effectiveDateTime value="2025-04-19"/>
            <valueQuantity>
               <value value="86"/>
               <unit value="/min"/>
               <code value="/min"/>
            </valueQuantity>
         </Observation>
      </resource>
   </entry>
   <entry>
      <fullUrl value="urn:uuid:5b90585a-e18b-48ed-be51-33fe2085881f"/>
      <resource>
         <Observation>
            <id value="5b90585a-e18b-48ed-be51-33fe2085881f"/>
            <meta>
               <profile value="http://hl7.org/fhir/StructureDefinition/vitalsigns"/>
            </meta>
            <text>
               <status value="generated"/>
               <div xmlns="http://www.w3.org/1999/xhtml">
                  <table class="hl7__ips">
                     <tr>
                        <th>Vital Sign</th>
                        <th>Date</th>
                        <th>Measurement</th>
                     </tr>
                     <tr>
                        <td>Respiratory rate</td>
                        <td>19-Apr-2025</td>
                        <td>14 /min</td>
                     </tr>
                  </table>
               </div>
            </text>
            <status value="final"/>
            <category>
               <coding>
                  <system value="http://terminology.hl7.org/CodeSystem/observation-category"/>
                  <code value="vital-signs"/>
                  <display value="Vital Signs"/>
               </coding>
            </category>
            <code>
               <coding>
                  <system value="http://loinc.org"/>
                  <code value="$9279-1"/>
                  <display value="Respiratory rate"/>
               </coding>
            </code>
            <subject>
               <reference value="urn:uuid:7ff15040-d3cc-4dbd-8d79-6d02aec111bb"/>
               <display value="Pamela Dixon"/>
            </subject>
            <effectiveDateTime value="2025-04-19"/>
            <valueQuantity>
               <value value="14"/>
               <unit value="/min"/>
               <code value="/min"/>
            </valueQuantity>
         </Observation>
      </resource>
   </entry>
   <entry>
      <fullUrl value="urn:uuid:b9a5ba2a-4ae7-4d1a-bd90-50b83d155571"/>
      <resource>
         <Observation>
            <id value="b9a5ba2a-4ae7-4d1a-bd90-50b83d155571"/>
            <meta>
               <profile value="http://hl7.org/fhir/StructureDefinition/vitalsigns"/>
            </meta>
            <text>
               <status value="generated"/>
               <div xmlns="http://www.w3.org/1999/xhtml">
                  <table class="hl7__ips">
                     <tr>
                        <th>Vital Sign</th>
                        <th>Date</th>
                        <th>Measurement</th>
                     </tr>
                     <tr>
                        <td>Body Height</td>
                        <td>13-Apr-2024</td>
                        <td>150 cm</td>
                     </tr>
                  </table>
               </div>
            </text>
            <status value="final"/>
            <category>
               <coding>
                  <system value="http://terminology.hl7.org/CodeSystem/observation-category"/>
                  <code value="vital-signs"/>
                  <display value="Vital Signs"/>
               </coding>
            </category>
            <code>
               <coding>
                  <system value="http://loinc.org"/>
                  <code value="$8302-2"/>
                  <display value="Body Height"/>
               </coding>
            </code>
            <subject>
               <reference value="urn:uuid:7ff15040-d3cc-4dbd-8d79-6d02aec111bb"/>
               <display value="Pamela Dixon"/>
            </subject>
            <effectiveDateTime value="2024-04-13"/>
            <valueQuantity>
               <value value="150"/>
               <unit value="cm"/>
               <code value="cm"/>
            </valueQuantity>
         </Observation>
      </resource>
   </entry>
   <entry>
      <fullUrl value="urn:uuid:ea49cef1-fa31-4479-af46-9f4c03566766"/>
      <resource>
         <Observation>
            <id value="ea49cef1-fa31-4479-af46-9f4c03566766"/>
            <meta>
               <profile value="http://hl7.org/fhir/StructureDefinition/vitalsigns"/>
            </meta>
            <text>
               <status value="generated"/>
               <div xmlns="http://www.w3.org/1999/xhtml">
                  <table class="hl7__ips">
                     <tr>
                        <th>Vital Sign</th>
                        <th>Date</th>
                        <th>Measurement</th>
                     </tr>
                     <tr>
                        <td>Pain severity - 0-10 verbal numeric rating [Score] - Reported</td>
                        <td>13-Apr-2024</td>
                        <td>3 {score}</td>
                     </tr>
                  </table>
               </div>
            </text>
            <status value="final"/>
            <category>
               <coding>
                  <system value="http://terminology.hl7.org/CodeSystem/observation-category"/>
                  <code value="vital-signs"/>
                  <display value="Vital Signs"/>
               </coding>
            </category>
            <code>
               <coding>
                  <system value="http://loinc.org"/>
                  <code value="$72514-3"/>
                  <display value="Pain severity - 0-10 verbal numeric rating [Score] - Reported"/>
               </coding>
            </code>
            <subject>
               <reference value="urn:uuid:7ff15040-d3cc-4dbd-8d79-6d02aec111bb"/>
               <display value="Pamela Dixon"/>
            </subject>
            <effectiveDateTime value="2024-04-13"/>
            <valueQuantity>
               <value value="3"/>
               <unit value="{score}"/>
               <code value="{score}"/>
            </valueQuantity>
         </Observation>
      </resource>
   </entry>
   <entry>
      <fullUrl value="urn:uuid:3f57ec56-2b89-4eba-8fc8-103dec968059"/>
      <resource>
         <Observation>
            <id value="3f57ec56-2b89-4eba-8fc8-103dec968059"/>
            <meta>
               <profile value="http://hl7.org/fhir/StructureDefinition/vitalsigns"/>
            </meta>
            <text>
               <status value="generated"/>
               <div xmlns="http://www.w3.org/1999/xhtml">
                  <table class="hl7__ips">
                     <tr>
                        <th>Vital Sign</th>
                        <th>Date</th>
                        <th>Measurement</th>
                     </tr>
                     <tr>
                        <td>Body Weight</td>
                        <td>13-Apr-2024</td>
                        <td>68.2 kg</td>
                     </tr>
                  </table>
               </div>
            </text>
            <status value="final"/>
            <category>
               <coding>
                  <system value="http://terminology.hl7.org/CodeSystem/observation-category"/>
                  <code value="vital-signs"/>
                  <display value="Vital Signs"/>
               </coding>
            </category>
            <code>
               <coding>
                  <system value="http://loinc.org"/>
                  <code value="$29463-7"/>
                  <display value="Body Weight"/>
               </coding>
            </code>
            <subject>
               <reference value="urn:uuid:7ff15040-d3cc-4dbd-8d79-6d02aec111bb"/>
               <display value="Pamela Dixon"/>
            </subject>
            <effectiveDateTime value="2024-04-13"/>
            <valueQuantity>
               <value value="68.2"/>
               <unit value="kg"/>
               <code value="kg"/>
            </valueQuantity>
         </Observation>
      </resource>
   </entry>
   <entry>
      <fullUrl value="urn:uuid:1cd746c5-17aa-4cc2-bc8d-e32a900e9c9c"/>
      <resource>
         <Observation>
            <id value="1cd746c5-17aa-4cc2-bc8d-e32a900e9c9c"/>
            <meta>
               <profile value="http://hl7.org/fhir/StructureDefinition/vitalsigns"/>
            </meta>
            <text>
               <status value="generated"/>
               <div xmlns="http://www.w3.org/1999/xhtml">
                  <table class="hl7__ips">
                     <tr>
                        <th>Vital Sign</th>
                        <th>Date</th>
                        <th>Measurement</th>
                     </tr>
                     <tr>
                        <td>Body mass index (BMI) [Ratio]</td>
                        <td>13-Apr-2024</td>
                        <td>30.3 kg/m2</td>
                     </tr>
                  </table>
               </div>
            </text>
            <status value="final"/>
            <category>
               <coding>
                  <system value="http://terminology.hl7.org/CodeSystem/observation-category"/>
                  <code value="vital-signs"/>
                  <display value="Vital Signs"/>
               </coding>
            </category>
            <code>
               <coding>
                  <system value="http://loinc.org"/>
                  <code value="$39156-5"/>
                  <display value="Body mass index (BMI) [Ratio]"/>
               </coding>
            </code>
            <subject>
               <reference value="urn:uuid:7ff15040-d3cc-4dbd-8d79-6d02aec111bb"/>
               <display value="Pamela Dixon"/>
            </subject>
            <effectiveDateTime value="2024-04-13"/>
            <valueQuantity>
               <value value="30.3"/>
               <unit value="kg/m2"/>
               <code value="kg/m2"/>
            </valueQuantity>
         </Observation>
      </resource>
   </entry>
   <entry>
      <fullUrl value="urn:uuid:09fdd4ab-f03c-4656-9487-477599eeb655"/>
      <resource>
         <Observation>
            <id value="09fdd4ab-f03c-4656-9487-477599eeb655"/>
            <meta>
               <profile value="http://hl7.org/fhir/StructureDefinition/vitalsigns"/>
            </meta>
            <text>
               <status value="generated"/>
               <div xmlns="http://www.w3.org/1999/xhtml">
                  <table class="hl7__ips">
                     <tr>
                        <th>Vital Sign</th>
                        <th>Date</th>
                        <th>Measurement</th>
                     </tr>
                     <tr>
                        <td>Diastolic Blood Pressure</td>
                        <td>13-Apr-2024</td>
                        <td>70 mm[Hg]</td>
                     </tr>
                  </table>
               </div>
            </text>
            <status value="final"/>
            <category>
               <coding>
                  <system value="http://terminology.hl7.org/CodeSystem/observation-category"/>
                  <code value="vital-signs"/>
                  <display value="Vital Signs"/>
               </coding>
            </category>
            <code>
               <coding>
                  <system value="http://loinc.org"/>
                  <code value="$8462-4"/>
                  <display value="Diastolic Blood Pressure"/>
               </coding>
            </code>
            <subject>
               <reference value="urn:uuid:7ff15040-d3cc-4dbd-8d79-6d02aec111bb"/>
               <display value="Pamela Dixon"/>
            </subject>
            <effectiveDateTime value="2024-04-13"/>
            <valueQuantity>
               <value value="70"/>
               <unit value="mm[Hg]"/>
               <code value="mm[Hg]"/>
            </valueQuantity>
         </Observation>
      </resource>
   </entry>
   <entry>
      <fullUrl value="urn:uuid:d9230d41-ab49-4b34-a046-00c5e8432c13"/>
      <resource>
         <Observation>
            <id value="d9230d41-ab49-4b34-a046-00c5e8432c13"/>
            <meta>
               <profile value="http://hl7.org/fhir/StructureDefinition/vitalsigns"/>
            </meta>
            <text>
               <status value="generated"/>
               <div xmlns="http://www.w3.org/1999/xhtml">
                  <table class="hl7__ips">
                     <tr>
                        <th>Vital Sign</th>
                        <th>Date</th>
                        <th>Measurement</th>
                     </tr>
                     <tr>
                        <td>Systolic Blood Pressure</td>
                        <td>13-Apr-2024</td>
                        <td>93 mm[Hg]</td>
                     </tr>
                  </table>
               </div>
            </text>
            <status value="final"/>
            <category>
               <coding>
                  <system value="http://terminology.hl7.org/CodeSystem/observation-category"/>
                  <code value="vital-signs"/>
                  <display value="Vital Signs"/>
               </coding>
            </category>
            <code>
               <coding>
                  <system value="http://loinc.org"/>
                  <code value="$8480-6"/>
                  <display value="Systolic Blood Pressure"/>
               </coding>
            </code>
            <subject>
               <reference value="urn:uuid:7ff15040-d3cc-4dbd-8d79-6d02aec111bb"/>
               <display value="Pamela Dixon"/>
            </subject>
            <effectiveDateTime value="2024-04-13"/>
            <valueQuantity>
               <value value="93"/>
               <unit value="mm[Hg]"/>
               <code value="mm[Hg]"/>
            </valueQuantity>
         </Observation>
      </resource>
   </entry>
   <entry>
      <fullUrl value="urn:uuid:eb6d7e29-d6b5-4913-a91b-1b2ef4276d1c"/>
      <resource>
         <Observation>
            <id value="eb6d7e29-d6b5-4913-a91b-1b2ef4276d1c"/>
            <meta>
               <profile value="http://hl7.org/fhir/StructureDefinition/vitalsigns"/>
            </meta>
            <text>
               <status value="generated"/>
               <div xmlns="http://www.w3.org/1999/xhtml">
                  <table class="hl7__ips">
                     <tr>
                        <th>Vital Sign</th>
                        <th>Date</th>
                        <th>Measurement</th>
                     </tr>
                     <tr>
                        <td>Heart rate</td>
                        <td>13-Apr-2024</td>
                        <td>99 /min</td>
                     </tr>
                  </table>
               </div>
            </text>
            <status value="final"/>
            <category>
               <coding>
                  <system value="http://terminology.hl7.org/CodeSystem/observation-category"/>
                  <code value="vital-signs"/>
                  <display value="Vital Signs"/>
               </coding>
            </category>
            <code>
               <coding>
                  <system value="http://loinc.org"/>
                  <code value="$8867-4"/>
                  <display value="Heart rate"/>
               </coding>
            </code>
            <subject>
               <reference value="urn:uuid:7ff15040-d3cc-4dbd-8d79-6d02aec111bb"/>
               <display value="Pamela Dixon"/>
            </subject>
            <effectiveDateTime value="2024-04-13"/>
            <valueQuantity>
               <value value="99"/>
               <unit value="/min"/>
               <code value="/min"/>
            </valueQuantity>
         </Observation>
      </resource>
   </entry>
   <entry>
      <fullUrl value="urn:uuid:f4584f57-9779-4869-91ae-1821e1840d12"/>
      <resource>
         <Observation>
            <id value="f4584f57-9779-4869-91ae-1821e1840d12"/>
            <meta>
               <profile value="http://hl7.org/fhir/StructureDefinition/vitalsigns"/>
            </meta>
            <text>
               <status value="generated"/>
               <div xmlns="http://www.w3.org/1999/xhtml">
                  <table class="hl7__ips">
                     <tr>
                        <th>Vital Sign</th>
                        <th>Date</th>
                        <th>Measurement</th>
                     </tr>
                     <tr>
                        <td>Respiratory rate</td>
                        <td>13-Apr-2024</td>
                        <td>13 /min</td>
                     </tr>
                  </table>
               </div>
            </text>
            <status value="final"/>
            <category>
               <coding>
                  <system value="http://terminology.hl7.org/CodeSystem/observation-category"/>
                  <code value="vital-signs"/>
                  <display value="Vital Signs"/>
               </coding>
            </category>
            <code>
               <coding>
                  <system value="http://loinc.org"/>
                  <code value="$9279-1"/>
                  <display value="Respiratory rate"/>
               </coding>
            </code>
            <subject>
               <reference value="urn:uuid:7ff15040-d3cc-4dbd-8d79-6d02aec111bb"/>
               <display value="Pamela Dixon"/>
            </subject>
            <effectiveDateTime value="2024-04-13"/>
            <valueQuantity>
               <value value="13"/>
               <unit value="/min"/>
               <code value="/min"/>
            </valueQuantity>
         </Observation>
      </resource>
   </entry>
   <entry>
      <fullUrl value="urn:uuid:5b099fcf-0ec6-4515-8a82-bd1568af09f8"/>
      <resource>
         <Observation>
            <id value="5b099fcf-0ec6-4515-8a82-bd1568af09f8"/>
            <meta>
               <profile value="http://hl7.eu/fhir/laboratory/StructureDefinition/Observation-resultslab-eu-lab"/>
            </meta>
            <text>
               <status value="generated"/>
               <div xmlns="http://www.w3.org/1999/xhtml">
                  <table class="hl7__eu__lab__report">
                     <tr>
                        <th>Test</th>
                        <th>08-Apr-2023</th>
                        <th>Reference Range</th>
                        <th>Unit</th>
                     </tr>
                     <tr>
                        <td>Cholesterol [Mass/volume] in Serum or Plasma</td>
                        <td>194.8</td>
                        <td>125 - 200</td>
                        <td/>
                        <td>mg/dL</td>
                     </tr>
                  </table>
               </div>
            </text>
            <status value="final"/>
            <category>
               <coding>
                  <system value="http://terminology.hl7.org/CodeSystem/observation-category"/>
                  <code value="laboratory"/>
               </coding>
            </category>
            <code>
               <coding>
                  <system value="http://loinc.org"/>
                  <code value="2093-3"/>
                  <display value="Cholesterol [Mass/volume] in Serum or Plasma"/>
               </coding>
               <text value="Cholesterol [Mass/volume] in Serum or Plasma"/>
            </code>
            <subject>
               <reference value="urn:uuid:7ff15040-d3cc-4dbd-8d79-6d02aec111bb"/>
               <display value="Pamela Dixon"/>
            </subject>
            <effectiveDateTime value="2023-04-08T18:20:37Z"/>
            <performer>
               <display value="The Central European Lab"/>
            </performer>
            <valueQuantity>
               <value value="194.8"/>
               <unit value="mg/dL"/>
               <system value="http://unitsofmeasure.org"/>
               <code value="mg/dL"/>
            </valueQuantity>
            <referenceRange>
               <low>
                  <value value="125"/>
                  <system value="http://unitsofmeasure.org"/>
                  <code value="mg/dL"/>
               </low>
            </referenceRange>
            <referenceRange>
               <high>
                  <value value="200"/>
                  <system value="http://unitsofmeasure.org"/>
                  <code value="mg/dL"/>
               </high>
            </referenceRange>
         </Observation>
      </resource>
   </entry>
   <entry>
      <fullUrl value="urn:uuid:5ef6e20f-15fe-4b7f-908b-4750edf14ef0"/>
      <resource>
         <Observation>
            <id value="5ef6e20f-15fe-4b7f-908b-4750edf14ef0"/>
            <meta>
               <profile value="http://hl7.eu/fhir/laboratory/StructureDefinition/Observation-resultslab-eu-lab"/>
            </meta>
            <text>
               <status value="generated"/>
               <div xmlns="http://www.w3.org/1999/xhtml">
                  <table class="hl7__eu__lab__report">
                     <tr>
                        <th>Test</th>
                        <th>08-Apr-2023</th>
                        <th>Reference Range</th>
                        <th>Unit</th>
                     </tr>
                     <tr>
                        <td>Triglyceride [Mass/volume] in Serum or Plasma</td>
                        <td>133.5</td>
                        <td>35 - 150</td>
                        <td/>
                        <td>mg/dL</td>
                     </tr>
                  </table>
               </div>
            </text>
            <status value="final"/>
            <category>
               <coding>
                  <system value="http://terminology.hl7.org/CodeSystem/observation-category"/>
                  <code value="laboratory"/>
               </coding>
            </category>
            <code>
               <coding>
                  <system value="http://loinc.org"/>
                  <code value="2571-8"/>
                  <display value="Triglyceride [Mass/volume] in Serum or Plasma"/>
               </coding>
               <text value="Triglyceride [Mass/volume] in Serum or Plasma"/>
            </code>
            <subject>
               <reference value="urn:uuid:7ff15040-d3cc-4dbd-8d79-6d02aec111bb"/>
               <display value="Pamela Dixon"/>
            </subject>
            <effectiveDateTime value="2023-04-08T18:20:37Z"/>
            <performer>
               <display value="The Central European Lab"/>
            </performer>
            <valueQuantity>
               <value value="133.5"/>
               <unit value="mg/dL"/>
               <system value="http://unitsofmeasure.org"/>
               <code value="mg/dL"/>
            </valueQuantity>
            <referenceRange>
               <low>
                  <value value="35"/>
                  <system value="http://unitsofmeasure.org"/>
                  <code value="mg/dL"/>
               </low>
            </referenceRange>
            <referenceRange>
               <high>
                  <value value="150"/>
                  <system value="http://unitsofmeasure.org"/>
                  <code value="mg/dL"/>
               </high>
            </referenceRange>
         </Observation>
      </resource>
   </entry>
   <entry>
      <fullUrl value="urn:uuid:f5c20339-be8f-45e5-9328-4bc7504a7746"/>
      <resource>
         <Observation>
            <id value="f5c20339-be8f-45e5-9328-4bc7504a7746"/>
            <meta>
               <profile value="http://hl7.eu/fhir/laboratory/StructureDefinition/Observation-resultslab-eu-lab"/>
            </meta>
            <text>
               <status value="generated"/>
               <div xmlns="http://www.w3.org/1999/xhtml">
                  <table class="hl7__eu__lab__report">
                     <tr>
                        <th>Test</th>
                        <th>08-Apr-2023</th>
                        <th>Reference Range</th>
                        <th>Unit</th>
                     </tr>
                     <tr>
                        <td>Cholesterol in LDL [Mass/volume] in Serum or Plasma by Direct assay</td>
                        <td>118.0</td>
                        <td>0 - 130</td>
                        <td/>
                        <td>mg/dL</td>
                     </tr>
                  </table>
               </div>
            </text>
            <status value="final"/>
            <category>
               <coding>
                  <system value="http://terminology.hl7.org/CodeSystem/observation-category"/>
                  <code value="laboratory"/>
               </coding>
            </category>
            <code>
               <coding>
                  <system value="http://loinc.org"/>
                  <code value="18262-6"/>
                  <display value="Cholesterol in LDL [Mass/volume] in Serum or Plasma by Direct assay"/>
               </coding>
               <text value="Cholesterol in LDL [Mass/volume] in Serum or Plasma by Direct assay"/>
            </code>
            <subject>
               <reference value="urn:uuid:7ff15040-d3cc-4dbd-8d79-6d02aec111bb"/>
               <display value="Pamela Dixon"/>
            </subject>
            <effectiveDateTime value="2023-04-08T18:20:37Z"/>
            <performer>
               <display value="The Central European Lab"/>
            </performer>
            <valueQuantity>
               <value value="118"/>
               <unit value="mg/dL"/>
               <system value="http://unitsofmeasure.org"/>
               <code value="mg/dL"/>
            </valueQuantity>
            <referenceRange>
               <low>
                  <value value="0"/>
                  <system value="http://unitsofmeasure.org"/>
                  <code value="mg/dL"/>
               </low>
            </referenceRange>
            <referenceRange>
               <high>
                  <value value="130"/>
                  <system value="http://unitsofmeasure.org"/>
                  <code value="mg/dL"/>
               </high>
            </referenceRange>
         </Observation>
      </resource>
   </entry>
   <entry>
      <fullUrl value="urn:uuid:24501766-5bad-445e-a92a-af859b0bd329"/>
      <resource>
         <Observation>
            <id value="24501766-5bad-445e-a92a-af859b0bd329"/>
            <meta>
               <profile value="http://hl7.eu/fhir/laboratory/StructureDefinition/Observation-resultslab-eu-lab"/>
            </meta>
            <text>
               <status value="generated"/>
               <div xmlns="http://www.w3.org/1999/xhtml">
                  <table class="hl7__eu__lab__report">
                     <tr>
                        <th>Test</th>
                        <th>08-Apr-2023</th>
                        <th>Reference Range</th>
                        <th>Unit</th>
                     </tr>
                     <tr>
                        <td>Cholesterol in HDL [Mass/volume] in Serum or Plasma</td>
                        <td>50.1</td>
                        <td>40 - 60</td>
                        <td/>
                        <td>mg/dL</td>
                     </tr>
                  </table>
               </div>
            </text>
            <status value="final"/>
            <category>
               <coding>
                  <system value="http://terminology.hl7.org/CodeSystem/observation-category"/>
                  <code value="laboratory"/>
               </coding>
            </category>
            <code>
               <coding>
                  <system value="http://loinc.org"/>
                  <code value="2085-9"/>
                  <display value="Cholesterol in HDL [Mass/volume] in Serum or Plasma"/>
               </coding>
               <text value="Cholesterol in HDL [Mass/volume] in Serum or Plasma"/>
            </code>
            <subject>
               <reference value="urn:uuid:7ff15040-d3cc-4dbd-8d79-6d02aec111bb"/>
               <display value="Pamela Dixon"/>
            </subject>
            <effectiveDateTime value="2023-04-08T18:20:37Z"/>
            <performer>
               <display value="The Central European Lab"/>
            </performer>
            <valueQuantity>
               <value value="50.1"/>
               <unit value="mg/dL"/>
               <system value="http://unitsofmeasure.org"/>
               <code value="mg/dL"/>
            </valueQuantity>
            <referenceRange>
               <low>
                  <value value="40"/>
                  <system value="http://unitsofmeasure.org"/>
                  <code value="mg/dL"/>
               </low>
            </referenceRange>
            <referenceRange>
               <high>
                  <value value="60"/>
                  <system value="http://unitsofmeasure.org"/>
                  <code value="mg/dL"/>
               </high>
            </referenceRange>
         </Observation>
      </resource>
   </entry>
   <entry>
      <fullUrl value="urn:uuid:fe1f8bc3-c739-4f2d-a1e4-f0f3ceb9cf23"/>
      <resource>
         <Device>
            <id value="fe1f8bc3-c739-4f2d-a1e4-f0f3ceb9cf23"/>
            <text>
               <status value="generated"/>
               <div xmlns="http://www.w3.org/1999/xhtml">SYNDERAI Synthetic Generator v5.0</div>
            </text>
            <status value="active&#34;"/>
            <distinctIdentifier value="synderai-generator-50"/>
            <manufacturer value="SYNDERAI Project"/>
            <deviceName>
               <name value="SYNDERAI Synthetic Generator"/>
               <type value="manufacturer-name"/>
            </deviceName>
            <version>
               <value value="5.0"/>
            </version>
         </Device>
      </resource>
   </entry>
   <entry>
      <fullUrl value="urn:uuid:dcd90121-fe64-46d7-943a-9ddcb7cb4173"/>
      <resource>
         <Provenance>
            <id value="dcd90121-fe64-46d7-943a-9ddcb7cb4173"/>
            <text>
               <status value="generated"/>
               <div xmlns="http://www.w3.org/1999/xhtml">Provenance for SYNDERAI Synthetic Example Data Resource</div>
            </text>
            <target>
               <reference value="Patient/7ff15040-d3cc-4dbd-8d79-6d02aec111bb"/>
            </target>
            <target>
               <reference value="Bundle/12d62271-5bdd-4567-9d05-581f03e5fb98"/>
            </target>
            <target>
               <reference value="Composition/f279d99a-114d-452d-bc88-4949d4d93a73"/>
            </target>
            <target>
               <reference value="PractitionerRole/cb958b8a-27a8-4ee7-96bb-59254e798ebb"/>
            </target>
            <target>
               <reference value="Organization/1a9cee9f-1d2c-4a35-9905-3fb41a5a2e07"/>
            </target>
            <target>
               <reference value="Practitioner/2816d274-e9a8-4aab-8017-71e255e4218e"/>
            </target>
            <recorded value="2023-04-08T18:20:37Z"/>
            <policy value="https://synderai.net/synderai-synthetic-data-policy"/>
            <reason>
               <text value="Interoperability Testing and Training (non-clinical use)"/>
            </reason>
            <activity>
               <text value="Synthetic Example Data Generation"/>
            </activity>
            <agent>
               <type>
                  <text value="author"/>
               </type>
               <who>
                  <reference value="Device/fe1f8bc3-c739-4f2d-a1e4-f0f3ceb9cf23"/>
               </who>
            </agent>
         </Provenance>
      </resource>
   </entry>
</Bundle>