{
  "resourceType": "Bundle",
  "id": "af43057d-7a7e-4038-abfe-fe357262cfbd",
  "meta": {
    "profile": [
      "http://hl7.eu/fhir/eps/StructureDefinition/bundle-eu-eps"
    ]
  },
  "identifier": {
    "assigner": {
      "display": "HL7 Europe"
    },
    "system": "urn:oid:2.16.840.1.113883.2.51.999",
    "value": "e48af075-71d3-454f-9596-309e6d2685b9"
  },
  "entry": [
    {
      "fullUrl": "urn:uuid:92aa53e0-3795-45a3-a684-d4f58d27c776",
      "resource": {
        "resourceType": "Composition",
        "id": "92aa53e0-3795-45a3-a684-d4f58d27c776",
        "meta": {
          "security": [
            {
              "system": "http://terminology.hl7.org/CodeSystem/v3-ActReason",
              "code": "HTEST"
            },
            {
              "system": "http://terminology.hl7.org/CodeSystem/v3-ActReason",
              "code": "TRAIN"
            }
          ],
          "tag": [
            {
              "system": "https://synderai.net/fhir/CodeSystem/tags",
              "code": "synthetic",
              "display": "SYNDERAI Synthetic data"
            }
          ],
          "profile": [
            "http://hl7.eu/fhir/eps/StructureDefinition/composition-eu-eps"
          ]
        },
        "identifier": {
          "assigner": {
            "display": "HL7 Europe"
          },
          "system": "urn:oid:2.16.840.1.113883.2.51.999",
          "value": "aca50339-237b-485a-a8e2-ea1a315f4b97"
        },
        "type": {
          "coding": [
            {
              "system": "http://loinc.org",
              "code": "60591-5",
              "display": "Patient summary Document"
            }
          ],
          "text": "Patient summary Document"
        },
        "author": [
          {
            "reference": "urn:uuid:046cb880-c625-4ff2-9988-b0c66c8edb60"
          }
        ],
        "section": [
          {
            "text": {
              "status": "generated",
              "div": "<div xmlns=\"http://www.w3.org/1999/xhtml\"><table class=\"hl7__ips\"><tr><th>Condition</th><th>Onset Date</th><th>Status</th></tr><tr><td>Hyperlipidemia</td><td><span class=\"nb\">24-Jan-2010</span></td><td>active</td></tr><tr><td>Ischemic heart disease</td><td><span class=\"nb\">10-Aug-1980</span></td><td>active</td></tr><tr><td>Proteinuria due to type 2 diabetes mellitus</td><td><span class=\"nb\">08-Jun-1969</span></td><td>active</td></tr><tr><td>Microalbuminuria due to type 2 diabetes mellitus</td><td><span class=\"nb\">02-Mar-1969</span></td><td>active</td></tr><tr><td>Disorder of kidney due to diabetes mellitus</td><td><span class=\"nb\">28-Apr-1968</span></td><td>active</td></tr><tr><td>Anemia</td><td><span class=\"nb\">22-May-1966</span></td><td>active</td></tr><tr><td>Prediabetes</td><td><span class=\"nb\">16-May-1965</span></td><td>active</td></tr><tr><td>Essential hypertension</td><td><span class=\"nb\">23-Apr-1961</span></td><td>active</td></tr></table></div>"
            },
            "entry": [
              {
                "reference": "urn:uuid:d88508e5-69a2-4624-874c-4be917f1577d"
              },
              {
                "reference": "urn:uuid:ad536759-f98d-4d2a-9967-b9e6f34322a8"
              },
              {
                "reference": "urn:uuid:07f545b2-dada-407b-a32d-487e77dc421c"
              },
              {
                "reference": "urn:uuid:8a6878df-942c-4962-9cbd-97e7df236784"
              },
              {
                "reference": "urn:uuid:b114894e-e215-41e2-b6ac-0a888520b1b2"
              },
              {
                "reference": "urn:uuid:59a2b249-5880-4226-8204-305bb3aa5a47"
              },
              {
                "reference": "urn:uuid:2062ccfc-83f8-4748-a566-80c9212959e4"
              },
              {
                "reference": "urn:uuid:5426b94c-fa2b-4ce4-b6e5-9c9085c2d2ec"
              }
            ],
            "code": {
              "coding": [
                {
                  "system": "http://loinc.org",
                  "code": "11450-4",
                  "display": "Problem list - Reported"
                }
              ]
            },
            "title": "Problem list"
          },
          {
            "text": {
              "status": "generated",
              "div": "<div xmlns=\"http://www.w3.org/1999/xhtml\"><table class=\"hl7__ips\"><tr><th>Medication</th><th>Since</th><th>Form</th><th>Dosage</th><th>Reason</th></tr><tr><td>insulin isophane human 70 UNT/ML / insulin regular human 30 UNT/ML Injectable Suspension [Humulin]</td><td><span class=\"nb\">2025-05-04</span></td><td>-</td><td>10 units subcutaneously twice daily before breakfast and dinner</td><td>Prediabetes</td></tr><tr><td>Lisinopril 10 mg oral tablet</td><td><span class=\"nb\">2025-05-04</span></td><td>-</td><td>1 tablet (10 mg) by mouth once daily</td><td>Essential hypertension (disorder)</td></tr><tr><td>24 HR tacrolimus 1 MG Extended Release Oral Tablet</td><td><span class=\"nb\">2025-05-04</span></td><td>-</td><td>1 tablet (1 mg) by mouth once daily</td><td>History of renal transplant (situation)</td></tr><tr><td>Simvastatin 10 mg oral tablet</td><td><span class=\"nb\">2025-03-28</span></td><td>-</td><td>1 tablet (10 mg) by mouth once daily</td><td>Hyperlipidemia</td></tr><tr><td>Nitroglycerin 400 microgram/actuation sublingual spray</td><td><span class=\"nb\">1980-08-17</span></td><td>-</td><td>1 spray (400 micrograms) under the tongue as needed for chest pain, may repeat every 5 minutes as needed, up to 3 sprays in 15 minutes</td><td>-</td></tr><tr><td>Metoprolol tartrate (as metoprolol succinate) 100 mg prolonged-release oral tablet</td><td><span class=\"nb\">1980-08-17</span></td><td>-</td><td>1 tablet (100 mg) once daily</td><td>-</td></tr></table></div>"
            },
            "entry": [
              {
                "reference": "urn:uuid:a02618ad-5589-4886-b0f7-1f599894942b"
              },
              {
                "reference": "urn:uuid:6c3fd67d-31e5-4aee-9af0-ec1466a1dd21"
              },
              {
                "reference": "urn:uuid:a8a046aa-09fe-4ce3-8daa-27dca388be2d"
              },
              {
                "reference": "urn:uuid:4217b6b0-d033-44b0-aea2-797b68d72350"
              },
              {
                "reference": "urn:uuid:16822be3-dc7c-4912-a289-f894ad7e3668"
              },
              {
                "reference": "urn:uuid:2febf131-cbc4-41ad-baac-aa300e246aef"
              }
            ],
            "code": {
              "coding": [
                {
                  "system": "http://loinc.org",
                  "code": "10160-0",
                  "display": "History of Medication use Narrative"
                }
              ]
            },
            "title": "Medication list"
          },
          {
            "text": {
              "status": "generated",
              "div": "<div xmlns=\"http://www.w3.org/1999/xhtml\"><table class=\"hl7__ips\"><tr><th>Vaccine</th><th>Date</th></tr><tr><td>Influenza virus antigen only vaccine product</td><td><span class=\"nb\">04-May-2025</span></td></tr><tr><td>SARS-CoV-2 mRNA vaccine</td><td><span class=\"nb\">05-Sep-2021</span></td></tr><tr><td>Clostridium tetani toxoid antigen adsorbed only vaccine product</td><td><span class=\"nb\">05-Mar-2017</span></td></tr></table></div>"
            },
            "entry": [
              {
                "reference": "urn:uuid:95068ee5-6d50-49f2-a58f-feb3bab91b0a"
              },
              {
                "reference": "urn:uuid:34ca690b-0869-4ca7-b5f3-34c05cdc7fbe"
              },
              {
                "reference": "urn:uuid:e29646f3-d72e-48cd-b3b2-bc29d42fd0b8"
              }
            ],
            "code": {
              "coding": [
                {
                  "system": "http://loinc.org",
                  "code": "11369-6",
                  "display": "History of Immunization note"
                }
              ]
            },
            "title": "Immunizations list"
          },
          {
            "text": {
              "status": "generated",
              "div": "<div xmlns=\"http://www.w3.org/1999/xhtml\"><table class=\"hl7__ips\"><tr><th>Procedure</th><th>Date</th><th>Reason</th></tr><tr><td>Admission to orthopedic department</td><td><span class=\"nb\">09-Oct-2021</span></td><td>Fracture of clavicle</td></tr><tr><td>Bone density scan</td><td><span class=\"nb\">09-Oct-2021</span></td><td>Fracture of clavicle</td></tr><tr><td>Plain X-ray of clavicle</td><td><span class=\"nb\">08-Oct-2021</span></td><td>-</td></tr><tr><td>Patient discharge</td><td><span class=\"nb\">02-Apr-2021</span></td><td>-</td></tr><tr><td>Hospice care</td><td><span class=\"nb\">01-Apr-2021</span></td><td>-</td></tr><tr><td>Notifications</td><td><span class=\"nb\">21-Feb-2021</span></td><td>-</td></tr><tr><td>Certification procedure</td><td><span class=\"nb\">21-Feb-2021</span></td><td>-</td></tr><tr><td>Initial patient assessment</td><td><span class=\"nb\">21-Feb-2021</span></td><td>-</td></tr><tr><td>Development of individualized plan of care</td><td><span class=\"nb\">21-Feb-2021</span></td><td>-</td></tr><tr><td>Depression screening</td><td><span class=\"nb\">27-May-2018</span></td><td>-</td></tr><tr><td>Assessment of health and social care needs</td><td><span class=\"nb\">27-May-2018</span></td><td>-</td></tr><tr><td>Screening for drug abuse</td><td><span class=\"nb\">27-May-2018</span></td><td>-</td></tr><tr><td>Assessment using Morse Fall Scale</td><td><span class=\"nb\">27-May-2018</span></td><td>-</td></tr><tr><td>Screening for domestic abuse</td><td><span class=\"nb\">27-May-2018</span></td><td>-</td></tr><tr><td>Assessment of substance use</td><td><span class=\"nb\">27-May-2018</span></td><td>-</td></tr><tr><td>Depression screening using Patient Health Questionnaire Two-Item score (procedure)</td><td><span class=\"nb\">27-May-2018</span></td><td>-</td></tr></table></div>"
            },
            "entry": [
              {
                "reference": "urn:uuid:f7c3876b-be4a-4a92-9849-f498b87e0588"
              },
              {
                "reference": "urn:uuid:6163c54e-f16e-41e2-8d49-7945e0a27a12"
              },
              {
                "reference": "urn:uuid:e4710b87-e93e-4040-bcae-d4398bba5917"
              },
              {
                "reference": "urn:uuid:de9f1531-c272-45ff-ac88-8d97418ef4b3"
              },
              {
                "reference": "urn:uuid:4db800a3-be18-4c51-aa7c-cdae4d200e4a"
              },
              {
                "reference": "urn:uuid:dee9e6c0-69c2-4836-9379-3225737992a7"
              },
              {
                "reference": "urn:uuid:fcacef11-f19e-4ece-be5f-27861e0795e2"
              },
              {
                "reference": "urn:uuid:5de7ca00-f65c-4c53-b2f3-880de371d95a"
              },
              {
                "reference": "urn:uuid:0a76541f-0eb5-4a1a-82b6-fb05e11a83a0"
              },
              {
                "reference": "urn:uuid:003859b3-100e-4101-b96f-4c718bd901b1"
              },
              {
                "reference": "urn:uuid:a9d05275-e5f7-478a-a91e-d8405ae78565"
              },
              {
                "reference": "urn:uuid:f28ae783-e46c-4b60-90f9-c5fca7041f83"
              },
              {
                "reference": "urn:uuid:642aae61-b3d5-41dc-b935-7acfc4ea1fc1"
              },
              {
                "reference": "urn:uuid:b78c8b58-3d51-4574-a795-c0caffd398d2"
              },
              {
                "reference": "urn:uuid:e72c065f-ca5a-4971-9865-da44a00cbdda"
              },
              {
                "reference": "urn:uuid:bdce64ca-1ccb-485f-bc86-3a16a86c281b"
              }
            ],
            "code": {
              "coding": [
                {
                  "system": "http://loinc.org",
                  "code": "47519-4",
                  "display": "History of Procedures Document"
                }
              ]
            },
            "title": "Procedure History list"
          },
          {
            "text": {
              "status": "generated",
              "div": "<div xmlns=\"http://www.w3.org/1999/xhtml\"><table class=\"hl7__ips\"><tr><th>Allergy/Intolerance</th><th>Onset Date</th><th>Status</th><th>Type</th><th>Reaction</th></tr><tr><td></td><td>?</td><td>active</td><td>?</td><td></td></tr></table></div>"
            },
            "entry": [
              {
                "reference": "urn:uuid:13fa552d-d072-4233-bf3a-4a41abd2ad9c"
              }
            ],
            "code": {
              "coding": [
                {
                  "system": "http://loinc.org",
                  "code": "48765-2",
                  "display": "Allergies and adverse reactions Document"
                }
              ]
            },
            "title": "Allergies and Intolerances"
          },
          {
            "text": {
              "status": "generated",
              "div": "<div xmlns=\"http://www.w3.org/1999/xhtml\"><table class=\"hl7__ips\"><tr><th>Active Planned Care / Goals</th><th>Start Date</th><th>Reason</th></tr><tr><td>Hyperlipidemia clinical management plan</td><td><span class=\"nb\">14-Feb-2010</span></td><td>Hyperlipidemia</td></tr><tr><td><ul><li>Achieve and maintain LDL cholesterol below 70 mg/dL to reduce cardiovascular risk.</li><li>Keep total cholesterol below 200 mg/dL.</li><li>Maintain HDL cholesterol above 50 mg/dL.</li><li>Keep triglycerides below 150 mg/dL.</li></ul></td><td></td><td></td></tr><tr><td>Care plan</td><td><span class=\"nb\">08-Apr-1981</span></td><td>-</td></tr><tr><td>Dialysis care plan</td><td><span class=\"nb\">12-Feb-1976</span></td><td>-</td></tr><tr><td>Diabetes self management plan</td><td><span class=\"nb\">16-May-1965</span></td><td>Prediabetes</td></tr><tr><td><ul><li>Patient will implement and maintain a diabetes self-management plan to prevent progression to type 2 diabetes, including dietary changes, increased physical activity, and regular blood glucose monitoring.</li></ul></td><td></td><td></td></tr><tr><td>Lifestyle education regarding hypertension</td><td><span class=\"nb\">23-Apr-1961</span></td><td>Essential hypertension (disorder)</td></tr><tr><td><ul><li>Patient will demonstrate understanding of recommended lifestyle changes to manage blood pressure, including dietary sodium reduction, regular physical activity, weight management, and medication adherence.</li><li>Achieve and maintain blood pressure below 130/80 mmHg as per current guidelines.</li></ul></td><td></td><td></td></tr><tr><th>Immunization Recommendation</th><th>Due Date</th><th>Reason</th></tr><tr><td>Vaccine product containing only Influenza virus antigen (medicinal product)</td><td><span class=\"nb\">01-Oct-2025</span></td><td>Annual seasonal influenza vaccination</td></tr></table></div>"
            },
            "entry": [
              {
                "reference": "urn:uuid:2e4dbc50-cc1a-49a2-8134-d4e3e4f82b73"
              },
              {
                "reference": "urn:uuid:a42f0820-e4dc-4674-adef-a655e70d6092"
              },
              {
                "reference": "urn:uuid:bdac0fb2-8ea3-4562-a230-b97c81ba9673"
              },
              {
                "reference": "urn:uuid:0656ca96-1b03-42d3-9824-a2518b964ba2"
              },
              {
                "reference": "urn:uuid:d28fda44-859f-4df4-a931-c8928784c822"
              },
              {
                "reference": "urn:uuid:e00dfe24-5dab-47aa-bbb9-17c3d7992f13"
              }
            ],
            "code": {
              "coding": [
                {
                  "system": "http://loinc.org",
                  "code": "18776-5",
                  "display": "Plan of care note"
                }
              ]
            },
            "title": "Care Plan"
          },
          {
            "text": {
              "status": "generated",
              "div": "<div xmlns=\"http://www.w3.org/1999/xhtml\"><table class=\"hl7__ips\"><tr><th>Vital Signs</th><th>2025-05-04</th><th>2024-04-28</th></tr><tr><td>Body Height</td><td>155.4 cm</td><td>155.4 cm</td></tr><tr><td>Pain severity - 0-10 verbal numeric rating [Score] - Reported</td><td>2 {score}</td><td>3 {score}</td></tr><tr><td>Body Weight</td><td>66.4 kg</td><td>66.4 kg</td></tr><tr><td>Body mass index (BMI) [Ratio]</td><td>27.5 kg/m2</td><td>27.5 kg/m2</td></tr><tr><td>Diastolic Blood Pressure</td><td>75 mm[Hg]</td><td>77 mm[Hg]</td></tr><tr><td>Systolic Blood Pressure</td><td>104 mm[Hg]</td><td>108 mm[Hg]</td></tr><tr><td>Heart rate</td><td>61 /min</td><td>76 /min</td></tr><tr><td>Respiratory rate</td><td>14 /min</td><td>13 /min</td></tr></table></div>"
            },
            "entry": [
              {
                "reference": "urn:uuid:0f73354d-8661-409e-91fc-0e8d68f8bb80"
              },
              {
                "reference": "urn:uuid:a8de7e45-72a0-4c1a-83d2-d57b5a26dc61"
              },
              {
                "reference": "urn:uuid:84ddb1d6-edbb-4325-b29c-04fdca5eeabd"
              },
              {
                "reference": "urn:uuid:c6be8a9e-e25d-447e-a1b2-a994c991fef3"
              },
              {
                "reference": "urn:uuid:d30d8671-bf16-408e-9b4a-00c8330beb64"
              },
              {
                "reference": "urn:uuid:f9bb1ba7-69d8-42ca-928a-3654597eb26b"
              },
              {
                "reference": "urn:uuid:1b2f3cc4-3c69-4642-98c4-e16f9aecf2d0"
              },
              {
                "reference": "urn:uuid:b9c1ca94-523e-400e-947e-6e43db75e059"
              },
              {
                "reference": "urn:uuid:3cf68a7c-8b16-48b2-9950-1126b7729500"
              },
              {
                "reference": "urn:uuid:785326a5-ecea-4100-9dc3-2bd6018d7e87"
              },
              {
                "reference": "urn:uuid:75f10f63-80e3-4404-a7e6-b5a65409d98c"
              },
              {
                "reference": "urn:uuid:0aa03d7d-7921-4dab-a958-42dd642cfbff"
              },
              {
                "reference": "urn:uuid:7ce5fc1a-19d8-4f70-a880-af9e5eb9f939"
              },
              {
                "reference": "urn:uuid:b8c2a6c4-6b1f-4435-9fc9-440bba3a9c17"
              },
              {
                "reference": "urn:uuid:a5851dc3-c9d7-46b5-bda8-cb803a9430d2"
              },
              {
                "reference": "urn:uuid:d64280df-ccbd-46ec-ae28-05d4c2cadcfb"
              }
            ],
            "code": {
              "coding": [
                {
                  "system": "http://loinc.org",
                  "code": "8716-3",
                  "display": "Vital signs note"
                }
              ]
            },
            "title": "Vital Signs"
          },
          {
            "text": {
              "status": "generated",
              "div": "<div xmlns=\"http://www.w3.org/1999/xhtml\"><table class=\"hl7__ips\"><table class=\"hl7__ips\"><thead><tr><th>Recent Lab Observations</th><th>04-MAY-2025</th><th>Reference&#xA0;Range</th><th>Unit</th></tr></thead><tbody><tr><td>Hemoglobin A1c/Hemoglobin.total in Blood</td><td><strong>3.9 L</strong></td><td>4 - 6</td><td>%</td></tr><tr><td>Glucose [Mass/volume] in Blood</td><td><strong>68.9 L</strong></td><td>70 - 140</td><td>mg/dL</td></tr><tr><td>Urea nitrogen [Mass/volume] in Blood</td><td>17.9</td><td>7 - 20</td><td>mg/dL</td></tr><tr><td>Creatinine [Mass/volume] in Blood</td><td><strong>0.4 L</strong></td><td>0.5 - 1.3</td><td>mg/dL</td></tr><tr><td>Calcium [Mass/volume] in Blood</td><td>10.2</td><td>8.5 - 10.5</td><td>mg/dL</td></tr><tr><td>Sodium [Moles/volume] in Blood</td><td>136.8</td><td>135 - 145</td><td>mmol/L</td></tr><tr><td>Potassium [Moles/volume] in Blood</td><td>4.5</td><td>3.5 - 5.1</td><td>mmol/L</td></tr><tr><td>Chloride [Moles/volume] in Blood</td><td>102.8</td><td>98 - 108</td><td>mmol/L</td></tr><tr><td>Carbon dioxide, total [Moles/volume] in Blood</td><td><strong>20.0 L</strong></td><td>22 - 29</td><td>mmol/L</td></tr></tbody></table></table></div>"
            },
            "entry": [
              {
                "reference": "urn:uuid:aea06e42-8443-458f-8fb5-3bccac373b4d"
              },
              {
                "reference": "urn:uuid:cba6a6a7-9fcc-4f96-aede-76c9d0aea0d9"
              },
              {
                "reference": "urn:uuid:a7e73d03-f130-4e24-a8a8-5dac2d0af50a"
              },
              {
                "reference": "urn:uuid:3be48cf8-e70e-4b64-8bbe-b7587b31d99f"
              },
              {
                "reference": "urn:uuid:b78a7b3c-9b0c-4b14-ad8b-b5cb519d90b7"
              },
              {
                "reference": "urn:uuid:ac2ebe39-0af5-461d-97ff-4cd53ea0ded2"
              },
              {
                "reference": "urn:uuid:8cfe891c-d615-4614-8f13-c16e368675b5"
              },
              {
                "reference": "urn:uuid:01d38a32-19c2-45b5-9aa4-e5e66edb1e79"
              },
              {
                "reference": "urn:uuid:b09f2bba-5d8d-4025-be67-075da456240a"
              }
            ],
            "code": {
              "coding": [
                {
                  "system": "http://loinc.org",
                  "code": "30954-2",
                  "display": "Relevant diagnostic tests/laboratory data note"
                }
              ]
            },
            "title": "Relevant diagnostic tests/laboratory data"
          },
          {
            "text": {
              "status": "generated",
              "div": "<div xmlns=\"http://www.w3.org/1999/xhtml\"><table class=\"hl7__ips\"><tr><th>Device</th><th>Date (since)</th></tr><tr><td>Blood glucose meter (physical object)</td><td><span class=\"nb\">16-May-1965</span></td></tr></table></div>"
            },
            "entry": [
              {
                "reference": "urn:uuid:a8bbaa8f-0456-4a01-a176-6680346ccaec"
              }
            ],
            "code": {
              "coding": [
                {
                  "system": "http://loinc.org",
                  "code": "46264-8",
                  "display": "History of medical device use"
                }
              ]
            },
            "title": "Device Use"
          }
        ],
        "title": "European Patient Summary",
        "status": "final",
        "subject": {
          "reference": "urn:uuid:8e3a9482-4c47-4b1c-986d-919bda392619",
          "display": "Marlene Gerlach"
        },
        "custodian": {
          "reference": "urn:uuid:36802fdc-3e9c-4b7a-982f-44dec698bf28"
        },
        "date": "2025-05-04",
        "confidentiality": "N"
      }
    },
    {
      "fullUrl": "urn:uuid:8e3a9482-4c47-4b1c-986d-919bda392619",
      "resource": {
        "resourceType": "Patient",
        "id": "8e3a9482-4c47-4b1c-986d-919bda392619",
        "meta": {
          "security": [
            {
              "system": "http://terminology.hl7.org/CodeSystem/v3-ActReason",
              "code": "HTEST"
            },
            {
              "system": "http://terminology.hl7.org/CodeSystem/v3-ActReason",
              "code": "TRAIN"
            }
          ],
          "tag": [
            {
              "system": "https://synderai.net/fhir/CodeSystem/tags",
              "code": "synthetic",
              "display": "SYNDERAI Synthetic data"
            }
          ],
          "profile": [
            "http://hl7.eu/fhir/eps/StructureDefinition/patient-eu-eps"
          ]
        },
        "identifier": [
          {
            "type": {
              "coding": [
                {
                  "code": "PT",
                  "system": "http://terminology.hl7.org/CodeSystem/v2-0203"
                }
              ]
            },
            "system": "http://ec.europa.eu/identifier/eci",
            "value": "4536-398571-9"
          },
          {
            "type": {
              "coding": [
                {
                  "code": "MR",
                  "system": "http://terminology.hl7.org/CodeSystem/v2-0203"
                }
              ]
            },
            "system": "http://local.setting.eu/identifier",
            "value": "ff7a4ff6-4bac-f07f-03c9-b91b1e1cfb23"
          }
        ],
        "name": [
          {
            "family": "Gerlach"
          },
          {
            "given": [
              "Marlene"
            ]
          },
          {
            "text": "Marlene Gerlach"
          }
        ],
        "address": [
          {
            "line": [
              "Etzlerplatz 57-53"
            ],
            "use": "home",
            "type": "physical",
            "postalCode": "71522",
            "city": "Backnang",
            "country": "Germany"
          }
        ],
        "telecom": [
          {
            "system": "phone",
            "value": "+49(0)2700 61724"
          }
        ],
        "extension": [
          {
            "url": "http://hl7.org/fhir/StructureDefinition/patient-nationality",
            "valueCodeableConcept": {
              "coding": [
                {
                  "code": "DE",
                  "system": "http://hl7.org/fhir/ValueSet/country"
                }
              ]
            }
          }
        ],
        "text": {
          "status": "generated",
          "div": "<div xmlns=\"http://www.w3.org/1999/xhtml\"><table class=\"hl7__ips\"><tr><td>Marlene Gerlach</td><td>female</td><td>28-Aug-1939</td></tr></table></div>"
        },
        "gender": "female",
        "birthDate": "1939-08-28"
      }
    },
    {
      "fullUrl": "urn:uuid:046cb880-c625-4ff2-9988-b0c66c8edb60",
      "resource": {
        "resourceType": "PractitionerRole",
        "id": "046cb880-c625-4ff2-9988-b0c66c8edb60",
        "meta": {
          "profile": [
            "http://hl7.eu/fhir/base/StructureDefinition/practitionerRole-eu"
          ]
        },
        "text": {
          "status": "generated",
          "div": "<div xmlns=\"http://www.w3.org/1999/xhtml\"><table class=\"hl7__ips\">Provider Role Id 046cb880-c625-4ff2-9988-b0c66c8edb60</table></div>"
        },
        "practitioner": {
          "reference": "urn:uuid:2564f2a6-2488-428c-9202-dbb4f7b4eb5a"
        },
        "organization": {
          "reference": "urn:uuid:36802fdc-3e9c-4b7a-982f-44dec698bf28"
        }
      }
    },
    {
      "fullUrl": "urn:uuid:2564f2a6-2488-428c-9202-dbb4f7b4eb5a",
      "resource": {
        "resourceType": "Practitioner",
        "id": "2564f2a6-2488-428c-9202-dbb4f7b4eb5a",
        "meta": {
          "profile": [
            "http://hl7.eu/fhir/base/StructureDefinition/practitioner-eu"
          ]
        },
        "name": [
          {
            "prefix": [
              "Dr."
            ],
            "given": [
              "Hel"
            ],
            "family": "Ping"
          }
        ],
        "text": {
          "status": "generated",
          "div": "<div xmlns=\"http://www.w3.org/1999/xhtml\"><table class=\"hl7__ips\">Dr. Hel Ping</table></div>"
        }
      }
    },
    {
      "fullUrl": "urn:uuid:36802fdc-3e9c-4b7a-982f-44dec698bf28",
      "resource": {
        "resourceType": "Organization",
        "id": "36802fdc-3e9c-4b7a-982f-44dec698bf28",
        "meta": {
          "profile": [
            "http://hl7.eu/fhir/base/StructureDefinition/organization-eu"
          ]
        },
        "identifier": [
          {
            "assigner": {
              "display": "HL7 Europe"
            },
            "system": "urn:oid:2.16.840.1.113883.2.51.999",
            "value": "9f04b3f3-6c89-44ba-81e8-91a68433c89d"
          }
        ],
        "address": [
          {
            "line": [
              "Karl-Krische-Straße 4"
            ],
            "city": "Backnang",
            "postalCode": "71522",
            "country": "Germany"
          }
        ],
        "text": {
          "status": "generated",
          "div": "<div xmlns=\"http://www.w3.org/1999/xhtml\"><table class=\"hl7__ips\">Gesundheitszentrum</table></div>"
        },
        "name": "Gesundheitszentrum"
      }
    },
    {
      "fullUrl": "urn:uuid:d88508e5-69a2-4624-874c-4be917f1577d",
      "resource": {
        "resourceType": "Condition",
        "id": "d88508e5-69a2-4624-874c-4be917f1577d",
        "meta": {
          "profile": [
            "http://hl7.org/fhir/uv/ips/StructureDefinition/Condition-uv-ips"
          ]
        },
        "category": [
          {
            "coding": [
              {
                "code": "problem-list-item",
                "system": "http://terminology.hl7.org/CodeSystem/condition-category",
                "display": "Problem List Item"
              }
            ]
          }
        ],
        "code": {
          "coding": [
            {
              "code": "55822004",
              "system": "http://snomed.info/sct",
              "display": "Hyperlipidemia (disorder)"
            }
          ],
          "text": "Hyperlipidemia"
        },
        "text": {
          "status": "generated",
          "div": "<div xmlns=\"http://www.w3.org/1999/xhtml\"><table class=\"hl7__ips\"><tr><td>Hyperlipidemia</td><td><span class=\"nb\">24-Jan-2010</span></td><td>active</td></tr></table></div>"
        },
        "onsetDateTime": "2010-01-24",
        "subject": {
          "reference": "urn:uuid:",
          "display": "Marlene Gerlach"
        },
        "asserter": {
          "reference": "urn:uuid:",
          "display": "Gesundheitszentrum"
        }
      }
    },
    {
      "fullUrl": "urn:uuid:ad536759-f98d-4d2a-9967-b9e6f34322a8",
      "resource": {
        "resourceType": "Condition",
        "id": "ad536759-f98d-4d2a-9967-b9e6f34322a8",
        "meta": {
          "profile": [
            "http://hl7.org/fhir/uv/ips/StructureDefinition/Condition-uv-ips"
          ]
        },
        "category": [
          {
            "coding": [
              {
                "code": "problem-list-item",
                "system": "http://terminology.hl7.org/CodeSystem/condition-category",
                "display": "Problem List Item"
              }
            ]
          }
        ],
        "code": {
          "coding": [
            {
              "code": "414545008",
              "system": "http://snomed.info/sct",
              "display": "Ischemic heart disease (disorder)"
            }
          ],
          "text": "Ischemic heart disease"
        },
        "text": {
          "status": "generated",
          "div": "<div xmlns=\"http://www.w3.org/1999/xhtml\"><table class=\"hl7__ips\"><tr><td>Ischemic heart disease</td><td><span class=\"nb\">10-Aug-1980</span></td><td>active</td></tr></table></div>"
        },
        "onsetDateTime": "1980-08-10",
        "subject": {
          "reference": "urn:uuid:",
          "display": "Marlene Gerlach"
        },
        "asserter": {
          "reference": "urn:uuid:",
          "display": "Gesundheitszentrum"
        }
      }
    },
    {
      "fullUrl": "urn:uuid:07f545b2-dada-407b-a32d-487e77dc421c",
      "resource": {
        "resourceType": "Condition",
        "id": "07f545b2-dada-407b-a32d-487e77dc421c",
        "meta": {
          "profile": [
            "http://hl7.org/fhir/uv/ips/StructureDefinition/Condition-uv-ips"
          ]
        },
        "category": [
          {
            "coding": [
              {
                "code": "problem-list-item",
                "system": "http://terminology.hl7.org/CodeSystem/condition-category",
                "display": "Problem List Item"
              }
            ]
          }
        ],
        "code": {
          "coding": [
            {
              "code": "157141000119108",
              "system": "http://snomed.info/sct",
              "display": "Proteinuria due to type 2 diabetes mellitus (disorder)"
            }
          ],
          "text": "Proteinuria due to type 2 diabetes mellitus"
        },
        "text": {
          "status": "generated",
          "div": "<div xmlns=\"http://www.w3.org/1999/xhtml\"><table class=\"hl7__ips\"><tr><td>Proteinuria due to type 2 diabetes mellitus</td><td><span class=\"nb\">08-Jun-1969</span></td><td>active</td></tr></table></div>"
        },
        "onsetDateTime": "1969-06-08",
        "subject": {
          "reference": "urn:uuid:",
          "display": "Marlene Gerlach"
        },
        "asserter": {
          "reference": "urn:uuid:",
          "display": "Gesundheitszentrum"
        }
      }
    },
    {
      "fullUrl": "urn:uuid:8a6878df-942c-4962-9cbd-97e7df236784",
      "resource": {
        "resourceType": "Condition",
        "id": "8a6878df-942c-4962-9cbd-97e7df236784",
        "meta": {
          "profile": [
            "http://hl7.org/fhir/uv/ips/StructureDefinition/Condition-uv-ips"
          ]
        },
        "category": [
          {
            "coding": [
              {
                "code": "problem-list-item",
                "system": "http://terminology.hl7.org/CodeSystem/condition-category",
                "display": "Problem List Item"
              }
            ]
          }
        ],
        "code": {
          "coding": [
            {
              "code": "90781000119102",
              "system": "http://snomed.info/sct",
              "display": "Microalbuminuria due to type 2 diabetes mellitus (disorder)"
            }
          ],
          "text": "Microalbuminuria due to type 2 diabetes mellitus"
        },
        "text": {
          "status": "generated",
          "div": "<div xmlns=\"http://www.w3.org/1999/xhtml\"><table class=\"hl7__ips\"><tr><td>Microalbuminuria due to type 2 diabetes mellitus</td><td><span class=\"nb\">02-Mar-1969</span></td><td>active</td></tr></table></div>"
        },
        "onsetDateTime": "1969-03-02",
        "subject": {
          "reference": "urn:uuid:",
          "display": "Marlene Gerlach"
        },
        "asserter": {
          "reference": "urn:uuid:",
          "display": "Gesundheitszentrum"
        }
      }
    },
    {
      "fullUrl": "urn:uuid:b114894e-e215-41e2-b6ac-0a888520b1b2",
      "resource": {
        "resourceType": "Condition",
        "id": "b114894e-e215-41e2-b6ac-0a888520b1b2",
        "meta": {
          "profile": [
            "http://hl7.org/fhir/uv/ips/StructureDefinition/Condition-uv-ips"
          ]
        },
        "category": [
          {
            "coding": [
              {
                "code": "problem-list-item",
                "system": "http://terminology.hl7.org/CodeSystem/condition-category",
                "display": "Problem List Item"
              }
            ]
          }
        ],
        "code": {
          "coding": [
            {
              "code": "127013003",
              "system": "http://snomed.info/sct",
              "display": "Disorder of kidney due to diabetes mellitus (disorder)"
            }
          ],
          "text": "Disorder of kidney due to diabetes mellitus"
        },
        "text": {
          "status": "generated",
          "div": "<div xmlns=\"http://www.w3.org/1999/xhtml\"><table class=\"hl7__ips\"><tr><td>Disorder of kidney due to diabetes mellitus</td><td><span class=\"nb\">28-Apr-1968</span></td><td>active</td></tr></table></div>"
        },
        "onsetDateTime": "1968-04-28",
        "subject": {
          "reference": "urn:uuid:",
          "display": "Marlene Gerlach"
        },
        "asserter": {
          "reference": "urn:uuid:",
          "display": "Gesundheitszentrum"
        }
      }
    },
    {
      "fullUrl": "urn:uuid:59a2b249-5880-4226-8204-305bb3aa5a47",
      "resource": {
        "resourceType": "Condition",
        "id": "59a2b249-5880-4226-8204-305bb3aa5a47",
        "meta": {
          "profile": [
            "http://hl7.org/fhir/uv/ips/StructureDefinition/Condition-uv-ips"
          ]
        },
        "category": [
          {
            "coding": [
              {
                "code": "problem-list-item",
                "system": "http://terminology.hl7.org/CodeSystem/condition-category",
                "display": "Problem List Item"
              }
            ]
          }
        ],
        "code": {
          "coding": [
            {
              "code": "271737000",
              "system": "http://snomed.info/sct",
              "display": "Anemia (disorder)"
            }
          ],
          "text": "Anemia"
        },
        "text": {
          "status": "generated",
          "div": "<div xmlns=\"http://www.w3.org/1999/xhtml\"><table class=\"hl7__ips\"><tr><td>Anemia</td><td><span class=\"nb\">22-May-1966</span></td><td>active</td></tr></table></div>"
        },
        "onsetDateTime": "1966-05-22",
        "subject": {
          "reference": "urn:uuid:",
          "display": "Marlene Gerlach"
        },
        "asserter": {
          "reference": "urn:uuid:",
          "display": "Gesundheitszentrum"
        }
      }
    },
    {
      "fullUrl": "urn:uuid:2062ccfc-83f8-4748-a566-80c9212959e4",
      "resource": {
        "resourceType": "Condition",
        "id": "2062ccfc-83f8-4748-a566-80c9212959e4",
        "meta": {
          "profile": [
            "http://hl7.org/fhir/uv/ips/StructureDefinition/Condition-uv-ips"
          ]
        },
        "category": [
          {
            "coding": [
              {
                "code": "problem-list-item",
                "system": "http://terminology.hl7.org/CodeSystem/condition-category",
                "display": "Problem List Item"
              }
            ]
          }
        ],
        "code": {
          "coding": [
            {
              "code": "15777000",
              "system": "http://snomed.info/sct",
              "display": "Prediabetes (disorder)"
            }
          ],
          "text": "Prediabetes"
        },
        "text": {
          "status": "generated",
          "div": "<div xmlns=\"http://www.w3.org/1999/xhtml\"><table class=\"hl7__ips\"><tr><td>Prediabetes</td><td><span class=\"nb\">16-May-1965</span></td><td>active</td></tr></table></div>"
        },
        "onsetDateTime": "1965-05-16",
        "subject": {
          "reference": "urn:uuid:",
          "display": "Marlene Gerlach"
        },
        "asserter": {
          "reference": "urn:uuid:",
          "display": "Gesundheitszentrum"
        }
      }
    },
    {
      "fullUrl": "urn:uuid:5426b94c-fa2b-4ce4-b6e5-9c9085c2d2ec",
      "resource": {
        "resourceType": "Condition",
        "id": "5426b94c-fa2b-4ce4-b6e5-9c9085c2d2ec",
        "meta": {
          "profile": [
            "http://hl7.org/fhir/uv/ips/StructureDefinition/Condition-uv-ips"
          ]
        },
        "category": [
          {
            "coding": [
              {
                "code": "problem-list-item",
                "system": "http://terminology.hl7.org/CodeSystem/condition-category",
                "display": "Problem List Item"
              }
            ]
          }
        ],
        "code": {
          "coding": [
            {
              "code": "59621000",
              "system": "http://snomed.info/sct",
              "display": "Essential hypertension (disorder)"
            }
          ],
          "text": "Essential hypertension"
        },
        "text": {
          "status": "generated",
          "div": "<div xmlns=\"http://www.w3.org/1999/xhtml\"><table class=\"hl7__ips\"><tr><td>Essential hypertension</td><td><span class=\"nb\">23-Apr-1961</span></td><td>active</td></tr></table></div>"
        },
        "onsetDateTime": "1961-04-23",
        "subject": {
          "reference": "urn:uuid:",
          "display": "Marlene Gerlach"
        },
        "asserter": {
          "reference": "urn:uuid:",
          "display": "Gesundheitszentrum"
        }
      }
    },
    {
      "fullUrl": "urn:uuid:d8bbd681-58b6-4255-bd11-fc8be19f2cd2",
      "resource": {
        "resourceType": "Condition",
        "id": "d8bbd681-58b6-4255-bd11-fc8be19f2cd2",
        "meta": {
          "profile": [
            "http://hl7.org/fhir/uv/ips/StructureDefinition/Condition-uv-ips"
          ]
        },
        "category": [
          {
            "coding": [
              {
                "code": "problem-list-item",
                "system": "http://terminology.hl7.org/CodeSystem/condition-category",
                "display": "Problem List Item"
              }
            ]
          }
        ],
        "code": {
          "coding": [
            {
              "code": "10509002",
              "system": "http://snomed.info/sct",
              "display": "Acute bronchitis (disorder)"
            }
          ],
          "text": "Acute bronchitis"
        },
        "text": {
          "status": "generated",
          "div": "<div xmlns=\"http://www.w3.org/1999/xhtml\"><table class=\"hl7__ips\"><tr><td><span class=\"grayedout\">Acute bronchitis</span></td><td><span class=\"nb\">16-Jan-2025 - 04-Feb-2025</span></td><td><span class=\"grayedout\">inactive</span></td></tr></table></div>"
        },
        "onsetDateTime": "2025-01-16",
        "abatementDateTime": "2025-02-04",
        "subject": {
          "reference": "urn:uuid:",
          "display": "Marlene Gerlach"
        },
        "asserter": {
          "reference": "urn:uuid:",
          "display": "Gesundheitszentrum"
        }
      }
    },
    {
      "fullUrl": "urn:uuid:5d676a01-5e99-4b5d-8682-d497a82a3c6c",
      "resource": {
        "resourceType": "Condition",
        "id": "5d676a01-5e99-4b5d-8682-d497a82a3c6c",
        "meta": {
          "profile": [
            "http://hl7.org/fhir/uv/ips/StructureDefinition/Condition-uv-ips"
          ]
        },
        "category": [
          {
            "coding": [
              {
                "code": "problem-list-item",
                "system": "http://terminology.hl7.org/CodeSystem/condition-category",
                "display": "Problem List Item"
              }
            ]
          }
        ],
        "code": {
          "coding": [
            {
              "code": "58150001",
              "system": "http://snomed.info/sct",
              "display": "Fracture of clavicle (disorder)"
            }
          ],
          "text": "Fracture of clavicle"
        },
        "text": {
          "status": "generated",
          "div": "<div xmlns=\"http://www.w3.org/1999/xhtml\"><table class=\"hl7__ips\"><tr><td><span class=\"grayedout\">Fracture of clavicle</span></td><td><span class=\"nb\">09-Oct-2021 - 28-Dec-2021</span></td><td><span class=\"grayedout\">inactive</span></td></tr></table></div>"
        },
        "onsetDateTime": "2021-10-09",
        "abatementDateTime": "2021-12-28",
        "subject": {
          "reference": "urn:uuid:",
          "display": "Marlene Gerlach"
        },
        "asserter": {
          "reference": "urn:uuid:",
          "display": "Gesundheitszentrum"
        }
      }
    },
    {
      "fullUrl": "urn:uuid:30a30591-a69c-4264-8baf-5f0335259ea3",
      "resource": {
        "resourceType": "Condition",
        "id": "30a30591-a69c-4264-8baf-5f0335259ea3",
        "meta": {
          "profile": [
            "http://hl7.org/fhir/uv/ips/StructureDefinition/Condition-uv-ips"
          ]
        },
        "category": [
          {
            "coding": [
              {
                "code": "problem-list-item",
                "system": "http://terminology.hl7.org/CodeSystem/condition-category",
                "display": "Problem List Item"
              }
            ]
          }
        ],
        "code": {
          "coding": [
            {
              "code": "125605004",
              "system": "http://snomed.info/sct",
              "display": "Fracture of bone (disorder)"
            }
          ],
          "text": "Fracture of bone"
        },
        "text": {
          "status": "generated",
          "div": "<div xmlns=\"http://www.w3.org/1999/xhtml\"><table class=\"hl7__ips\"><tr><td><span class=\"grayedout\">Fracture of bone</span></td><td><span class=\"nb\">09-Oct-2021 - 28-Dec-2021</span></td><td><span class=\"grayedout\">inactive</span></td></tr></table></div>"
        },
        "onsetDateTime": "2021-10-09",
        "abatementDateTime": "2021-12-28",
        "subject": {
          "reference": "urn:uuid:",
          "display": "Marlene Gerlach"
        },
        "asserter": {
          "reference": "urn:uuid:",
          "display": "Gesundheitszentrum"
        }
      }
    },
    {
      "fullUrl": "urn:uuid:00ce48be-bcae-41f1-850e-a4e3d4366fb6",
      "resource": {
        "resourceType": "Condition",
        "id": "00ce48be-bcae-41f1-850e-a4e3d4366fb6",
        "meta": {
          "profile": [
            "http://hl7.org/fhir/uv/ips/StructureDefinition/Condition-uv-ips"
          ]
        },
        "category": [
          {
            "coding": [
              {
                "code": "problem-list-item",
                "system": "http://terminology.hl7.org/CodeSystem/condition-category",
                "display": "Problem List Item"
              }
            ]
          }
        ],
        "code": {
          "coding": [
            {
              "code": "444814009",
              "system": "http://snomed.info/sct",
              "display": "Viral sinusitis (disorder)"
            }
          ],
          "text": "Viral sinusitis"
        },
        "text": {
          "status": "generated",
          "div": "<div xmlns=\"http://www.w3.org/1999/xhtml\"><table class=\"hl7__ips\"><tr><td><span class=\"grayedout\">Viral sinusitis</span></td><td><span class=\"nb\">04-Apr-2021 - 12-Apr-2021</span></td><td><span class=\"grayedout\">inactive</span></td></tr></table></div>"
        },
        "onsetDateTime": "2021-04-04",
        "abatementDateTime": "2021-04-12",
        "subject": {
          "reference": "urn:uuid:",
          "display": "Marlene Gerlach"
        },
        "asserter": {
          "reference": "urn:uuid:",
          "display": "Gesundheitszentrum"
        }
      }
    },
    {
      "fullUrl": "urn:uuid:ae689c87-95e6-4e0f-b719-ee6a8b6650f3",
      "resource": {
        "resourceType": "Condition",
        "id": "ae689c87-95e6-4e0f-b719-ee6a8b6650f3",
        "meta": {
          "profile": [
            "http://hl7.org/fhir/uv/ips/StructureDefinition/Condition-uv-ips"
          ]
        },
        "category": [
          {
            "coding": [
              {
                "code": "problem-list-item",
                "system": "http://terminology.hl7.org/CodeSystem/condition-category",
                "display": "Problem List Item"
              }
            ]
          }
        ],
        "code": {
          "coding": [
            {
              "code": "444814009",
              "system": "http://snomed.info/sct",
              "display": "Viral sinusitis (disorder)"
            }
          ],
          "text": "Viral sinusitis"
        },
        "text": {
          "status": "generated",
          "div": "<div xmlns=\"http://www.w3.org/1999/xhtml\"><table class=\"hl7__ips\"><tr><td><span class=\"grayedout\">Viral sinusitis</span></td><td><span class=\"nb\">03-Jun-2018 - 21-Jun-2018</span></td><td><span class=\"grayedout\">inactive</span></td></tr></table></div>"
        },
        "onsetDateTime": "2018-06-03",
        "abatementDateTime": "2018-06-21",
        "subject": {
          "reference": "urn:uuid:",
          "display": "Marlene Gerlach"
        },
        "asserter": {
          "reference": "urn:uuid:",
          "display": "Gesundheitszentrum"
        }
      }
    },
    {
      "fullUrl": "urn:uuid:600611e8-ad18-457d-9c74-767ecc4c0d64",
      "resource": {
        "resourceType": "Medication",
        "id": "600611e8-ad18-457d-9c74-767ecc4c0d64",
        "meta": {
          "profile": [
            "http://hl7.eu/fhir/eps/StructureDefinition/Medication-eu-eps"
          ]
        },
        "code": {
          "coding": [
            {
              "code": "106892",
              "system": "http://www.nlm.nih.gov/research/umls/rxnorm",
              "display": "insulin isophane  human 70 UNT/ML / insulin  regular  human 30 UNT/ML Injectable Suspension [Humulin]"
            }
          ],
          "text": "insulin isophane  human 70 UNT/ML / insulin  regular  human 30 UNT/ML Injectable Suspension [Humulin]"
        },
        "text": {
          "status": "generated",
          "div": "<div xmlns=\"http://www.w3.org/1999/xhtml\">insulin isophane human 70 UNT/ML / insulin regular human 30 UNT/ML Injectable Suspension [Humulin]</div>"
        }
      }
    },
    {
      "fullUrl": "urn:uuid:a02618ad-5589-4886-b0f7-1f599894942b",
      "resource": {
        "resourceType": "MedicationStatement",
        "id": "a02618ad-5589-4886-b0f7-1f599894942b",
        "meta": {
          "profile": [
            "http://hl7.eu/fhir/eps/StructureDefinition/MedicationStatement-eu-eps"
          ]
        },
        "effectivePeriod": {
          "start": "2025-05-04"
        },
        "dosage": [
          {
            "doseAndRate": [
              {
                "doseQuantity": {
                  "value": 10,
                  "unit": "unit",
                  "code": "U"
                }
              }
            ],
            "timing": {
              "repeat": {
                "frequency": 2,
                "period": 1,
                "periodUnit": "d"
              }
            },
            "text": "10 units subcutaneously twice daily before breakfast and dinner",
            "asNeededBoolean": false
          }
        ],
        "reasonCode": [
          {
            "coding": [
              {
                "code": "15777000",
                "system": "http://snomed.info/sct",
                "display": "Prediabetes"
              }
            ]
          }
        ],
        "text": {
          "status": "generated",
          "div": "<div xmlns=\"http://www.w3.org/1999/xhtml\"><table class=\"hl7__ips first25\"><tr><th>Medication</th><th>Since</th><th>Form</th><th>Dosage</th><th>Reason</th></tr><tr><td>insulin isophane human 70 UNT/ML / insulin regular human 30 UNT/ML Injectable Suspension [Humulin]</td><td><span class=\"nb\">2025-05-04</span></td><td>-</td><td>10 units subcutaneously twice daily before breakfast and dinner</td><td>Prediabetes</td></tr></table></div>"
        },
        "status": "active",
        "medicationReference": {
          "reference": "urn:uuid:600611e8-ad18-457d-9c74-767ecc4c0d64",
          "display": "insulin isophane  human 70 UNT/ML / insulin  regular  human 30 UNT/ML Injectable Suspension [Humulin]"
        },
        "subject": {
          "reference": "urn:uuid:8e3a9482-4c47-4b1c-986d-919bda392619",
          "display": "Marlene Gerlach"
        }
      }
    },
    {
      "fullUrl": "urn:uuid:a0993957-ff30-4bb7-96f6-f5117db5be18",
      "resource": {
        "resourceType": "Medication",
        "id": "a0993957-ff30-4bb7-96f6-f5117db5be18",
        "meta": {
          "profile": [
            "http://hl7.eu/fhir/eps/StructureDefinition/Medication-eu-eps"
          ]
        },
        "code": {
          "coding": [
            {
              "code": "318859000",
              "system": "http://snomed.info/sct",
              "display": "Lisinopril 10 mg oral tablet"
            }
          ],
          "text": "Lisinopril 10 mg oral tablet"
        },
        "text": {
          "status": "generated",
          "div": "<div xmlns=\"http://www.w3.org/1999/xhtml\">Lisinopril 10 mg oral tablet</div>"
        }
      }
    },
    {
      "fullUrl": "urn:uuid:6c3fd67d-31e5-4aee-9af0-ec1466a1dd21",
      "resource": {
        "resourceType": "MedicationStatement",
        "id": "6c3fd67d-31e5-4aee-9af0-ec1466a1dd21",
        "meta": {
          "profile": [
            "http://hl7.eu/fhir/eps/StructureDefinition/MedicationStatement-eu-eps"
          ]
        },
        "effectivePeriod": {
          "start": "2025-05-04"
        },
        "dosage": [
          {
            "doseAndRate": [
              {
                "doseQuantity": {
                  "value": 1,
                  "unit": "{tbl}",
                  "code": "{tbl}"
                }
              }
            ],
            "timing": {
              "repeat": {
                "frequency": 1,
                "period": 1,
                "periodUnit": "d"
              }
            },
            "text": "1 tablet (10 mg) by mouth once daily",
            "asNeededBoolean": false
          }
        ],
        "reasonCode": [
          {
            "coding": [
              {
                "code": "59621000",
                "system": "http://snomed.info/sct",
                "display": "Essential hypertension (disorder)"
              }
            ]
          }
        ],
        "text": {
          "status": "generated",
          "div": "<div xmlns=\"http://www.w3.org/1999/xhtml\"><table class=\"hl7__ips first25\"><tr><th>Medication</th><th>Since</th><th>Form</th><th>Dosage</th><th>Reason</th></tr><tr><td>Lisinopril 10 mg oral tablet</td><td><span class=\"nb\">2025-05-04</span></td><td>-</td><td>1 tablet (10 mg) by mouth once daily</td><td>Essential hypertension (disorder)</td></tr></table></div>"
        },
        "status": "active",
        "medicationReference": {
          "reference": "urn:uuid:a0993957-ff30-4bb7-96f6-f5117db5be18",
          "display": "Lisinopril 10 mg oral tablet"
        },
        "subject": {
          "reference": "urn:uuid:8e3a9482-4c47-4b1c-986d-919bda392619",
          "display": "Marlene Gerlach"
        }
      }
    },
    {
      "fullUrl": "urn:uuid:01ecaf6f-fd14-4c49-b463-0c5e90a150a0",
      "resource": {
        "resourceType": "Medication",
        "id": "01ecaf6f-fd14-4c49-b463-0c5e90a150a0",
        "meta": {
          "profile": [
            "http://hl7.eu/fhir/eps/StructureDefinition/Medication-eu-eps"
          ]
        },
        "code": {
          "coding": [
            {
              "code": "1664463",
              "system": "http://www.nlm.nih.gov/research/umls/rxnorm",
              "display": "24 HR tacrolimus 1 MG Extended Release Oral Tablet"
            }
          ],
          "text": "24 HR tacrolimus 1 MG Extended Release Oral Tablet"
        },
        "text": {
          "status": "generated",
          "div": "<div xmlns=\"http://www.w3.org/1999/xhtml\">24 HR tacrolimus 1 MG Extended Release Oral Tablet</div>"
        }
      }
    },
    {
      "fullUrl": "urn:uuid:a8a046aa-09fe-4ce3-8daa-27dca388be2d",
      "resource": {
        "resourceType": "MedicationStatement",
        "id": "a8a046aa-09fe-4ce3-8daa-27dca388be2d",
        "meta": {
          "profile": [
            "http://hl7.eu/fhir/eps/StructureDefinition/MedicationStatement-eu-eps"
          ]
        },
        "effectivePeriod": {
          "start": "2025-05-04"
        },
        "dosage": [
          {
            "doseAndRate": [
              {
                "doseQuantity": {
                  "value": 1,
                  "unit": "{tbl}",
                  "code": "{tbl}"
                }
              }
            ],
            "timing": {
              "repeat": {
                "frequency": 1,
                "period": 1,
                "periodUnit": "d"
              }
            },
            "text": "1 tablet (1 mg) by mouth once daily",
            "asNeededBoolean": false
          }
        ],
        "reasonCode": [
          {
            "coding": [
              {
                "code": "161665007",
                "system": "http://snomed.info/sct",
                "display": "History of renal transplant (situation)"
              }
            ]
          }
        ],
        "text": {
          "status": "generated",
          "div": "<div xmlns=\"http://www.w3.org/1999/xhtml\"><table class=\"hl7__ips first25\"><tr><th>Medication</th><th>Since</th><th>Form</th><th>Dosage</th><th>Reason</th></tr><tr><td>24 HR tacrolimus 1 MG Extended Release Oral Tablet</td><td><span class=\"nb\">2025-05-04</span></td><td>-</td><td>1 tablet (1 mg) by mouth once daily</td><td>History of renal transplant (situation)</td></tr></table></div>"
        },
        "status": "active",
        "medicationReference": {
          "reference": "urn:uuid:01ecaf6f-fd14-4c49-b463-0c5e90a150a0",
          "display": "24 HR tacrolimus 1 MG Extended Release Oral Tablet"
        },
        "subject": {
          "reference": "urn:uuid:8e3a9482-4c47-4b1c-986d-919bda392619",
          "display": "Marlene Gerlach"
        }
      }
    },
    {
      "fullUrl": "urn:uuid:646c3028-2aa9-4cba-97f4-a4fef57808d2",
      "resource": {
        "resourceType": "Medication",
        "id": "646c3028-2aa9-4cba-97f4-a4fef57808d2",
        "meta": {
          "profile": [
            "http://hl7.eu/fhir/eps/StructureDefinition/Medication-eu-eps"
          ]
        },
        "code": {
          "coding": [
            {
              "code": "319996000",
              "system": "http://snomed.info/sct",
              "display": "Simvastatin 10 mg oral tablet"
            }
          ],
          "text": "Simvastatin 10 mg oral tablet"
        },
        "text": {
          "status": "generated",
          "div": "<div xmlns=\"http://www.w3.org/1999/xhtml\">Simvastatin 10 mg oral tablet</div>"
        }
      }
    },
    {
      "fullUrl": "urn:uuid:4217b6b0-d033-44b0-aea2-797b68d72350",
      "resource": {
        "resourceType": "MedicationStatement",
        "id": "4217b6b0-d033-44b0-aea2-797b68d72350",
        "meta": {
          "profile": [
            "http://hl7.eu/fhir/eps/StructureDefinition/MedicationStatement-eu-eps"
          ]
        },
        "effectivePeriod": {
          "start": "2025-03-28"
        },
        "dosage": [
          {
            "doseAndRate": [
              {
                "doseQuantity": {
                  "value": 1,
                  "unit": "{tbl}",
                  "code": "{tbl}"
                }
              }
            ],
            "timing": {
              "repeat": {
                "frequency": 1,
                "period": 1,
                "periodUnit": "d"
              }
            },
            "text": "1 tablet (10 mg) by mouth once daily",
            "asNeededBoolean": false
          }
        ],
        "reasonCode": [
          {
            "coding": [
              {
                "code": "55822004",
                "system": "http://snomed.info/sct",
                "display": "Hyperlipidemia"
              }
            ]
          }
        ],
        "text": {
          "status": "generated",
          "div": "<div xmlns=\"http://www.w3.org/1999/xhtml\"><table class=\"hl7__ips first25\"><tr><th>Medication</th><th>Since</th><th>Form</th><th>Dosage</th><th>Reason</th></tr><tr><td>Simvastatin 10 mg oral tablet</td><td><span class=\"nb\">2025-03-28</span></td><td>-</td><td>1 tablet (10 mg) by mouth once daily</td><td>Hyperlipidemia</td></tr></table></div>"
        },
        "status": "active",
        "medicationReference": {
          "reference": "urn:uuid:646c3028-2aa9-4cba-97f4-a4fef57808d2",
          "display": "Simvastatin 10 mg oral tablet"
        },
        "subject": {
          "reference": "urn:uuid:8e3a9482-4c47-4b1c-986d-919bda392619",
          "display": "Marlene Gerlach"
        }
      }
    },
    {
      "fullUrl": "urn:uuid:2d84c714-2388-43d8-97f7-05d20b7e2922",
      "resource": {
        "resourceType": "Medication",
        "id": "2d84c714-2388-43d8-97f7-05d20b7e2922",
        "meta": {
          "profile": [
            "http://hl7.eu/fhir/eps/StructureDefinition/Medication-eu-eps"
          ]
        },
        "code": {
          "coding": [
            {
              "code": "425176000",
              "system": "http://snomed.info/sct",
              "display": "Nitroglycerin 400 microgram/actuation sublingual spray"
            }
          ],
          "text": "Nitroglycerin 400 microgram/actuation sublingual spray"
        },
        "text": {
          "status": "generated",
          "div": "<div xmlns=\"http://www.w3.org/1999/xhtml\">Nitroglycerin 400 microgram/actuation sublingual spray</div>"
        }
      }
    },
    {
      "fullUrl": "urn:uuid:16822be3-dc7c-4912-a289-f894ad7e3668",
      "resource": {
        "resourceType": "MedicationStatement",
        "id": "16822be3-dc7c-4912-a289-f894ad7e3668",
        "meta": {
          "profile": [
            "http://hl7.eu/fhir/eps/StructureDefinition/MedicationStatement-eu-eps"
          ]
        },
        "effectivePeriod": {
          "start": "1980-08-17"
        },
        "dosage": [
          {
            "doseAndRate": [
              {
                "doseQuantity": {
                  "value": 400,
                  "unit": "mcg",
                  "code": "ug"
                }
              }
            ],
            "timing": {
              "repeat": {
                "frequency": 1,
                "period": 5,
                "periodUnit": "min"
              }
            },
            "text": "1 spray (400 micrograms) under the tongue as needed for chest pain, may repeat every 5 minutes as needed, up to 3 sprays in 15 minutes",
            "asNeededBoolean": true
          }
        ],
        "text": {
          "status": "generated",
          "div": "<div xmlns=\"http://www.w3.org/1999/xhtml\"><table class=\"hl7__ips first25\"><tr><th>Medication</th><th>Since</th><th>Form</th><th>Dosage</th><th>Reason</th></tr><tr><td>Nitroglycerin 400 microgram/actuation sublingual spray</td><td><span class=\"nb\">1980-08-17</span></td><td>-</td><td>1 spray (400 micrograms) under the tongue as needed for chest pain, may repeat every 5 minutes as needed, up to 3 sprays in 15 minutes</td><td>-</td></tr></table></div>"
        },
        "status": "active",
        "medicationReference": {
          "reference": "urn:uuid:2d84c714-2388-43d8-97f7-05d20b7e2922",
          "display": "Nitroglycerin 400 microgram/actuation sublingual spray"
        },
        "subject": {
          "reference": "urn:uuid:8e3a9482-4c47-4b1c-986d-919bda392619",
          "display": "Marlene Gerlach"
        }
      }
    },
    {
      "fullUrl": "urn:uuid:dadb7a86-effc-4786-9078-8073ff99ee5b",
      "resource": {
        "resourceType": "Medication",
        "id": "dadb7a86-effc-4786-9078-8073ff99ee5b",
        "meta": {
          "profile": [
            "http://hl7.eu/fhir/eps/StructureDefinition/Medication-eu-eps"
          ]
        },
        "code": {
          "coding": [
            {
              "code": "879980009",
              "system": "http://snomed.info/sct",
              "display": "Metoprolol tartrate (as metoprolol succinate) 100 mg prolonged-release oral tablet"
            }
          ],
          "text": "Metoprolol tartrate (as metoprolol succinate) 100 mg prolonged-release oral tablet"
        },
        "text": {
          "status": "generated",
          "div": "<div xmlns=\"http://www.w3.org/1999/xhtml\">Metoprolol tartrate (as metoprolol succinate) 100 mg prolonged-release oral tablet</div>"
        }
      }
    },
    {
      "fullUrl": "urn:uuid:2febf131-cbc4-41ad-baac-aa300e246aef",
      "resource": {
        "resourceType": "MedicationStatement",
        "id": "2febf131-cbc4-41ad-baac-aa300e246aef",
        "meta": {
          "profile": [
            "http://hl7.eu/fhir/eps/StructureDefinition/MedicationStatement-eu-eps"
          ]
        },
        "effectivePeriod": {
          "start": "1980-08-17"
        },
        "dosage": [
          {
            "doseAndRate": [
              {
                "doseQuantity": {
                  "value": 1,
                  "unit": "{tbl}",
                  "code": "{tbl}"
                }
              }
            ],
            "timing": {
              "repeat": {
                "frequency": 1,
                "period": 1,
                "periodUnit": "d"
              }
            },
            "text": "1 tablet (100 mg) once daily",
            "asNeededBoolean": false
          }
        ],
        "text": {
          "status": "generated",
          "div": "<div xmlns=\"http://www.w3.org/1999/xhtml\"><table class=\"hl7__ips first25\"><tr><th>Medication</th><th>Since</th><th>Form</th><th>Dosage</th><th>Reason</th></tr><tr><td>Metoprolol tartrate (as metoprolol succinate) 100 mg prolonged-release oral tablet</td><td><span class=\"nb\">1980-08-17</span></td><td>-</td><td>1 tablet (100 mg) once daily</td><td>-</td></tr></table></div>"
        },
        "status": "active",
        "medicationReference": {
          "reference": "urn:uuid:dadb7a86-effc-4786-9078-8073ff99ee5b",
          "display": "Metoprolol tartrate (as metoprolol succinate) 100 mg prolonged-release oral tablet"
        },
        "subject": {
          "reference": "urn:uuid:8e3a9482-4c47-4b1c-986d-919bda392619",
          "display": "Marlene Gerlach"
        }
      }
    },
    {
      "fullUrl": "urn:uuid:95068ee5-6d50-49f2-a58f-feb3bab91b0a",
      "resource": {
        "resourceType": "Immunization",
        "id": "95068ee5-6d50-49f2-a58f-feb3bab91b0a",
        "meta": {
          "profile": [
            "http://hl7.org/fhir/uv/ips/StructureDefinition/Immunization-uv-ips"
          ]
        },
        "vaccineCode": {
          "coding": [
            {
              "code": "1181000221105",
              "system": "http://snomed.info/sct",
              "display": "Vaccine product containing Influenza virus antigen"
            },
            {
              "code": "J07BB02",
              "system": "http://www.whocc.no/atc",
              "display": "Influenza, inactivated, split virus"
            }
          ],
          "text": "Influenza virus antigen only vaccine product"
        },
        "site": {
          "coding": [
            {
              "code": "244979005",
              "system": "http://snomed.info/sct",
              "display": "Entire muscle of upper arm"
            }
          ],
          "text": "Entire muscle of upper arm"
        },
        "route": {
          "coding": [
            {
              "code": "78421000",
              "system": "http://snomed.info/sct",
              "display": "Intramuscular route"
            }
          ],
          "text": "Intramuscular route"
        },
        "text": {
          "status": "generated",
          "div": "<div xmlns=\"http://www.w3.org/1999/xhtml\"><table class=\"hl7__ips\"><tr><td>Influenza virus antigen only vaccine product</td><td><span class=\"nb\">04-May-2025</span></td></tr></table></div>"
        },
        "status": "completed",
        "patient": {
          "reference": "urn:uuid:8e3a9482-4c47-4b1c-986d-919bda392619",
          "display": "Marlene Gerlach"
        },
        "occurrenceDateTime": "2025-05-04",
        "lotNumber": "WA-LGW8",
        "expirationDate": "2026-02-17"
      }
    },
    {
      "fullUrl": "urn:uuid:34ca690b-0869-4ca7-b5f3-34c05cdc7fbe",
      "resource": {
        "resourceType": "Immunization",
        "id": "34ca690b-0869-4ca7-b5f3-34c05cdc7fbe",
        "meta": {
          "profile": [
            "http://hl7.org/fhir/uv/ips/StructureDefinition/Immunization-uv-ips"
          ]
        },
        "vaccineCode": {
          "coding": [
            {
              "code": "1119349007",
              "system": "http://snomed.info/sct",
              "display": "Vaccine product containing SARS-CoV-2 mRNA"
            },
            {
              "code": "J07BX03",
              "system": "http://www.whocc.no/atc",
              "display": "COVID-19 mRNA vaccines"
            }
          ],
          "text": "SARS-CoV-2 mRNA vaccine"
        },
        "site": {
          "coding": [
            {
              "code": "244979005",
              "system": "http://snomed.info/sct",
              "display": "Entire muscle of upper arm"
            }
          ],
          "text": "Entire muscle of upper arm"
        },
        "route": {
          "coding": [
            {
              "code": "78421000",
              "system": "http://snomed.info/sct",
              "display": "Intramuscular route"
            }
          ],
          "text": "Intramuscular route"
        },
        "text": {
          "status": "generated",
          "div": "<div xmlns=\"http://www.w3.org/1999/xhtml\"><table class=\"hl7__ips\"><tr><td>SARS-CoV-2 mRNA vaccine</td><td><span class=\"nb\">05-Sep-2021</span></td></tr></table></div>"
        },
        "status": "completed",
        "patient": {
          "reference": "urn:uuid:8e3a9482-4c47-4b1c-986d-919bda392619",
          "display": "Marlene Gerlach"
        },
        "occurrenceDateTime": "2021-09-05",
        "lotNumber": "PG-jf9rKL",
        "expirationDate": "2021-10-21"
      }
    },
    {
      "fullUrl": "urn:uuid:e29646f3-d72e-48cd-b3b2-bc29d42fd0b8",
      "resource": {
        "resourceType": "Immunization",
        "id": "e29646f3-d72e-48cd-b3b2-bc29d42fd0b8",
        "meta": {
          "profile": [
            "http://hl7.org/fhir/uv/ips/StructureDefinition/Immunization-uv-ips"
          ]
        },
        "vaccineCode": {
          "coding": [
            {
              "code": "777725002",
              "system": "http://snomed.info/sct",
              "display": "Vaccine product containing only Clostridium tetani toxoid antigen adsorbed"
            },
            {
              "code": "J07AM51",
              "system": "http://www.whocc.no/atc",
              "display": "Diphtheria-tetanus vaccines, adult type"
            }
          ],
          "text": "Clostridium tetani toxoid antigen adsorbed only vaccine product"
        },
        "site": {
          "coding": [
            {
              "code": "244979005",
              "system": "http://snomed.info/sct",
              "display": "Entire muscle of upper arm"
            }
          ],
          "text": "Entire muscle of upper arm"
        },
        "route": {
          "coding": [
            {
              "code": "78421000",
              "system": "http://snomed.info/sct",
              "display": "Intramuscular route"
            }
          ],
          "text": "Intramuscular route"
        },
        "text": {
          "status": "generated",
          "div": "<div xmlns=\"http://www.w3.org/1999/xhtml\"><table class=\"hl7__ips\"><tr><td>Clostridium tetani toxoid antigen adsorbed only vaccine product</td><td><span class=\"nb\">05-Mar-2017</span></td></tr></table></div>"
        },
        "status": "completed",
        "patient": {
          "reference": "urn:uuid:8e3a9482-4c47-4b1c-986d-919bda392619",
          "display": "Marlene Gerlach"
        },
        "occurrenceDateTime": "2017-03-05",
        "lotNumber": "QA-0agtdl",
        "expirationDate": "2017-11-13"
      }
    },
    {
      "fullUrl": "urn:uuid:f7c3876b-be4a-4a92-9849-f498b87e0588",
      "resource": {
        "resourceType": "Procedure",
        "id": "f7c3876b-be4a-4a92-9849-f498b87e0588",
        "meta": {
          "profile": [
            "http://hl7.org/fhir/uv/ips/StructureDefinition/Procedure-uv-ips"
          ]
        },
        "code": {
          "coding": [
            {
              "code": "305428000",
              "system": "http://snomed.info/sct",
              "display": "Admission to orthopedic department"
            }
          ],
          "text": "Admission to orthopedic department"
        },
        "reasonCode": [
          {
            "coding": [
              {
                "code": "58150001",
                "system": "http://snomed.info/sct",
                "display": "Fracture of clavicle"
              }
            ]
          }
        ],
        "text": {
          "status": "generated",
          "div": "<div xmlns=\"http://www.w3.org/1999/xhtml\"><table class=\"hl7__ips\"><tr><td>Admission to orthopedic department</td><td><span class=\"nb\">09-Oct-2021</span></td><td>Fracture of clavicle</td></tr></table></div>"
        },
        "status": "completed",
        "performedDateTime": "2021-10-09",
        "subject": {
          "reference": "urn:uuid:",
          "display": "Marlene Gerlach"
        }
      }
    },
    {
      "fullUrl": "urn:uuid:6163c54e-f16e-41e2-8d49-7945e0a27a12",
      "resource": {
        "resourceType": "Procedure",
        "id": "6163c54e-f16e-41e2-8d49-7945e0a27a12",
        "meta": {
          "profile": [
            "http://hl7.org/fhir/uv/ips/StructureDefinition/Procedure-uv-ips"
          ]
        },
        "code": {
          "coding": [
            {
              "code": "312681000",
              "system": "http://snomed.info/sct",
              "display": "Bone density scan (procedure)"
            }
          ],
          "text": "Bone density scan"
        },
        "reasonCode": [
          {
            "coding": [
              {
                "code": "58150001",
                "system": "http://snomed.info/sct",
                "display": "Fracture of clavicle"
              }
            ]
          }
        ],
        "text": {
          "status": "generated",
          "div": "<div xmlns=\"http://www.w3.org/1999/xhtml\"><table class=\"hl7__ips\"><tr><td>Bone density scan</td><td><span class=\"nb\">09-Oct-2021</span></td><td>Fracture of clavicle</td></tr></table></div>"
        },
        "status": "completed",
        "performedDateTime": "2021-10-09",
        "subject": {
          "reference": "urn:uuid:",
          "display": "Marlene Gerlach"
        }
      }
    },
    {
      "fullUrl": "urn:uuid:e4710b87-e93e-4040-bcae-d4398bba5917",
      "resource": {
        "resourceType": "Procedure",
        "id": "e4710b87-e93e-4040-bcae-d4398bba5917",
        "meta": {
          "profile": [
            "http://hl7.org/fhir/uv/ips/StructureDefinition/Procedure-uv-ips"
          ]
        },
        "code": {
          "coding": [
            {
              "code": "168594001",
              "system": "http://snomed.info/sct",
              "display": "Clavicle X-ray"
            }
          ],
          "text": "Plain X-ray of clavicle"
        },
        "text": {
          "status": "generated",
          "div": "<div xmlns=\"http://www.w3.org/1999/xhtml\"><table class=\"hl7__ips\"><tr><td>Plain X-ray of clavicle</td><td><span class=\"nb\">08-Oct-2021</span></td><td>-</td></tr></table></div>"
        },
        "status": "completed",
        "performedDateTime": "2021-10-08",
        "subject": {
          "reference": "urn:uuid:",
          "display": "Marlene Gerlach"
        }
      }
    },
    {
      "fullUrl": "urn:uuid:de9f1531-c272-45ff-ac88-8d97418ef4b3",
      "resource": {
        "resourceType": "Procedure",
        "id": "de9f1531-c272-45ff-ac88-8d97418ef4b3",
        "meta": {
          "profile": [
            "http://hl7.org/fhir/uv/ips/StructureDefinition/Procedure-uv-ips"
          ]
        },
        "code": {
          "coding": [
            {
              "code": "58000006",
              "system": "http://snomed.info/sct",
              "display": "Patient discharge (procedure)"
            }
          ],
          "text": "Patient discharge"
        },
        "text": {
          "status": "generated",
          "div": "<div xmlns=\"http://www.w3.org/1999/xhtml\"><table class=\"hl7__ips\"><tr><td>Patient discharge</td><td><span class=\"nb\">02-Apr-2021</span></td><td>-</td></tr></table></div>"
        },
        "status": "completed",
        "performedDateTime": "2021-04-02",
        "subject": {
          "reference": "urn:uuid:",
          "display": "Marlene Gerlach"
        }
      }
    },
    {
      "fullUrl": "urn:uuid:4db800a3-be18-4c51-aa7c-cdae4d200e4a",
      "resource": {
        "resourceType": "Procedure",
        "id": "4db800a3-be18-4c51-aa7c-cdae4d200e4a",
        "meta": {
          "profile": [
            "http://hl7.org/fhir/uv/ips/StructureDefinition/Procedure-uv-ips"
          ]
        },
        "code": {
          "coding": [
            {
              "code": "385763009",
              "system": "http://snomed.info/sct",
              "display": "Hospice care (regime/therapy)"
            }
          ],
          "text": "Hospice care"
        },
        "text": {
          "status": "generated",
          "div": "<div xmlns=\"http://www.w3.org/1999/xhtml\"><table class=\"hl7__ips\"><tr><td>Hospice care</td><td><span class=\"nb\">01-Apr-2021</span></td><td>-</td></tr></table></div>"
        },
        "status": "completed",
        "performedDateTime": "2021-04-01",
        "subject": {
          "reference": "urn:uuid:",
          "display": "Marlene Gerlach"
        }
      }
    },
    {
      "fullUrl": "urn:uuid:dee9e6c0-69c2-4836-9379-3225737992a7",
      "resource": {
        "resourceType": "Procedure",
        "id": "dee9e6c0-69c2-4836-9379-3225737992a7",
        "meta": {
          "profile": [
            "http://hl7.org/fhir/uv/ips/StructureDefinition/Procedure-uv-ips"
          ]
        },
        "code": {
          "coding": [
            {
              "code": "185087000",
              "system": "http://snomed.info/sct",
              "display": "Notifications (procedure)"
            }
          ],
          "text": "Notifications"
        },
        "text": {
          "status": "generated",
          "div": "<div xmlns=\"http://www.w3.org/1999/xhtml\"><table class=\"hl7__ips\"><tr><td>Notifications</td><td><span class=\"nb\">21-Feb-2021</span></td><td>-</td></tr></table></div>"
        },
        "status": "completed",
        "performedDateTime": "2021-02-21",
        "subject": {
          "reference": "urn:uuid:",
          "display": "Marlene Gerlach"
        }
      }
    },
    {
      "fullUrl": "urn:uuid:fcacef11-f19e-4ece-be5f-27861e0795e2",
      "resource": {
        "resourceType": "Procedure",
        "id": "fcacef11-f19e-4ece-be5f-27861e0795e2",
        "meta": {
          "profile": [
            "http://hl7.org/fhir/uv/ips/StructureDefinition/Procedure-uv-ips"
          ]
        },
        "code": {
          "coding": [
            {
              "code": "310417005",
              "system": "http://snomed.info/sct",
              "display": "Certification procedure (procedure)"
            }
          ],
          "text": "Certification procedure"
        },
        "text": {
          "status": "generated",
          "div": "<div xmlns=\"http://www.w3.org/1999/xhtml\"><table class=\"hl7__ips\"><tr><td>Certification procedure</td><td><span class=\"nb\">21-Feb-2021</span></td><td>-</td></tr></table></div>"
        },
        "status": "completed",
        "performedDateTime": "2021-02-21",
        "subject": {
          "reference": "urn:uuid:",
          "display": "Marlene Gerlach"
        }
      }
    },
    {
      "fullUrl": "urn:uuid:5de7ca00-f65c-4c53-b2f3-880de371d95a",
      "resource": {
        "resourceType": "Procedure",
        "id": "5de7ca00-f65c-4c53-b2f3-880de371d95a",
        "meta": {
          "profile": [
            "http://hl7.org/fhir/uv/ips/StructureDefinition/Procedure-uv-ips"
          ]
        },
        "code": {
          "coding": [
            {
              "code": "315639002",
              "system": "http://snomed.info/sct",
              "display": "Initial patient assessment (procedure)"
            }
          ],
          "text": "Initial patient assessment"
        },
        "text": {
          "status": "generated",
          "div": "<div xmlns=\"http://www.w3.org/1999/xhtml\"><table class=\"hl7__ips\"><tr><td>Initial patient assessment</td><td><span class=\"nb\">21-Feb-2021</span></td><td>-</td></tr></table></div>"
        },
        "status": "completed",
        "performedDateTime": "2021-02-21",
        "subject": {
          "reference": "urn:uuid:",
          "display": "Marlene Gerlach"
        }
      }
    },
    {
      "fullUrl": "urn:uuid:0a76541f-0eb5-4a1a-82b6-fb05e11a83a0",
      "resource": {
        "resourceType": "Procedure",
        "id": "0a76541f-0eb5-4a1a-82b6-fb05e11a83a0",
        "meta": {
          "profile": [
            "http://hl7.org/fhir/uv/ips/StructureDefinition/Procedure-uv-ips"
          ]
        },
        "code": {
          "coding": [
            {
              "code": "370789001",
              "system": "http://snomed.info/sct",
              "display": "Development of individualized plan of care (procedure)"
            }
          ],
          "text": "Development of individualized plan of care"
        },
        "text": {
          "status": "generated",
          "div": "<div xmlns=\"http://www.w3.org/1999/xhtml\"><table class=\"hl7__ips\"><tr><td>Development of individualized plan of care</td><td><span class=\"nb\">21-Feb-2021</span></td><td>-</td></tr></table></div>"
        },
        "status": "completed",
        "performedDateTime": "2021-02-21",
        "subject": {
          "reference": "urn:uuid:",
          "display": "Marlene Gerlach"
        }
      }
    },
    {
      "fullUrl": "urn:uuid:003859b3-100e-4101-b96f-4c718bd901b1",
      "resource": {
        "resourceType": "Procedure",
        "id": "003859b3-100e-4101-b96f-4c718bd901b1",
        "meta": {
          "profile": [
            "http://hl7.org/fhir/uv/ips/StructureDefinition/Procedure-uv-ips"
          ]
        },
        "code": {
          "coding": [
            {
              "code": "171207006",
              "system": "http://snomed.info/sct",
              "display": "Depression screening (procedure)"
            }
          ],
          "text": "Depression screening"
        },
        "text": {
          "status": "generated",
          "div": "<div xmlns=\"http://www.w3.org/1999/xhtml\"><table class=\"hl7__ips\"><tr><td>Depression screening</td><td><span class=\"nb\">27-May-2018</span></td><td>-</td></tr></table></div>"
        },
        "status": "completed",
        "performedDateTime": "2018-05-27",
        "subject": {
          "reference": "urn:uuid:",
          "display": "Marlene Gerlach"
        }
      }
    },
    {
      "fullUrl": "urn:uuid:a9d05275-e5f7-478a-a91e-d8405ae78565",
      "resource": {
        "resourceType": "Procedure",
        "id": "a9d05275-e5f7-478a-a91e-d8405ae78565",
        "meta": {
          "profile": [
            "http://hl7.org/fhir/uv/ips/StructureDefinition/Procedure-uv-ips"
          ]
        },
        "code": {
          "coding": [
            {
              "code": "710824005",
              "system": "http://snomed.info/sct",
              "display": "Assessment of health and social care needs (procedure)"
            }
          ],
          "text": "Assessment of health and social care needs"
        },
        "text": {
          "status": "generated",
          "div": "<div xmlns=\"http://www.w3.org/1999/xhtml\"><table class=\"hl7__ips\"><tr><td>Assessment of health and social care needs</td><td><span class=\"nb\">27-May-2018</span></td><td>-</td></tr></table></div>"
        },
        "status": "completed",
        "performedDateTime": "2018-05-27",
        "subject": {
          "reference": "urn:uuid:",
          "display": "Marlene Gerlach"
        }
      }
    },
    {
      "fullUrl": "urn:uuid:f28ae783-e46c-4b60-90f9-c5fca7041f83",
      "resource": {
        "resourceType": "Procedure",
        "id": "f28ae783-e46c-4b60-90f9-c5fca7041f83",
        "meta": {
          "profile": [
            "http://hl7.org/fhir/uv/ips/StructureDefinition/Procedure-uv-ips"
          ]
        },
        "code": {
          "coding": [
            {
              "code": "713106006",
              "system": "http://snomed.info/sct",
              "display": "Screening for drug abuse (procedure)"
            }
          ],
          "text": "Screening for drug abuse"
        },
        "text": {
          "status": "generated",
          "div": "<div xmlns=\"http://www.w3.org/1999/xhtml\"><table class=\"hl7__ips\"><tr><td>Screening for drug abuse</td><td><span class=\"nb\">27-May-2018</span></td><td>-</td></tr></table></div>"
        },
        "status": "completed",
        "performedDateTime": "2018-05-27",
        "subject": {
          "reference": "urn:uuid:",
          "display": "Marlene Gerlach"
        }
      }
    },
    {
      "fullUrl": "urn:uuid:642aae61-b3d5-41dc-b935-7acfc4ea1fc1",
      "resource": {
        "resourceType": "Procedure",
        "id": "642aae61-b3d5-41dc-b935-7acfc4ea1fc1",
        "meta": {
          "profile": [
            "http://hl7.org/fhir/uv/ips/StructureDefinition/Procedure-uv-ips"
          ]
        },
        "code": {
          "coding": [
            {
              "code": "762993000",
              "system": "http://snomed.info/sct",
              "display": "Assessment using Morse Fall Scale (procedure)"
            }
          ],
          "text": "Assessment using Morse Fall Scale"
        },
        "text": {
          "status": "generated",
          "div": "<div xmlns=\"http://www.w3.org/1999/xhtml\"><table class=\"hl7__ips\"><tr><td>Assessment using Morse Fall Scale</td><td><span class=\"nb\">27-May-2018</span></td><td>-</td></tr></table></div>"
        },
        "status": "completed",
        "performedDateTime": "2018-05-27",
        "subject": {
          "reference": "urn:uuid:",
          "display": "Marlene Gerlach"
        }
      }
    },
    {
      "fullUrl": "urn:uuid:b78c8b58-3d51-4574-a795-c0caffd398d2",
      "resource": {
        "resourceType": "Procedure",
        "id": "b78c8b58-3d51-4574-a795-c0caffd398d2",
        "meta": {
          "profile": [
            "http://hl7.org/fhir/uv/ips/StructureDefinition/Procedure-uv-ips"
          ]
        },
        "code": {
          "coding": [
            {
              "code": "866148006",
              "system": "http://snomed.info/sct",
              "display": "Screening for domestic abuse (procedure)"
            }
          ],
          "text": "Screening for domestic abuse"
        },
        "text": {
          "status": "generated",
          "div": "<div xmlns=\"http://www.w3.org/1999/xhtml\"><table class=\"hl7__ips\"><tr><td>Screening for domestic abuse</td><td><span class=\"nb\">27-May-2018</span></td><td>-</td></tr></table></div>"
        },
        "status": "completed",
        "performedDateTime": "2018-05-27",
        "subject": {
          "reference": "urn:uuid:",
          "display": "Marlene Gerlach"
        }
      }
    },
    {
      "fullUrl": "urn:uuid:e72c065f-ca5a-4971-9865-da44a00cbdda",
      "resource": {
        "resourceType": "Procedure",
        "id": "e72c065f-ca5a-4971-9865-da44a00cbdda",
        "meta": {
          "profile": [
            "http://hl7.org/fhir/uv/ips/StructureDefinition/Procedure-uv-ips"
          ]
        },
        "code": {
          "coding": [
            {
              "code": "428211000124100",
              "system": "http://snomed.info/sct",
              "display": "Assessment of substance use (procedure)"
            }
          ],
          "text": "Assessment of substance use"
        },
        "text": {
          "status": "generated",
          "div": "<div xmlns=\"http://www.w3.org/1999/xhtml\"><table class=\"hl7__ips\"><tr><td>Assessment of substance use</td><td><span class=\"nb\">27-May-2018</span></td><td>-</td></tr></table></div>"
        },
        "status": "completed",
        "performedDateTime": "2018-05-27",
        "subject": {
          "reference": "urn:uuid:",
          "display": "Marlene Gerlach"
        }
      }
    },
    {
      "fullUrl": "urn:uuid:bdce64ca-1ccb-485f-bc86-3a16a86c281b",
      "resource": {
        "resourceType": "Procedure",
        "id": "bdce64ca-1ccb-485f-bc86-3a16a86c281b",
        "meta": {
          "profile": [
            "http://hl7.org/fhir/uv/ips/StructureDefinition/Procedure-uv-ips"
          ]
        },
        "code": {
          "coding": [
            {
              "code": "454711000124102",
              "system": "http://snomed.info/sct",
              "display": "Depression screening using Patient Health Questionnaire Two-Item score (procedure)"
            }
          ]
        },
        "text": {
          "status": "generated",
          "div": "<div xmlns=\"http://www.w3.org/1999/xhtml\"><table class=\"hl7__ips\"><tr><td>Depression screening using Patient Health Questionnaire Two-Item score (procedure)</td><td><span class=\"nb\">27-May-2018</span></td><td>-</td></tr></table></div>"
        },
        "status": "completed",
        "performedDateTime": "2018-05-27",
        "subject": {
          "reference": "urn:uuid:",
          "display": "Marlene Gerlach"
        }
      }
    },
    {
      "fullUrl": "urn:uuid:13fa552d-d072-4233-bf3a-4a41abd2ad9c",
      "resource": {
        "resourceType": "AllergyIntolerance",
        "id": "13fa552d-d072-4233-bf3a-4a41abd2ad9c",
        "meta": {
          "profile": [
            "http://hl7.eu/fhir/eps/StructureDefinition/allergyIntolerance-eu-eps"
          ]
        },
        "code": {
          "text": ""
        },
        "clinicalStatus": {
          "coding": [
            {
              "code": "active",
              "system": "http://terminology.hl7.org/CodeSystem/allergyintolerance-clinical"
            }
          ]
        },
        "text": {
          "status": "generated",
          "div": "<div xmlns=\"http://www.w3.org/1999/xhtml\"><table class=\"hl7__ips\"><tr><th>Allergy/Intolerance</th><th>Onset Date</th><th>Status</th><th>Type</th><th>Reaction</th></tr><tr><td></td><td>?</td><td>active</td><td>?</td><td></td></tr></table></div>"
        },
        "verificationStatus": {
          "coding": [
            {
              "code": "confirmed",
              "system": "http://terminology.hl7.org/CodeSystem/allergyintolerance-verification"
            }
          ]
        },
        "patient": {
          "reference": "urn:uuid:8e3a9482-4c47-4b1c-986d-919bda392619",
          "display": "Marlene Gerlach"
        },
        "_onsetDateTime": {
          "extension": [
            {
              "url": "http://hl7.org/fhir/StructureDefinition/data-absent-reason",
              "valueCode": "unknown"
            }
          ]
        }
      }
    },
    {
      "fullUrl": "urn:uuid:2e4dbc50-cc1a-49a2-8134-d4e3e4f82b73",
      "resource": {
        "resourceType": "CarePlan",
        "id": "2e4dbc50-cc1a-49a2-8134-d4e3e4f82b73",
        "category": [
          {
            "coding": [
              {
                "code": "assess-plan",
                "system": "http://terminology.hl7.org/CodeSystem/care-plan-category",
                "display": "Assessment and Plan"
              }
            ]
          }
        ],
        "activity": [
          {
            "detail": {
              "code": {
                "coding": [
                  {
                    "code": "736285004",
                    "system": "http://snomed.info/sct",
                    "display": "Hyperlipidemia clinical management plan (record artifact)"
                  }
                ]
              },
              "reasonCode": [
                {
                  "coding": [
                    {
                      "code": "55822004",
                      "system": "http://snomed.info/sct",
                      "display": "Hyperlipidemia"
                    }
                  ]
                }
              ],
              "status": "unknown",
              "description": "Hyperlipidemia clinical management plan",
              "kind": "Appointment"
            }
          }
        ],
        "period": {
          "start": "2010-02-14"
        },
        "goal": [
          {
            "reference": "urn:uuid:44eb4548-03b3-40f2-a4d6-af75f89094b1"
          },
          {
            "reference": "urn:uuid:0b9c4059-45af-402c-9c07-d692c1ea7923"
          },
          {
            "reference": "urn:uuid:b05193c1-72a1-4900-81c5-b983c43d4406"
          },
          {
            "reference": "urn:uuid:8f1c7613-847b-4fe3-b2d2-0750d6f02ae4"
          }
        ],
        "text": {
          "status": "generated",
          "div": "<div xmlns=\"http://www.w3.org/1999/xhtml\"><table class=\"hl7__ips first25\"><tr><th>Active Planned Care / Goals</th><th>Start Date</th><th>Reason</th></tr><tr><td>Hyperlipidemia clinical management plan</td><td><span class=\"nb\">14-Feb-2010</span></td><td>Hyperlipidemia</td></tr><tr><td><ul><li>Achieve and maintain LDL cholesterol below 70 mg/dL to reduce cardiovascular risk.</li><li>Keep total cholesterol below 200 mg/dL.</li><li>Maintain HDL cholesterol above 50 mg/dL.</li><li>Keep triglycerides below 150 mg/dL.</li></ul></td><td></td><td></td></tr></table></div>"
        },
        "status": "active",
        "intent": "plan",
        "subject": {
          "reference": "urn:uuid:8e3a9482-4c47-4b1c-986d-919bda392619",
          "display": "Marlene Gerlach"
        }
      }
    },
    {
      "fullUrl": "urn:uuid:a42f0820-e4dc-4674-adef-a655e70d6092",
      "resource": {
        "resourceType": "CarePlan",
        "id": "a42f0820-e4dc-4674-adef-a655e70d6092",
        "category": [
          {
            "coding": [
              {
                "code": "assess-plan",
                "system": "http://terminology.hl7.org/CodeSystem/care-plan-category",
                "display": "Assessment and Plan"
              }
            ]
          }
        ],
        "activity": [
          {
            "detail": {
              "code": {
                "coding": [
                  {
                    "code": "734163000",
                    "system": "http://snomed.info/sct",
                    "display": "Care plan (record artifact)"
                  }
                ]
              },
              "status": "unknown",
              "description": "Care plan",
              "kind": "Appointment"
            }
          }
        ],
        "period": {
          "start": "1981-04-08"
        },
        "text": {
          "status": "generated",
          "div": "<div xmlns=\"http://www.w3.org/1999/xhtml\"><table class=\"hl7__ips first25\"><tr><th>Active Planned Care / Goals</th><th>Start Date</th><th>Reason</th></tr><tr><td>Care plan</td><td><span class=\"nb\">08-Apr-1981</span></td><td>-</td></tr></table></div>"
        },
        "status": "active",
        "intent": "plan",
        "subject": {
          "reference": "urn:uuid:8e3a9482-4c47-4b1c-986d-919bda392619",
          "display": "Marlene Gerlach"
        }
      }
    },
    {
      "fullUrl": "urn:uuid:bdac0fb2-8ea3-4562-a230-b97c81ba9673",
      "resource": {
        "resourceType": "CarePlan",
        "id": "bdac0fb2-8ea3-4562-a230-b97c81ba9673",
        "category": [
          {
            "coding": [
              {
                "code": "assess-plan",
                "system": "http://terminology.hl7.org/CodeSystem/care-plan-category",
                "display": "Assessment and Plan"
              }
            ]
          }
        ],
        "activity": [
          {
            "detail": {
              "code": {
                "coding": [
                  {
                    "code": "736690008",
                    "system": "http://snomed.info/sct",
                    "display": "Dialysis care plan (record artifact)"
                  }
                ]
              },
              "status": "unknown",
              "description": "Dialysis care plan",
              "kind": "Appointment"
            }
          }
        ],
        "period": {
          "start": "1976-02-12"
        },
        "text": {
          "status": "generated",
          "div": "<div xmlns=\"http://www.w3.org/1999/xhtml\"><table class=\"hl7__ips first25\"><tr><th>Active Planned Care / Goals</th><th>Start Date</th><th>Reason</th></tr><tr><td>Dialysis care plan</td><td><span class=\"nb\">12-Feb-1976</span></td><td>-</td></tr></table></div>"
        },
        "status": "active",
        "intent": "plan",
        "subject": {
          "reference": "urn:uuid:8e3a9482-4c47-4b1c-986d-919bda392619",
          "display": "Marlene Gerlach"
        }
      }
    },
    {
      "fullUrl": "urn:uuid:0656ca96-1b03-42d3-9824-a2518b964ba2",
      "resource": {
        "resourceType": "CarePlan",
        "id": "0656ca96-1b03-42d3-9824-a2518b964ba2",
        "category": [
          {
            "coding": [
              {
                "code": "assess-plan",
                "system": "http://terminology.hl7.org/CodeSystem/care-plan-category",
                "display": "Assessment and Plan"
              }
            ]
          }
        ],
        "activity": [
          {
            "detail": {
              "code": {
                "coding": [
                  {
                    "code": "698360004",
                    "system": "http://snomed.info/sct",
                    "display": "Diabetes self management plan (qualifier value)"
                  }
                ]
              },
              "reasonCode": [
                {
                  "coding": [
                    {
                      "code": "15777000",
                      "system": "http://snomed.info/sct",
                      "display": "Prediabetes"
                    }
                  ]
                }
              ],
              "status": "unknown",
              "description": "Diabetes self management plan",
              "kind": "Appointment"
            }
          }
        ],
        "period": {
          "start": "1965-05-16"
        },
        "goal": [
          {
            "reference": "urn:uuid:96422112-c54f-418d-bcd0-0c34aeec9745"
          }
        ],
        "text": {
          "status": "generated",
          "div": "<div xmlns=\"http://www.w3.org/1999/xhtml\"><table class=\"hl7__ips first25\"><tr><th>Active Planned Care / Goals</th><th>Start Date</th><th>Reason</th></tr><tr><td>Diabetes self management plan</td><td><span class=\"nb\">16-May-1965</span></td><td>Prediabetes</td></tr><tr><td><ul><li>Patient will implement and maintain a diabetes self-management plan to prevent progression to type 2 diabetes, including dietary changes, increased physical activity, and regular blood glucose monitoring.</li></ul></td><td></td><td></td></tr></table></div>"
        },
        "status": "active",
        "intent": "plan",
        "subject": {
          "reference": "urn:uuid:8e3a9482-4c47-4b1c-986d-919bda392619",
          "display": "Marlene Gerlach"
        }
      }
    },
    {
      "fullUrl": "urn:uuid:d28fda44-859f-4df4-a931-c8928784c822",
      "resource": {
        "resourceType": "CarePlan",
        "id": "d28fda44-859f-4df4-a931-c8928784c822",
        "category": [
          {
            "coding": [
              {
                "code": "assess-plan",
                "system": "http://terminology.hl7.org/CodeSystem/care-plan-category",
                "display": "Assessment and Plan"
              }
            ]
          }
        ],
        "activity": [
          {
            "detail": {
              "code": {
                "coding": [
                  {
                    "code": "443402002",
                    "system": "http://snomed.info/sct",
                    "display": "Lifestyle education regarding hypertension (procedure)"
                  }
                ]
              },
              "reasonCode": [
                {
                  "coding": [
                    {
                      "code": "59621000",
                      "system": "http://snomed.info/sct",
                      "display": "Essential hypertension (disorder)"
                    }
                  ]
                }
              ],
              "status": "unknown",
              "description": "Lifestyle education regarding hypertension",
              "kind": "Appointment"
            }
          }
        ],
        "period": {
          "start": "1961-04-23"
        },
        "goal": [
          {
            "reference": "urn:uuid:1c8b1445-e8b3-4df4-8d1a-8b285c27a6a1"
          },
          {
            "reference": "urn:uuid:565aae49-f7a3-41fc-8ef9-e57f31c352eb"
          }
        ],
        "text": {
          "status": "generated",
          "div": "<div xmlns=\"http://www.w3.org/1999/xhtml\"><table class=\"hl7__ips first25\"><tr><th>Active Planned Care / Goals</th><th>Start Date</th><th>Reason</th></tr><tr><td>Lifestyle education regarding hypertension</td><td><span class=\"nb\">23-Apr-1961</span></td><td>Essential hypertension (disorder)</td></tr><tr><td><ul><li>Patient will demonstrate understanding of recommended lifestyle changes to manage blood pressure, including dietary sodium reduction, regular physical activity, weight management, and medication adherence.</li><li>Achieve and maintain blood pressure below 130/80 mmHg as per current guidelines.</li></ul></td><td></td><td></td></tr></table></div>"
        },
        "status": "active",
        "intent": "plan",
        "subject": {
          "reference": "urn:uuid:8e3a9482-4c47-4b1c-986d-919bda392619",
          "display": "Marlene Gerlach"
        }
      }
    },
    {
      "fullUrl": "urn:uuid:e00dfe24-5dab-47aa-bbb9-17c3d7992f13",
      "resource": {
        "resourceType": "ImmunizationRecommendation",
        "id": "e00dfe24-5dab-47aa-bbb9-17c3d7992f13",
        "recommendation": [
          {
            "vaccineCode": [
              {
                "coding": [
                  {
                    "code": "1181000221105",
                    "system": "http://snomed.info/sct",
                    "display": "Vaccine product containing only Influenza virus antigen (medicinal product)"
                  }
                ]
              }
            ],
            "dateCriterion": [
              {
                "code": {
                  "coding": [
                    {
                      "code": "30980-7",
                      "system": "http://loinc.org",
                      "display": "Date vaccine due"
                    }
                  ]
                },
                "value": "2025-10-01"
              }
            ],
            "targetDisease": {
              "coding": [
                {
                  "code": "6142004",
                  "system": "http://snomed.info/sct",
                  "display": "Influenza (disorder)"
                }
              ]
            },
            "series": "Annual seasonal influenza vaccination",
            "forecastStatus": {
              "coding": [
                {
                  "code": "due",
                  "system": "http://terminology.hl7.org/CodeSystem/immunization-recommendation-status",
                  "display": "Due"
                }
              ]
            }
          }
        ],
        "text": {
          "status": "generated",
          "div": "<div xmlns=\"http://www.w3.org/1999/xhtml\"><table class=\"hl7__ips\"><tr><td>Vaccine product containing only Influenza virus antigen (medicinal product)</td><td><span class=\"nb\">01-Oct-2025</span></td><td>Annual seasonal influenza vaccination</td></tr></table></div>"
        },
        "date": "2025-10-22",
        "patient": {
          "reference": "urn:uuid:8e3a9482-4c47-4b1c-986d-919bda392619",
          "display": "Marlene Gerlach"
        }
      }
    },
    {
      "fullUrl": "urn:uuid:0f73354d-8661-409e-91fc-0e8d68f8bb80",
      "resource": {
        "resourceType": "Observation",
        "id": "0f73354d-8661-409e-91fc-0e8d68f8bb80",
        "meta": {
          "profile": [
            "http://hl7.org/fhir/StructureDefinition/vitalsigns"
          ]
        },
        "category": [
          {
            "coding": [
              {
                "system": "http://terminology.hl7.org/CodeSystem/observation-category",
                "code": "vital-signs",
                "display": "Vital Signs"
              }
            ]
          }
        ],
        "valueQuantity": {
          "value": 155.4,
          "code": "cm",
          "unit": "cm"
        },
        "text": {
          "status": "generated",
          "div": "<div xmlns=\"http://www.w3.org/1999/xhtml\"><table class=\"hl7__ips\"><tr><th>Vital Sign</th><th>Date</th><th>Measurement</th></tr><tr><td>Body Height</td><td>04-May-2025</td><td>155.4 cm</td></tr></table></div>"
        },
        "status": "final",
        "code": {
          "coding": [
            {
              "code": "$8302-2",
              "system": "http://loinc.org",
              "display": "Body Height"
            }
          ]
        },
        "subject": {
          "reference": "urn:uuid:8e3a9482-4c47-4b1c-986d-919bda392619",
          "display": "Marlene Gerlach"
        },
        "effectiveDateTime": "2025-05-04"
      }
    },
    {
      "fullUrl": "urn:uuid:a8de7e45-72a0-4c1a-83d2-d57b5a26dc61",
      "resource": {
        "resourceType": "Observation",
        "id": "a8de7e45-72a0-4c1a-83d2-d57b5a26dc61",
        "meta": {
          "profile": [
            "http://hl7.org/fhir/StructureDefinition/vitalsigns"
          ]
        },
        "category": [
          {
            "coding": [
              {
                "system": "http://terminology.hl7.org/CodeSystem/observation-category",
                "code": "vital-signs",
                "display": "Vital Signs"
              }
            ]
          }
        ],
        "valueQuantity": {
          "value": 2,
          "code": "{score}",
          "unit": "{score}"
        },
        "text": {
          "status": "generated",
          "div": "<div xmlns=\"http://www.w3.org/1999/xhtml\"><table class=\"hl7__ips\"><tr><th>Vital Sign</th><th>Date</th><th>Measurement</th></tr><tr><td>Pain severity - 0-10 verbal numeric rating [Score] - Reported</td><td>04-May-2025</td><td>2 {score}</td></tr></table></div>"
        },
        "status": "final",
        "code": {
          "coding": [
            {
              "code": "$72514-3",
              "system": "http://loinc.org",
              "display": "Pain severity - 0-10 verbal numeric rating [Score] - Reported"
            }
          ]
        },
        "subject": {
          "reference": "urn:uuid:8e3a9482-4c47-4b1c-986d-919bda392619",
          "display": "Marlene Gerlach"
        },
        "effectiveDateTime": "2025-05-04"
      }
    },
    {
      "fullUrl": "urn:uuid:84ddb1d6-edbb-4325-b29c-04fdca5eeabd",
      "resource": {
        "resourceType": "Observation",
        "id": "84ddb1d6-edbb-4325-b29c-04fdca5eeabd",
        "meta": {
          "profile": [
            "http://hl7.org/fhir/StructureDefinition/vitalsigns"
          ]
        },
        "category": [
          {
            "coding": [
              {
                "system": "http://terminology.hl7.org/CodeSystem/observation-category",
                "code": "vital-signs",
                "display": "Vital Signs"
              }
            ]
          }
        ],
        "valueQuantity": {
          "value": 66.4,
          "code": "kg",
          "unit": "kg"
        },
        "text": {
          "status": "generated",
          "div": "<div xmlns=\"http://www.w3.org/1999/xhtml\"><table class=\"hl7__ips\"><tr><th>Vital Sign</th><th>Date</th><th>Measurement</th></tr><tr><td>Body Weight</td><td>04-May-2025</td><td>66.4 kg</td></tr></table></div>"
        },
        "status": "final",
        "code": {
          "coding": [
            {
              "code": "$29463-7",
              "system": "http://loinc.org",
              "display": "Body Weight"
            }
          ]
        },
        "subject": {
          "reference": "urn:uuid:8e3a9482-4c47-4b1c-986d-919bda392619",
          "display": "Marlene Gerlach"
        },
        "effectiveDateTime": "2025-05-04"
      }
    },
    {
      "fullUrl": "urn:uuid:c6be8a9e-e25d-447e-a1b2-a994c991fef3",
      "resource": {
        "resourceType": "Observation",
        "id": "c6be8a9e-e25d-447e-a1b2-a994c991fef3",
        "meta": {
          "profile": [
            "http://hl7.org/fhir/StructureDefinition/vitalsigns"
          ]
        },
        "category": [
          {
            "coding": [
              {
                "system": "http://terminology.hl7.org/CodeSystem/observation-category",
                "code": "vital-signs",
                "display": "Vital Signs"
              }
            ]
          }
        ],
        "valueQuantity": {
          "value": 27.5,
          "code": "kg/m2",
          "unit": "kg/m2"
        },
        "text": {
          "status": "generated",
          "div": "<div xmlns=\"http://www.w3.org/1999/xhtml\"><table class=\"hl7__ips\"><tr><th>Vital Sign</th><th>Date</th><th>Measurement</th></tr><tr><td>Body mass index (BMI) [Ratio]</td><td>04-May-2025</td><td>27.5 kg/m2</td></tr></table></div>"
        },
        "status": "final",
        "code": {
          "coding": [
            {
              "code": "$39156-5",
              "system": "http://loinc.org",
              "display": "Body mass index (BMI) [Ratio]"
            }
          ]
        },
        "subject": {
          "reference": "urn:uuid:8e3a9482-4c47-4b1c-986d-919bda392619",
          "display": "Marlene Gerlach"
        },
        "effectiveDateTime": "2025-05-04"
      }
    },
    {
      "fullUrl": "urn:uuid:d30d8671-bf16-408e-9b4a-00c8330beb64",
      "resource": {
        "resourceType": "Observation",
        "id": "d30d8671-bf16-408e-9b4a-00c8330beb64",
        "meta": {
          "profile": [
            "http://hl7.org/fhir/StructureDefinition/vitalsigns"
          ]
        },
        "category": [
          {
            "coding": [
              {
                "system": "http://terminology.hl7.org/CodeSystem/observation-category",
                "code": "vital-signs",
                "display": "Vital Signs"
              }
            ]
          }
        ],
        "valueQuantity": {
          "value": 75,
          "code": "mm[Hg]",
          "unit": "mm[Hg]"
        },
        "text": {
          "status": "generated",
          "div": "<div xmlns=\"http://www.w3.org/1999/xhtml\"><table class=\"hl7__ips\"><tr><th>Vital Sign</th><th>Date</th><th>Measurement</th></tr><tr><td>Diastolic Blood Pressure</td><td>04-May-2025</td><td>75 mm[Hg]</td></tr></table></div>"
        },
        "status": "final",
        "code": {
          "coding": [
            {
              "code": "$8462-4",
              "system": "http://loinc.org",
              "display": "Diastolic Blood Pressure"
            }
          ]
        },
        "subject": {
          "reference": "urn:uuid:8e3a9482-4c47-4b1c-986d-919bda392619",
          "display": "Marlene Gerlach"
        },
        "effectiveDateTime": "2025-05-04"
      }
    },
    {
      "fullUrl": "urn:uuid:f9bb1ba7-69d8-42ca-928a-3654597eb26b",
      "resource": {
        "resourceType": "Observation",
        "id": "f9bb1ba7-69d8-42ca-928a-3654597eb26b",
        "meta": {
          "profile": [
            "http://hl7.org/fhir/StructureDefinition/vitalsigns"
          ]
        },
        "category": [
          {
            "coding": [
              {
                "system": "http://terminology.hl7.org/CodeSystem/observation-category",
                "code": "vital-signs",
                "display": "Vital Signs"
              }
            ]
          }
        ],
        "valueQuantity": {
          "value": 104,
          "code": "mm[Hg]",
          "unit": "mm[Hg]"
        },
        "text": {
          "status": "generated",
          "div": "<div xmlns=\"http://www.w3.org/1999/xhtml\"><table class=\"hl7__ips\"><tr><th>Vital Sign</th><th>Date</th><th>Measurement</th></tr><tr><td>Systolic Blood Pressure</td><td>04-May-2025</td><td>104 mm[Hg]</td></tr></table></div>"
        },
        "status": "final",
        "code": {
          "coding": [
            {
              "code": "$8480-6",
              "system": "http://loinc.org",
              "display": "Systolic Blood Pressure"
            }
          ]
        },
        "subject": {
          "reference": "urn:uuid:8e3a9482-4c47-4b1c-986d-919bda392619",
          "display": "Marlene Gerlach"
        },
        "effectiveDateTime": "2025-05-04"
      }
    },
    {
      "fullUrl": "urn:uuid:1b2f3cc4-3c69-4642-98c4-e16f9aecf2d0",
      "resource": {
        "resourceType": "Observation",
        "id": "1b2f3cc4-3c69-4642-98c4-e16f9aecf2d0",
        "meta": {
          "profile": [
            "http://hl7.org/fhir/StructureDefinition/vitalsigns"
          ]
        },
        "category": [
          {
            "coding": [
              {
                "system": "http://terminology.hl7.org/CodeSystem/observation-category",
                "code": "vital-signs",
                "display": "Vital Signs"
              }
            ]
          }
        ],
        "valueQuantity": {
          "value": 61,
          "code": "/min",
          "unit": "/min"
        },
        "text": {
          "status": "generated",
          "div": "<div xmlns=\"http://www.w3.org/1999/xhtml\"><table class=\"hl7__ips\"><tr><th>Vital Sign</th><th>Date</th><th>Measurement</th></tr><tr><td>Heart rate</td><td>04-May-2025</td><td>61 /min</td></tr></table></div>"
        },
        "status": "final",
        "code": {
          "coding": [
            {
              "code": "$8867-4",
              "system": "http://loinc.org",
              "display": "Heart rate"
            }
          ]
        },
        "subject": {
          "reference": "urn:uuid:8e3a9482-4c47-4b1c-986d-919bda392619",
          "display": "Marlene Gerlach"
        },
        "effectiveDateTime": "2025-05-04"
      }
    },
    {
      "fullUrl": "urn:uuid:b9c1ca94-523e-400e-947e-6e43db75e059",
      "resource": {
        "resourceType": "Observation",
        "id": "b9c1ca94-523e-400e-947e-6e43db75e059",
        "meta": {
          "profile": [
            "http://hl7.org/fhir/StructureDefinition/vitalsigns"
          ]
        },
        "category": [
          {
            "coding": [
              {
                "system": "http://terminology.hl7.org/CodeSystem/observation-category",
                "code": "vital-signs",
                "display": "Vital Signs"
              }
            ]
          }
        ],
        "valueQuantity": {
          "value": 14,
          "code": "/min",
          "unit": "/min"
        },
        "text": {
          "status": "generated",
          "div": "<div xmlns=\"http://www.w3.org/1999/xhtml\"><table class=\"hl7__ips\"><tr><th>Vital Sign</th><th>Date</th><th>Measurement</th></tr><tr><td>Respiratory rate</td><td>04-May-2025</td><td>14 /min</td></tr></table></div>"
        },
        "status": "final",
        "code": {
          "coding": [
            {
              "code": "$9279-1",
              "system": "http://loinc.org",
              "display": "Respiratory rate"
            }
          ]
        },
        "subject": {
          "reference": "urn:uuid:8e3a9482-4c47-4b1c-986d-919bda392619",
          "display": "Marlene Gerlach"
        },
        "effectiveDateTime": "2025-05-04"
      }
    },
    {
      "fullUrl": "urn:uuid:3cf68a7c-8b16-48b2-9950-1126b7729500",
      "resource": {
        "resourceType": "Observation",
        "id": "3cf68a7c-8b16-48b2-9950-1126b7729500",
        "meta": {
          "profile": [
            "http://hl7.org/fhir/StructureDefinition/vitalsigns"
          ]
        },
        "category": [
          {
            "coding": [
              {
                "system": "http://terminology.hl7.org/CodeSystem/observation-category",
                "code": "vital-signs",
                "display": "Vital Signs"
              }
            ]
          }
        ],
        "valueQuantity": {
          "value": 155.4,
          "code": "cm",
          "unit": "cm"
        },
        "text": {
          "status": "generated",
          "div": "<div xmlns=\"http://www.w3.org/1999/xhtml\"><table class=\"hl7__ips\"><tr><th>Vital Sign</th><th>Date</th><th>Measurement</th></tr><tr><td>Body Height</td><td>28-Apr-2024</td><td>155.4 cm</td></tr></table></div>"
        },
        "status": "final",
        "code": {
          "coding": [
            {
              "code": "$8302-2",
              "system": "http://loinc.org",
              "display": "Body Height"
            }
          ]
        },
        "subject": {
          "reference": "urn:uuid:8e3a9482-4c47-4b1c-986d-919bda392619",
          "display": "Marlene Gerlach"
        },
        "effectiveDateTime": "2024-04-28"
      }
    },
    {
      "fullUrl": "urn:uuid:785326a5-ecea-4100-9dc3-2bd6018d7e87",
      "resource": {
        "resourceType": "Observation",
        "id": "785326a5-ecea-4100-9dc3-2bd6018d7e87",
        "meta": {
          "profile": [
            "http://hl7.org/fhir/StructureDefinition/vitalsigns"
          ]
        },
        "category": [
          {
            "coding": [
              {
                "system": "http://terminology.hl7.org/CodeSystem/observation-category",
                "code": "vital-signs",
                "display": "Vital Signs"
              }
            ]
          }
        ],
        "valueQuantity": {
          "value": 3,
          "code": "{score}",
          "unit": "{score}"
        },
        "text": {
          "status": "generated",
          "div": "<div xmlns=\"http://www.w3.org/1999/xhtml\"><table class=\"hl7__ips\"><tr><th>Vital Sign</th><th>Date</th><th>Measurement</th></tr><tr><td>Pain severity - 0-10 verbal numeric rating [Score] - Reported</td><td>28-Apr-2024</td><td>3 {score}</td></tr></table></div>"
        },
        "status": "final",
        "code": {
          "coding": [
            {
              "code": "$72514-3",
              "system": "http://loinc.org",
              "display": "Pain severity - 0-10 verbal numeric rating [Score] - Reported"
            }
          ]
        },
        "subject": {
          "reference": "urn:uuid:8e3a9482-4c47-4b1c-986d-919bda392619",
          "display": "Marlene Gerlach"
        },
        "effectiveDateTime": "2024-04-28"
      }
    },
    {
      "fullUrl": "urn:uuid:75f10f63-80e3-4404-a7e6-b5a65409d98c",
      "resource": {
        "resourceType": "Observation",
        "id": "75f10f63-80e3-4404-a7e6-b5a65409d98c",
        "meta": {
          "profile": [
            "http://hl7.org/fhir/StructureDefinition/vitalsigns"
          ]
        },
        "category": [
          {
            "coding": [
              {
                "system": "http://terminology.hl7.org/CodeSystem/observation-category",
                "code": "vital-signs",
                "display": "Vital Signs"
              }
            ]
          }
        ],
        "valueQuantity": {
          "value": 66.4,
          "code": "kg",
          "unit": "kg"
        },
        "text": {
          "status": "generated",
          "div": "<div xmlns=\"http://www.w3.org/1999/xhtml\"><table class=\"hl7__ips\"><tr><th>Vital Sign</th><th>Date</th><th>Measurement</th></tr><tr><td>Body Weight</td><td>28-Apr-2024</td><td>66.4 kg</td></tr></table></div>"
        },
        "status": "final",
        "code": {
          "coding": [
            {
              "code": "$29463-7",
              "system": "http://loinc.org",
              "display": "Body Weight"
            }
          ]
        },
        "subject": {
          "reference": "urn:uuid:8e3a9482-4c47-4b1c-986d-919bda392619",
          "display": "Marlene Gerlach"
        },
        "effectiveDateTime": "2024-04-28"
      }
    },
    {
      "fullUrl": "urn:uuid:0aa03d7d-7921-4dab-a958-42dd642cfbff",
      "resource": {
        "resourceType": "Observation",
        "id": "0aa03d7d-7921-4dab-a958-42dd642cfbff",
        "meta": {
          "profile": [
            "http://hl7.org/fhir/StructureDefinition/vitalsigns"
          ]
        },
        "category": [
          {
            "coding": [
              {
                "system": "http://terminology.hl7.org/CodeSystem/observation-category",
                "code": "vital-signs",
                "display": "Vital Signs"
              }
            ]
          }
        ],
        "valueQuantity": {
          "value": 27.5,
          "code": "kg/m2",
          "unit": "kg/m2"
        },
        "text": {
          "status": "generated",
          "div": "<div xmlns=\"http://www.w3.org/1999/xhtml\"><table class=\"hl7__ips\"><tr><th>Vital Sign</th><th>Date</th><th>Measurement</th></tr><tr><td>Body mass index (BMI) [Ratio]</td><td>28-Apr-2024</td><td>27.5 kg/m2</td></tr></table></div>"
        },
        "status": "final",
        "code": {
          "coding": [
            {
              "code": "$39156-5",
              "system": "http://loinc.org",
              "display": "Body mass index (BMI) [Ratio]"
            }
          ]
        },
        "subject": {
          "reference": "urn:uuid:8e3a9482-4c47-4b1c-986d-919bda392619",
          "display": "Marlene Gerlach"
        },
        "effectiveDateTime": "2024-04-28"
      }
    },
    {
      "fullUrl": "urn:uuid:7ce5fc1a-19d8-4f70-a880-af9e5eb9f939",
      "resource": {
        "resourceType": "Observation",
        "id": "7ce5fc1a-19d8-4f70-a880-af9e5eb9f939",
        "meta": {
          "profile": [
            "http://hl7.org/fhir/StructureDefinition/vitalsigns"
          ]
        },
        "category": [
          {
            "coding": [
              {
                "system": "http://terminology.hl7.org/CodeSystem/observation-category",
                "code": "vital-signs",
                "display": "Vital Signs"
              }
            ]
          }
        ],
        "valueQuantity": {
          "value": 77,
          "code": "mm[Hg]",
          "unit": "mm[Hg]"
        },
        "text": {
          "status": "generated",
          "div": "<div xmlns=\"http://www.w3.org/1999/xhtml\"><table class=\"hl7__ips\"><tr><th>Vital Sign</th><th>Date</th><th>Measurement</th></tr><tr><td>Diastolic Blood Pressure</td><td>28-Apr-2024</td><td>77 mm[Hg]</td></tr></table></div>"
        },
        "status": "final",
        "code": {
          "coding": [
            {
              "code": "$8462-4",
              "system": "http://loinc.org",
              "display": "Diastolic Blood Pressure"
            }
          ]
        },
        "subject": {
          "reference": "urn:uuid:8e3a9482-4c47-4b1c-986d-919bda392619",
          "display": "Marlene Gerlach"
        },
        "effectiveDateTime": "2024-04-28"
      }
    },
    {
      "fullUrl": "urn:uuid:b8c2a6c4-6b1f-4435-9fc9-440bba3a9c17",
      "resource": {
        "resourceType": "Observation",
        "id": "b8c2a6c4-6b1f-4435-9fc9-440bba3a9c17",
        "meta": {
          "profile": [
            "http://hl7.org/fhir/StructureDefinition/vitalsigns"
          ]
        },
        "category": [
          {
            "coding": [
              {
                "system": "http://terminology.hl7.org/CodeSystem/observation-category",
                "code": "vital-signs",
                "display": "Vital Signs"
              }
            ]
          }
        ],
        "valueQuantity": {
          "value": 108,
          "code": "mm[Hg]",
          "unit": "mm[Hg]"
        },
        "text": {
          "status": "generated",
          "div": "<div xmlns=\"http://www.w3.org/1999/xhtml\"><table class=\"hl7__ips\"><tr><th>Vital Sign</th><th>Date</th><th>Measurement</th></tr><tr><td>Systolic Blood Pressure</td><td>28-Apr-2024</td><td>108 mm[Hg]</td></tr></table></div>"
        },
        "status": "final",
        "code": {
          "coding": [
            {
              "code": "$8480-6",
              "system": "http://loinc.org",
              "display": "Systolic Blood Pressure"
            }
          ]
        },
        "subject": {
          "reference": "urn:uuid:8e3a9482-4c47-4b1c-986d-919bda392619",
          "display": "Marlene Gerlach"
        },
        "effectiveDateTime": "2024-04-28"
      }
    },
    {
      "fullUrl": "urn:uuid:a5851dc3-c9d7-46b5-bda8-cb803a9430d2",
      "resource": {
        "resourceType": "Observation",
        "id": "a5851dc3-c9d7-46b5-bda8-cb803a9430d2",
        "meta": {
          "profile": [
            "http://hl7.org/fhir/StructureDefinition/vitalsigns"
          ]
        },
        "category": [
          {
            "coding": [
              {
                "system": "http://terminology.hl7.org/CodeSystem/observation-category",
                "code": "vital-signs",
                "display": "Vital Signs"
              }
            ]
          }
        ],
        "valueQuantity": {
          "value": 76,
          "code": "/min",
          "unit": "/min"
        },
        "text": {
          "status": "generated",
          "div": "<div xmlns=\"http://www.w3.org/1999/xhtml\"><table class=\"hl7__ips\"><tr><th>Vital Sign</th><th>Date</th><th>Measurement</th></tr><tr><td>Heart rate</td><td>28-Apr-2024</td><td>76 /min</td></tr></table></div>"
        },
        "status": "final",
        "code": {
          "coding": [
            {
              "code": "$8867-4",
              "system": "http://loinc.org",
              "display": "Heart rate"
            }
          ]
        },
        "subject": {
          "reference": "urn:uuid:8e3a9482-4c47-4b1c-986d-919bda392619",
          "display": "Marlene Gerlach"
        },
        "effectiveDateTime": "2024-04-28"
      }
    },
    {
      "fullUrl": "urn:uuid:d64280df-ccbd-46ec-ae28-05d4c2cadcfb",
      "resource": {
        "resourceType": "Observation",
        "id": "d64280df-ccbd-46ec-ae28-05d4c2cadcfb",
        "meta": {
          "profile": [
            "http://hl7.org/fhir/StructureDefinition/vitalsigns"
          ]
        },
        "category": [
          {
            "coding": [
              {
                "system": "http://terminology.hl7.org/CodeSystem/observation-category",
                "code": "vital-signs",
                "display": "Vital Signs"
              }
            ]
          }
        ],
        "valueQuantity": {
          "value": 13,
          "code": "/min",
          "unit": "/min"
        },
        "text": {
          "status": "generated",
          "div": "<div xmlns=\"http://www.w3.org/1999/xhtml\"><table class=\"hl7__ips\"><tr><th>Vital Sign</th><th>Date</th><th>Measurement</th></tr><tr><td>Respiratory rate</td><td>28-Apr-2024</td><td>13 /min</td></tr></table></div>"
        },
        "status": "final",
        "code": {
          "coding": [
            {
              "code": "$9279-1",
              "system": "http://loinc.org",
              "display": "Respiratory rate"
            }
          ]
        },
        "subject": {
          "reference": "urn:uuid:8e3a9482-4c47-4b1c-986d-919bda392619",
          "display": "Marlene Gerlach"
        },
        "effectiveDateTime": "2024-04-28"
      }
    },
    {
      "fullUrl": "urn:uuid:aea06e42-8443-458f-8fb5-3bccac373b4d",
      "resource": {
        "resourceType": "Observation",
        "id": "aea06e42-8443-458f-8fb5-3bccac373b4d",
        "meta": {
          "profile": [
            "http://hl7.eu/fhir/laboratory/StructureDefinition/Observation-resultslab-eu-lab"
          ]
        },
        "performer": [
          {
            "display": "The Central European Lab"
          }
        ],
        "category": [
          {
            "coding": [
              {
                "system": "http://terminology.hl7.org/CodeSystem/observation-category",
                "code": "laboratory"
              }
            ]
          }
        ],
        "code": {
          "coding": [
            {
              "code": "4548-4",
              "system": "http://loinc.org",
              "display": "Hemoglobin A1c/Hemoglobin.total in Blood"
            }
          ],
          "text": "Hemoglobin A1c/Hemoglobin.total in Blood"
        },
        "valueQuantity": {
          "system": "http://unitsofmeasure.org",
          "value": 3.9,
          "unit": "%",
          "code": "%"
        },
        "referenceRange": [
          {
            "low": {
              "value": 4,
              "code": "%",
              "system": "http://unitsofmeasure.org"
            }
          },
          {
            "high": {
              "value": 6,
              "code": "%",
              "system": "http://unitsofmeasure.org"
            }
          }
        ],
        "interpretation": [
          {
            "coding": [
              {
                "code": "L",
                "system": "http://terminology.hl7.org/CodeSystem/v3-ObservationInterpretation",
                "display": "Low"
              }
            ]
          }
        ],
        "text": {
          "status": "generated",
          "div": "<div xmlns=\"http://www.w3.org/1999/xhtml\"><table class=\"hl7__eu__lab__report\"><tr><th>Test</th><th>04-May-2025</th><th>Reference&#xA0;Range</th><th>Unit</th></tr><tr><td>Hemoglobin A1c/Hemoglobin.total in Blood</td><td>3.9</td><td>4 - 6</td><td>L</td><td>%</td></tr></table></div>"
        },
        "status": "final",
        "subject": {
          "reference": "urn:uuid:8e3a9482-4c47-4b1c-986d-919bda392619",
          "display": "Marlene Gerlach"
        },
        "effectiveDateTime": "2025-05-04T19:24:33Z"
      }
    },
    {
      "fullUrl": "urn:uuid:cba6a6a7-9fcc-4f96-aede-76c9d0aea0d9",
      "resource": {
        "resourceType": "Observation",
        "id": "cba6a6a7-9fcc-4f96-aede-76c9d0aea0d9",
        "meta": {
          "profile": [
            "http://hl7.eu/fhir/laboratory/StructureDefinition/Observation-resultslab-eu-lab"
          ]
        },
        "performer": [
          {
            "display": "The Central European Lab"
          }
        ],
        "category": [
          {
            "coding": [
              {
                "system": "http://terminology.hl7.org/CodeSystem/observation-category",
                "code": "laboratory"
              }
            ]
          }
        ],
        "code": {
          "coding": [
            {
              "code": "2339-0",
              "system": "http://loinc.org",
              "display": "Glucose [Mass/volume] in Blood"
            }
          ],
          "text": "Glucose [Mass/volume] in Blood"
        },
        "valueQuantity": {
          "system": "http://unitsofmeasure.org",
          "value": 68.9,
          "unit": "mg/dL",
          "code": "mg/dL"
        },
        "referenceRange": [
          {
            "low": {
              "value": 70,
              "code": "mg/dL",
              "system": "http://unitsofmeasure.org"
            }
          },
          {
            "high": {
              "value": 140,
              "code": "mg/dL",
              "system": "http://unitsofmeasure.org"
            }
          }
        ],
        "interpretation": [
          {
            "coding": [
              {
                "code": "L",
                "system": "http://terminology.hl7.org/CodeSystem/v3-ObservationInterpretation",
                "display": "Low"
              }
            ]
          }
        ],
        "text": {
          "status": "generated",
          "div": "<div xmlns=\"http://www.w3.org/1999/xhtml\"><table class=\"hl7__eu__lab__report\"><tr><th>Test</th><th>04-May-2025</th><th>Reference&#xA0;Range</th><th>Unit</th></tr><tr><td>Glucose [Mass/volume] in Blood</td><td>68.9</td><td>70 - 140</td><td>L</td><td>mg/dL</td></tr></table></div>"
        },
        "status": "final",
        "subject": {
          "reference": "urn:uuid:8e3a9482-4c47-4b1c-986d-919bda392619",
          "display": "Marlene Gerlach"
        },
        "effectiveDateTime": "2025-05-04T19:24:33Z"
      }
    },
    {
      "fullUrl": "urn:uuid:a7e73d03-f130-4e24-a8a8-5dac2d0af50a",
      "resource": {
        "resourceType": "Observation",
        "id": "a7e73d03-f130-4e24-a8a8-5dac2d0af50a",
        "meta": {
          "profile": [
            "http://hl7.eu/fhir/laboratory/StructureDefinition/Observation-resultslab-eu-lab"
          ]
        },
        "performer": [
          {
            "display": "The Central European Lab"
          }
        ],
        "category": [
          {
            "coding": [
              {
                "system": "http://terminology.hl7.org/CodeSystem/observation-category",
                "code": "laboratory"
              }
            ]
          }
        ],
        "code": {
          "coding": [
            {
              "code": "6299-2",
              "system": "http://loinc.org",
              "display": "Urea nitrogen [Mass/volume] in Blood"
            }
          ],
          "text": "Urea nitrogen [Mass/volume] in Blood"
        },
        "valueQuantity": {
          "system": "http://unitsofmeasure.org",
          "value": 17.9,
          "unit": "mg/dL",
          "code": "mg/dL"
        },
        "referenceRange": [
          {
            "low": {
              "value": 7,
              "code": "mg/dL",
              "system": "http://unitsofmeasure.org"
            }
          },
          {
            "high": {
              "value": 20,
              "code": "mg/dL",
              "system": "http://unitsofmeasure.org"
            }
          }
        ],
        "text": {
          "status": "generated",
          "div": "<div xmlns=\"http://www.w3.org/1999/xhtml\"><table class=\"hl7__eu__lab__report\"><tr><th>Test</th><th>04-May-2025</th><th>Reference&#xA0;Range</th><th>Unit</th></tr><tr><td>Urea nitrogen [Mass/volume] in Blood</td><td>17.9</td><td>7 - 20</td><td></td><td>mg/dL</td></tr></table></div>"
        },
        "status": "final",
        "subject": {
          "reference": "urn:uuid:8e3a9482-4c47-4b1c-986d-919bda392619",
          "display": "Marlene Gerlach"
        },
        "effectiveDateTime": "2025-05-04T19:24:33Z"
      }
    },
    {
      "fullUrl": "urn:uuid:3be48cf8-e70e-4b64-8bbe-b7587b31d99f",
      "resource": {
        "resourceType": "Observation",
        "id": "3be48cf8-e70e-4b64-8bbe-b7587b31d99f",
        "meta": {
          "profile": [
            "http://hl7.eu/fhir/laboratory/StructureDefinition/Observation-resultslab-eu-lab"
          ]
        },
        "performer": [
          {
            "display": "The Central European Lab"
          }
        ],
        "category": [
          {
            "coding": [
              {
                "system": "http://terminology.hl7.org/CodeSystem/observation-category",
                "code": "laboratory"
              }
            ]
          }
        ],
        "code": {
          "coding": [
            {
              "code": "38483-4",
              "system": "http://loinc.org",
              "display": "Creatinine [Mass/volume] in Blood"
            }
          ],
          "text": "Creatinine [Mass/volume] in Blood"
        },
        "valueQuantity": {
          "system": "http://unitsofmeasure.org",
          "value": 0.4,
          "unit": "mg/dL",
          "code": "mg/dL"
        },
        "referenceRange": [
          {
            "low": {
              "value": 0.5,
              "code": "mg/dL",
              "system": "http://unitsofmeasure.org"
            }
          },
          {
            "high": {
              "value": 1.3,
              "code": "mg/dL",
              "system": "http://unitsofmeasure.org"
            }
          }
        ],
        "interpretation": [
          {
            "coding": [
              {
                "code": "L",
                "system": "http://terminology.hl7.org/CodeSystem/v3-ObservationInterpretation",
                "display": "Low"
              }
            ]
          }
        ],
        "text": {
          "status": "generated",
          "div": "<div xmlns=\"http://www.w3.org/1999/xhtml\"><table class=\"hl7__eu__lab__report\"><tr><th>Test</th><th>04-May-2025</th><th>Reference&#xA0;Range</th><th>Unit</th></tr><tr><td>Creatinine [Mass/volume] in Blood</td><td>0.4</td><td>0.5 - 1.3</td><td>L</td><td>mg/dL</td></tr></table></div>"
        },
        "status": "final",
        "subject": {
          "reference": "urn:uuid:8e3a9482-4c47-4b1c-986d-919bda392619",
          "display": "Marlene Gerlach"
        },
        "effectiveDateTime": "2025-05-04T19:24:33Z"
      }
    },
    {
      "fullUrl": "urn:uuid:b78a7b3c-9b0c-4b14-ad8b-b5cb519d90b7",
      "resource": {
        "resourceType": "Observation",
        "id": "b78a7b3c-9b0c-4b14-ad8b-b5cb519d90b7",
        "meta": {
          "profile": [
            "http://hl7.eu/fhir/laboratory/StructureDefinition/Observation-resultslab-eu-lab"
          ]
        },
        "performer": [
          {
            "display": "The Central European Lab"
          }
        ],
        "category": [
          {
            "coding": [
              {
                "system": "http://terminology.hl7.org/CodeSystem/observation-category",
                "code": "laboratory"
              }
            ]
          }
        ],
        "code": {
          "coding": [
            {
              "code": "49765-1",
              "system": "http://loinc.org",
              "display": "Calcium [Mass/volume] in Blood"
            }
          ],
          "text": "Calcium [Mass/volume] in Blood"
        },
        "valueQuantity": {
          "system": "http://unitsofmeasure.org",
          "value": 10.2,
          "unit": "mg/dL",
          "code": "mg/dL"
        },
        "referenceRange": [
          {
            "low": {
              "value": 8.5,
              "code": "mg/dL",
              "system": "http://unitsofmeasure.org"
            }
          },
          {
            "high": {
              "value": 10.5,
              "code": "mg/dL",
              "system": "http://unitsofmeasure.org"
            }
          }
        ],
        "text": {
          "status": "generated",
          "div": "<div xmlns=\"http://www.w3.org/1999/xhtml\"><table class=\"hl7__eu__lab__report\"><tr><th>Test</th><th>04-May-2025</th><th>Reference&#xA0;Range</th><th>Unit</th></tr><tr><td>Calcium [Mass/volume] in Blood</td><td>10.2</td><td>8.5 - 10.5</td><td></td><td>mg/dL</td></tr></table></div>"
        },
        "status": "final",
        "subject": {
          "reference": "urn:uuid:8e3a9482-4c47-4b1c-986d-919bda392619",
          "display": "Marlene Gerlach"
        },
        "effectiveDateTime": "2025-05-04T19:24:33Z"
      }
    },
    {
      "fullUrl": "urn:uuid:ac2ebe39-0af5-461d-97ff-4cd53ea0ded2",
      "resource": {
        "resourceType": "Observation",
        "id": "ac2ebe39-0af5-461d-97ff-4cd53ea0ded2",
        "meta": {
          "profile": [
            "http://hl7.eu/fhir/laboratory/StructureDefinition/Observation-resultslab-eu-lab"
          ]
        },
        "performer": [
          {
            "display": "The Central European Lab"
          }
        ],
        "category": [
          {
            "coding": [
              {
                "system": "http://terminology.hl7.org/CodeSystem/observation-category",
                "code": "laboratory"
              }
            ]
          }
        ],
        "code": {
          "coding": [
            {
              "code": "2947-0",
              "system": "http://loinc.org",
              "display": "Sodium [Moles/volume] in Blood"
            }
          ],
          "text": "Sodium [Moles/volume] in Blood"
        },
        "valueQuantity": {
          "system": "http://unitsofmeasure.org",
          "value": 136.8,
          "unit": "mmol/L",
          "code": "mmol/L"
        },
        "referenceRange": [
          {
            "low": {
              "value": 135,
              "code": "mmol/L",
              "system": "http://unitsofmeasure.org"
            }
          },
          {
            "high": {
              "value": 145,
              "code": "mmol/L",
              "system": "http://unitsofmeasure.org"
            }
          }
        ],
        "text": {
          "status": "generated",
          "div": "<div xmlns=\"http://www.w3.org/1999/xhtml\"><table class=\"hl7__eu__lab__report\"><tr><th>Test</th><th>04-May-2025</th><th>Reference&#xA0;Range</th><th>Unit</th></tr><tr><td>Sodium [Moles/volume] in Blood</td><td>136.8</td><td>135 - 145</td><td></td><td>mmol/L</td></tr></table></div>"
        },
        "status": "final",
        "subject": {
          "reference": "urn:uuid:8e3a9482-4c47-4b1c-986d-919bda392619",
          "display": "Marlene Gerlach"
        },
        "effectiveDateTime": "2025-05-04T19:24:33Z"
      }
    },
    {
      "fullUrl": "urn:uuid:8cfe891c-d615-4614-8f13-c16e368675b5",
      "resource": {
        "resourceType": "Observation",
        "id": "8cfe891c-d615-4614-8f13-c16e368675b5",
        "meta": {
          "profile": [
            "http://hl7.eu/fhir/laboratory/StructureDefinition/Observation-resultslab-eu-lab"
          ]
        },
        "performer": [
          {
            "display": "The Central European Lab"
          }
        ],
        "category": [
          {
            "coding": [
              {
                "system": "http://terminology.hl7.org/CodeSystem/observation-category",
                "code": "laboratory"
              }
            ]
          }
        ],
        "code": {
          "coding": [
            {
              "code": "6298-4",
              "system": "http://loinc.org",
              "display": "Potassium [Moles/volume] in Blood"
            }
          ],
          "text": "Potassium [Moles/volume] in Blood"
        },
        "valueQuantity": {
          "system": "http://unitsofmeasure.org",
          "value": 4.5,
          "unit": "mmol/L",
          "code": "mmol/L"
        },
        "referenceRange": [
          {
            "low": {
              "value": 3.5,
              "code": "mmol/L",
              "system": "http://unitsofmeasure.org"
            }
          },
          {
            "high": {
              "value": 5.1,
              "code": "mmol/L",
              "system": "http://unitsofmeasure.org"
            }
          }
        ],
        "text": {
          "status": "generated",
          "div": "<div xmlns=\"http://www.w3.org/1999/xhtml\"><table class=\"hl7__eu__lab__report\"><tr><th>Test</th><th>04-May-2025</th><th>Reference&#xA0;Range</th><th>Unit</th></tr><tr><td>Potassium [Moles/volume] in Blood</td><td>4.5</td><td>3.5 - 5.1</td><td></td><td>mmol/L</td></tr></table></div>"
        },
        "status": "final",
        "subject": {
          "reference": "urn:uuid:8e3a9482-4c47-4b1c-986d-919bda392619",
          "display": "Marlene Gerlach"
        },
        "effectiveDateTime": "2025-05-04T19:24:33Z"
      }
    },
    {
      "fullUrl": "urn:uuid:01d38a32-19c2-45b5-9aa4-e5e66edb1e79",
      "resource": {
        "resourceType": "Observation",
        "id": "01d38a32-19c2-45b5-9aa4-e5e66edb1e79",
        "meta": {
          "profile": [
            "http://hl7.eu/fhir/laboratory/StructureDefinition/Observation-resultslab-eu-lab"
          ]
        },
        "performer": [
          {
            "display": "The Central European Lab"
          }
        ],
        "category": [
          {
            "coding": [
              {
                "system": "http://terminology.hl7.org/CodeSystem/observation-category",
                "code": "laboratory"
              }
            ]
          }
        ],
        "code": {
          "coding": [
            {
              "code": "2069-3",
              "system": "http://loinc.org",
              "display": "Chloride [Moles/volume] in Blood"
            }
          ],
          "text": "Chloride [Moles/volume] in Blood"
        },
        "valueQuantity": {
          "system": "http://unitsofmeasure.org",
          "value": 102.8,
          "unit": "mmol/L",
          "code": "mmol/L"
        },
        "referenceRange": [
          {
            "low": {
              "value": 98,
              "code": "mmol/L",
              "system": "http://unitsofmeasure.org"
            }
          },
          {
            "high": {
              "value": 108,
              "code": "mmol/L",
              "system": "http://unitsofmeasure.org"
            }
          }
        ],
        "text": {
          "status": "generated",
          "div": "<div xmlns=\"http://www.w3.org/1999/xhtml\"><table class=\"hl7__eu__lab__report\"><tr><th>Test</th><th>04-May-2025</th><th>Reference&#xA0;Range</th><th>Unit</th></tr><tr><td>Chloride [Moles/volume] in Blood</td><td>102.8</td><td>98 - 108</td><td></td><td>mmol/L</td></tr></table></div>"
        },
        "status": "final",
        "subject": {
          "reference": "urn:uuid:8e3a9482-4c47-4b1c-986d-919bda392619",
          "display": "Marlene Gerlach"
        },
        "effectiveDateTime": "2025-05-04T19:24:33Z"
      }
    },
    {
      "fullUrl": "urn:uuid:b09f2bba-5d8d-4025-be67-075da456240a",
      "resource": {
        "resourceType": "Observation",
        "id": "b09f2bba-5d8d-4025-be67-075da456240a",
        "meta": {
          "profile": [
            "http://hl7.eu/fhir/laboratory/StructureDefinition/Observation-resultslab-eu-lab"
          ]
        },
        "performer": [
          {
            "display": "The Central European Lab"
          }
        ],
        "category": [
          {
            "coding": [
              {
                "system": "http://terminology.hl7.org/CodeSystem/observation-category",
                "code": "laboratory"
              }
            ]
          }
        ],
        "code": {
          "coding": [
            {
              "code": "20565-8",
              "system": "http://loinc.org",
              "display": "Carbon dioxide, total [Moles/volume] in Blood"
            }
          ],
          "text": "Carbon dioxide, total [Moles/volume] in Blood"
        },
        "valueQuantity": {
          "system": "http://unitsofmeasure.org",
          "value": 20,
          "unit": "mmol/L",
          "code": "mmol/L"
        },
        "referenceRange": [
          {
            "low": {
              "value": 22,
              "code": "mmol/L",
              "system": "http://unitsofmeasure.org"
            }
          },
          {
            "high": {
              "value": 29,
              "code": "mmol/L",
              "system": "http://unitsofmeasure.org"
            }
          }
        ],
        "interpretation": [
          {
            "coding": [
              {
                "code": "L",
                "system": "http://terminology.hl7.org/CodeSystem/v3-ObservationInterpretation",
                "display": "Low"
              }
            ]
          }
        ],
        "text": {
          "status": "generated",
          "div": "<div xmlns=\"http://www.w3.org/1999/xhtml\"><table class=\"hl7__eu__lab__report\"><tr><th>Test</th><th>04-May-2025</th><th>Reference&#xA0;Range</th><th>Unit</th></tr><tr><td>Carbon dioxide, total [Moles/volume] in Blood</td><td>20.0</td><td>22 - 29</td><td>L</td><td>mmol/L</td></tr></table></div>"
        },
        "status": "final",
        "subject": {
          "reference": "urn:uuid:8e3a9482-4c47-4b1c-986d-919bda392619",
          "display": "Marlene Gerlach"
        },
        "effectiveDateTime": "2025-05-04T19:24:33Z"
      }
    },
    {
      "fullUrl": "urn:uuid:a8bbaa8f-0456-4a01-a176-6680346ccaec",
      "resource": {
        "resourceType": "DeviceUseStatement",
        "id": "a8bbaa8f-0456-4a01-a176-6680346ccaec",
        "meta": {
          "profile": [
            "http://hl7.eu/fhir/eps/StructureDefinition/deviceUseStatement-eu-eps"
          ]
        },
        "timingPeriod": {
          "start": "1965-05-16"
        },
        "text": {
          "status": "generated",
          "div": "<div xmlns=\"http://www.w3.org/1999/xhtml\"><table class=\"hl7__ips\"><tr><td>Blood glucose meter (physical object)</td><td><span class=\"nb\">16-May-1965</span></td></tr></table></div>"
        },
        "status": "active",
        "device": {
          "reference": "urn:uuid:6573e948-95b2-4b5f-ab4c-df80c9ced1ac",
          "display": "Blood glucose meter (physical object)"
        },
        "subject": {
          "reference": "urn:uuid:8e3a9482-4c47-4b1c-986d-919bda392619",
          "display": "Marlene Gerlach"
        }
      }
    },
    {
      "fullUrl": "urn:uuid:6573e948-95b2-4b5f-ab4c-df80c9ced1ac",
      "resource": {
        "resourceType": "Device",
        "id": "6573e948-95b2-4b5f-ab4c-df80c9ced1ac",
        "meta": {
          "profile": [
            "http://hl7.eu/fhir/eps/StructureDefinition/device-eu-eps"
          ]
        },
        "udiCarrier": [
          {
            "id": "(01)31965918068425(11)650425(17)900510(10)38794298304(21)7421"
          }
        ],
        "status": "active",
        "patient": {
          "reference": "urn:uuid:8e3a9482-4c47-4b1c-986d-919bda392619",
          "display": "Marlene Gerlach"
        },
        "type": {
          "coding": [
            {
              "code": "337414009",
              "system": "http://snomed.info/sct",
              "display": "Blood glucose meter (physical object)"
            }
          ]
        }
      }
    },
    {
      "fullUrl": "urn:uuid:ad5adced-cfc0-4b2c-9980-4c1d23059d37",
      "resource": {
        "resourceType": "Device",
        "id": "ad5adced-cfc0-4b2c-9980-4c1d23059d37",
        "deviceName": [
          {
            "name": "SYNDERAI Synthetic Generator",
            "type": "manufacturer-name"
          }
        ],
        "version": [
          {
            "value": "5.0"
          }
        ],
        "text": {
          "status": "generated",
          "div": "<div xmlns=\"http://www.w3.org/1999/xhtml\">SYNDERAI Synthetic Generator v5.0</div>"
        },
        "status": "active\"",
        "distinctIdentifier": "synderai-generator-50",
        "manufacturer": "SYNDERAI Project"
      }
    },
    {
      "fullUrl": "urn:uuid:dc88da87-2630-4c15-b753-ad722969f510",
      "resource": {
        "resourceType": "Provenance",
        "id": "dc88da87-2630-4c15-b753-ad722969f510",
        "target": [
          {
            "reference": "Patient/8e3a9482-4c47-4b1c-986d-919bda392619"
          },
          {
            "reference": "Bundle/af43057d-7a7e-4038-abfe-fe357262cfbd"
          },
          {
            "reference": "Composition/92aa53e0-3795-45a3-a684-d4f58d27c776"
          },
          {
            "reference": "PractitionerRole/046cb880-c625-4ff2-9988-b0c66c8edb60"
          },
          {
            "reference": "Organization/36802fdc-3e9c-4b7a-982f-44dec698bf28"
          },
          {
            "reference": "Practitioner/2564f2a6-2488-428c-9202-dbb4f7b4eb5a"
          }
        ],
        "activity": {
          "text": "Synthetic Example Data Generation"
        },
        "policy": [
          "https://synderai.net/synderai-synthetic-data-policy"
        ],
        "agent": [
          {
            "type": {
              "text": "author"
            },
            "who": {
              "reference": "Device/ad5adced-cfc0-4b2c-9980-4c1d23059d37"
            }
          }
        ],
        "reason": [
          {
            "text": "Interoperability Testing and Training (non-clinical use)"
          }
        ],
        "text": {
          "status": "generated",
          "div": "<div xmlns=\"http://www.w3.org/1999/xhtml\">Provenance for SYNDERAI Synthetic Example Data Resource</div>"
        },
        "recorded": "2025-05-04T19:24:33Z"
      }
    }
  ],
  "type": "document",
  "timestamp": "2025-05-04T19:24:33Z"
}
