{
  "resourceType": "Bundle",
  "id": "4722eb93-5b75-47cb-8da0-8a9983547102",
  "meta": {
    "profile": [
      "http://hl7.eu/fhir/eps/StructureDefinition/bundle-eu-eps"
    ]
  },
  "identifier": {
    "assigner": {
      "display": "HL7 Europe"
    },
    "system": "urn:oid:2.16.840.1.113883.2.51.999",
    "value": "f7a76a9d-b059-4378-9ad7-bb014d4c3301"
  },
  "entry": [
    {
      "fullUrl": "urn:uuid:f5c97989-1c9f-4846-8a96-03c720c1aa08",
      "resource": {
        "resourceType": "Composition",
        "id": "f5c97989-1c9f-4846-8a96-03c720c1aa08",
        "meta": {
          "security": [
            {
              "system": "http://terminology.hl7.org/CodeSystem/v3-ActReason",
              "code": "HTEST"
            },
            {
              "system": "http://terminology.hl7.org/CodeSystem/v3-ActReason",
              "code": "TRAIN"
            }
          ],
          "tag": [
            {
              "system": "https://synderai.net/fhir/CodeSystem/tags",
              "code": "synthetic",
              "display": "SYNDERAI Synthetic data"
            }
          ],
          "profile": [
            "http://hl7.eu/fhir/eps/StructureDefinition/composition-eu-eps"
          ]
        },
        "identifier": {
          "assigner": {
            "display": "HL7 Europe"
          },
          "system": "urn:oid:2.16.840.1.113883.2.51.999",
          "value": "df82f22e-dc32-4019-9ce1-112aa826fecc"
        },
        "type": {
          "coding": [
            {
              "system": "http://loinc.org",
              "code": "60591-5",
              "display": "Patient summary Document"
            }
          ],
          "text": "Patient summary Document"
        },
        "author": [
          {
            "reference": "urn:uuid:af211ede-45c6-4a5b-a990-26d574e4d82c"
          }
        ],
        "section": [
          {
            "text": {
              "status": "generated",
              "div": "<div xmlns=\"http://www.w3.org/1999/xhtml\"><table class=\"hl7__ips\"><tr><th>Condition</th><th>Onset Date</th><th>Status</th></tr><tr><td>Chronic kidney disease stage 3</td><td><span class=\"nb\">14-Dec-2018</span></td><td>active</td></tr><tr><td>Proteinuria due to type 2 diabetes mellitus</td><td><span class=\"nb\">14-Dec-2018</span></td><td>active</td></tr><tr><td>Chronic kidney disease stage 2</td><td><span class=\"nb\">21-Nov-2014</span></td><td>active</td></tr><tr><td>Microalbuminuria due to type 2 diabetes mellitus</td><td><span class=\"nb\">21-Nov-2014</span></td><td>active</td></tr><tr><td>Disorder of kidney due to diabetes mellitus</td><td><span class=\"nb\">15-Nov-2013</span></td><td>active</td></tr><tr><td>Chronic kidney disease stage 1</td><td><span class=\"nb\">15-Nov-2013</span></td><td>active</td></tr><tr><td>Hyperlipidemia</td><td><span class=\"nb\">12-Oct-2007</span></td><td>active</td></tr><tr><td>Essential hypertension</td><td><span class=\"nb\">19-Sep-2003</span></td><td>active</td></tr><tr><td>Metabolic syndrome X</td><td><span class=\"nb\">19-Sep-2003</span></td><td>active</td></tr><tr><td>Ischemic heart disease</td><td><span class=\"nb\">30-Jun-1989</span></td><td>active</td></tr><tr><td>Chronic sinusitis</td><td><span class=\"nb\">10-Jan-1969</span></td><td>active</td></tr><tr><td>Prediabetes</td><td><span class=\"nb\">30-Aug-1963</span></td><td>active</td></tr><tr><td>Anemia</td><td><span class=\"nb\">30-Aug-1963</span></td><td>active</td></tr></table></div>"
            },
            "entry": [
              {
                "reference": "urn:uuid:0ff2b57d-79c4-48ea-bcbc-ade86b6f8539"
              },
              {
                "reference": "urn:uuid:e84e4997-c9dc-44da-96b9-91e4a2119f23"
              },
              {
                "reference": "urn:uuid:2214dba6-8158-451c-82cb-d3fa4afe3c28"
              },
              {
                "reference": "urn:uuid:91d0db19-b7b8-4551-807b-221ba4b92fe4"
              },
              {
                "reference": "urn:uuid:e593b679-f687-47a9-9d1d-abb8513d1d2e"
              },
              {
                "reference": "urn:uuid:9816de4c-3aa5-424f-95fa-6c0aa66eda7c"
              },
              {
                "reference": "urn:uuid:a06b273c-50c2-40cc-9214-c8cd5719dccc"
              },
              {
                "reference": "urn:uuid:b810f109-25e4-4859-b38f-a26c571a71df"
              },
              {
                "reference": "urn:uuid:f012b16a-7ff6-4b45-b85a-5e3640a6408d"
              },
              {
                "reference": "urn:uuid:26edcd71-cad9-42f9-b888-4eeb4bd7404d"
              },
              {
                "reference": "urn:uuid:0a003107-b01e-457b-8531-e86414eb92c5"
              },
              {
                "reference": "urn:uuid:1d1debcc-aded-4ce4-b775-23d6d891602f"
              },
              {
                "reference": "urn:uuid:a16bd0b8-8aea-4c52-a083-1e126429ad2b"
              }
            ],
            "code": {
              "coding": [
                {
                  "system": "http://loinc.org",
                  "code": "11450-4",
                  "display": "Problem list - Reported"
                }
              ]
            },
            "title": "Problem list"
          },
          {
            "text": {
              "status": "generated",
              "div": "<div xmlns=\"http://www.w3.org/1999/xhtml\"><table class=\"hl7__ips\"><tr><th>Medication</th><th>Since</th><th>Form</th><th>Dosage</th><th>Reason</th></tr><tr><td>insulin isophane human 70 UNT/ML / insulin regular human 30 UNT/ML Injectable Suspension [Humulin]</td><td><span class=\"nb\">2025-03-14</span></td><td>-</td><td>Inject 10 units subcutaneously twice daily before breakfast and dinner</td><td>Prediabetes</td></tr><tr><td>Hydrochlorothiazide 25 mg oral tablet</td><td><span class=\"nb\">2025-03-14</span></td><td>-</td><td>1 tablet (25 mg) by mouth once daily</td><td>Essential hypertension (disorder)</td></tr><tr><td>Simvastatin 10 mg oral tablet</td><td><span class=\"nb\">2025-01-24</span></td><td>-</td><td>1 tablet (10 mg) by mouth once daily</td><td>Hyperlipidemia</td></tr><tr><td>Nitroglycerin 400 microgram/actuation sublingual spray</td><td><span class=\"nb\">1989-07-07</span></td><td>-</td><td>400 micrograms (1 spray) sublingually as needed for chest pain, may repeat every 5 minutes as needed, up to 3 sprays in 15 minutes</td><td>-</td></tr><tr><td>Metoprolol tartrate (as metoprolol succinate) 100 mg prolonged-release oral tablet</td><td><span class=\"nb\">1989-07-07</span></td><td>-</td><td>1 tablet (100 mg) once daily</td><td>-</td></tr></table></div>"
            },
            "entry": [
              {
                "reference": "urn:uuid:83dbf70c-d6fd-4da1-8364-31fec6f27548"
              },
              {
                "reference": "urn:uuid:24cfcccc-04ec-4c02-93f0-e9bcce0632af"
              },
              {
                "reference": "urn:uuid:4be6c4be-46b6-4e2c-adc1-d4627ed10eca"
              },
              {
                "reference": "urn:uuid:9efd185c-62ae-4dfa-a711-f1addd2d07ac"
              },
              {
                "reference": "urn:uuid:8a22ab91-ae83-48f4-b018-6a66e926293e"
              }
            ],
            "code": {
              "coding": [
                {
                  "system": "http://loinc.org",
                  "code": "10160-0",
                  "display": "History of Medication use Narrative"
                }
              ]
            },
            "title": "Medication list"
          },
          {
            "text": {
              "status": "generated",
              "div": "<div xmlns=\"http://www.w3.org/1999/xhtml\"><table class=\"hl7__ips\"><tr><th>Vaccine</th><th>Date</th></tr><tr><td>Influenza virus antigen only vaccine product</td><td><span class=\"nb\">17-Jan-2025</span></td></tr><tr><td>SARS-CoV-2 mRNA vaccine</td><td><span class=\"nb\">12-Feb-2021</span></td></tr><tr><td>Clostridium tetani toxoid antigen adsorbed only vaccine product</td><td><span class=\"nb\">20-Dec-2019</span></td></tr></table></div>"
            },
            "entry": [
              {
                "reference": "urn:uuid:9ecb31cc-3475-4a6d-99ea-7a75cb7b3bc2"
              },
              {
                "reference": "urn:uuid:4532160a-8bc7-4a7e-b1f6-ee5f1335297c"
              },
              {
                "reference": "urn:uuid:e02293ed-73e7-4819-bd07-dbe4d7f7b217"
              }
            ],
            "code": {
              "coding": [
                {
                  "system": "http://loinc.org",
                  "code": "11369-6",
                  "display": "History of Immunization note"
                }
              ]
            },
            "title": "Immunizations list"
          },
          {
            "text": {
              "status": "generated",
              "div": "<div xmlns=\"http://www.w3.org/1999/xhtml\"><table class=\"hl7__ips\"><tr><th>Procedure</th><th>Date</th><th>Reason</th></tr><tr><td>Depression screening</td><td><span class=\"nb\">31-May-2024</span></td><td>-</td></tr><tr><td>Medication reconciliation</td><td><span class=\"nb\">31-May-2024</span></td><td>-</td></tr><tr><td>Assessment of health and social care needs</td><td><span class=\"nb\">31-May-2024</span></td><td>-</td></tr><tr><td>Screening for drug abuse</td><td><span class=\"nb\">31-May-2024</span></td><td>-</td></tr><tr><td>Assessment using Morse Fall Scale</td><td><span class=\"nb\">31-May-2024</span></td><td>-</td></tr><tr><td>Assessment of substance use</td><td><span class=\"nb\">31-May-2024</span></td><td>-</td></tr><tr><td>Depression screening using Patient Health Questionnaire Two-Item score (procedure)</td><td><span class=\"nb\">31-May-2024</span></td><td>-</td></tr><tr><td>Assessment of anxiety</td><td><span class=\"nb\">17-May-2024</span></td><td>-</td></tr><tr><td>Screening for domestic abuse</td><td><span class=\"nb\">17-May-2024</span></td><td>-</td></tr><tr><td>Assessment using AUDIT-C (Alcohol Use Disorders Identification Test - Consumption)</td><td><span class=\"nb\">05-Apr-2024</span></td><td>-</td></tr></table></div>"
            },
            "entry": [
              {
                "reference": "urn:uuid:8b4b60f8-0eaa-461b-a70e-e82dd19fde1d"
              },
              {
                "reference": "urn:uuid:84bdfac8-ed3f-4da4-a994-0b421a358ee4"
              },
              {
                "reference": "urn:uuid:fe82fdb8-ab46-499d-8a93-86a7ec04cc2d"
              },
              {
                "reference": "urn:uuid:40697565-10af-455c-b606-22e83dcc269c"
              },
              {
                "reference": "urn:uuid:a3fc0ef6-c4b8-4a59-a17f-f3098f6eb8e9"
              },
              {
                "reference": "urn:uuid:49ac225c-4679-43fd-9133-e88f044164a5"
              },
              {
                "reference": "urn:uuid:7610a4f9-9ce2-4923-aa45-94907e4d877b"
              },
              {
                "reference": "urn:uuid:b4c1a6d6-f598-485b-9f39-fa055add769f"
              },
              {
                "reference": "urn:uuid:195089e7-d2d2-4435-9fb3-e2bc6800c818"
              },
              {
                "reference": "urn:uuid:04158518-9290-4c89-bd9a-2b8389ff499e"
              }
            ],
            "code": {
              "coding": [
                {
                  "system": "http://loinc.org",
                  "code": "47519-4",
                  "display": "History of Procedures Document"
                }
              ]
            },
            "title": "Procedure History list"
          },
          {
            "text": {
              "status": "generated",
              "div": "<div xmlns=\"http://www.w3.org/1999/xhtml\"><table class=\"hl7__ips\"><tr><th>Allergy/Intolerance</th><th>Onset Date</th><th>Status</th><th>Type</th><th>Reaction</th></tr><tr><td></td><td>?</td><td>active</td><td>?</td><td></td></tr></table></div>"
            },
            "entry": [
              {
                "reference": "urn:uuid:c5cf4251-8119-4441-aca7-f81354499218"
              }
            ],
            "code": {
              "coding": [
                {
                  "system": "http://loinc.org",
                  "code": "48765-2",
                  "display": "Allergies and adverse reactions Document"
                }
              ]
            },
            "title": "Allergies and Intolerances"
          },
          {
            "text": {
              "status": "generated",
              "div": "<div xmlns=\"http://www.w3.org/1999/xhtml\"><table class=\"hl7__ips\"><tr><th>Active Planned Care / Goals</th><th>Start Date</th><th>Reason</th></tr><tr><td>Dialysis care plan</td><td><span class=\"nb\">07-Jul-2025</span></td><td>-</td></tr><tr><td>Hyperlipidemia clinical management plan</td><td><span class=\"nb\">02-Nov-2007</span></td><td>Hyperlipidemia</td></tr><tr><td><ul><li>Reduce LDL cholesterol to target level to lower cardiovascular risk.</li><li>Achieve total cholesterol within recommended range.</li><li>Maintain fasting triglycerides below recommended threshold.</li><li>Maintain HDL cholesterol above minimum recommended level.</li></ul></td><td></td><td></td></tr><tr><td>Lifestyle education regarding hypertension</td><td><span class=\"nb\">19-Sep-2003</span></td><td>Essential hypertension (disorder)</td></tr><tr><td><ul><li>Maintain blood pressure below 130/80 mmHg through lifestyle modifications.</li><li>Reduce daily sodium intake to less than 2.3 grams per day.</li><li>Achieve a 5% reduction in body weight to support blood pressure control.</li><li>Engage in at least 150 minutes of moderate-intensity physical activity per week.</li></ul></td><td></td><td></td></tr><tr><td>Diabetes self management plan</td><td><span class=\"nb\">30-Aug-1963</span></td><td>Prediabetes</td></tr><tr><td><ul><li>Patient will implement and maintain a diabetes self-management plan to delay or prevent progression of prediabetes.</li></ul></td><td></td><td></td></tr><tr><th>Immunization Recommendation</th><th>Due Date</th><th>Reason</th></tr><tr><td>Vaccine product containing only Influenza virus antigen (medicinal product)</td><td><span class=\"nb\">01-Oct-2025</span></td><td>Annual seasonal influenza vaccination</td></tr></table></div>"
            },
            "entry": [
              {
                "reference": "urn:uuid:91600b16-2a51-485b-a945-a8f17c782101"
              },
              {
                "reference": "urn:uuid:7b381848-cdaa-42b5-877a-b53c4c9ac0ed"
              },
              {
                "reference": "urn:uuid:3e427b59-7afc-42bd-9d43-929f707fe4bd"
              },
              {
                "reference": "urn:uuid:e1b0b77e-b353-47af-80cf-40f53f5ebf47"
              },
              {
                "reference": "urn:uuid:b592ad5c-31c9-4b8e-a153-f4c6a54ed0db"
              }
            ],
            "code": {
              "coding": [
                {
                  "system": "http://loinc.org",
                  "code": "18776-5",
                  "display": "Plan of care note"
                }
              ]
            },
            "title": "Care Plan"
          },
          {
            "text": {
              "status": "generated",
              "div": "<div xmlns=\"http://www.w3.org/1999/xhtml\"><table class=\"hl7__ips\"><tr><th>Vital Signs</th><th>2025-07-16</th><th>2025-07-13</th></tr><tr><td>Weight difference [Mass difference] --pre dialysis - post dialysis</td><td>3.6 kg</td><td>2.9 kg</td></tr><tr><td>Pain severity - 0-10 verbal numeric rating [Score] - Reported</td><td>5 {score}</td><td>4 {score}</td></tr></table></div>"
            },
            "entry": [
              {
                "reference": "urn:uuid:3d16fce9-b5c4-494a-8dd4-e38cadd2a8a3"
              },
              {
                "reference": "urn:uuid:88e9bb7e-9b66-4b18-a63c-06e3bf1d6ff4"
              },
              {
                "reference": "urn:uuid:57b66921-c112-4ac7-bce6-43c42323174c"
              },
              {
                "reference": "urn:uuid:ae4abb1b-f312-4f3d-b3f7-58c1fab4346e"
              }
            ],
            "code": {
              "coding": [
                {
                  "system": "http://loinc.org",
                  "code": "8716-3",
                  "display": "Vital signs note"
                }
              ]
            },
            "title": "Vital Signs"
          },
          {
            "text": {
              "status": "generated",
              "div": "<div xmlns=\"http://www.w3.org/1999/xhtml\"><table class=\"hl7__ips\"><table class=\"hl7__ips\"><thead><tr><th>Recent Lab Observations</th><th>07-JUL-2025</th><th>Reference&#xA0;Range</th><th>Unit</th></tr></thead><tbody><tr><td>Glucose [Mass/volume] in Blood</td><td>79.6</td><td>70 - 140</td><td>mg/dL</td></tr><tr><td>Urea nitrogen [Mass/volume] in Blood</td><td>11.8</td><td>7 - 20</td><td>mg/dL</td></tr><tr><td>Creatinine [Mass/volume] in Blood</td><td><strong>3.1 H</strong></td><td>0.9 - 1.3</td><td>mg/dL</td></tr><tr><td>Calcium [Mass/volume] in Blood</td><td>9.2</td><td>8.5 - 10.5</td><td>mg/dL</td></tr><tr><td>Sodium [Moles/volume] in Blood</td><td>137.8</td><td>135 - 145</td><td>mmol/L</td></tr><tr><td>Potassium [Moles/volume] in Blood</td><td>4.8</td><td>3.5 - 5.1</td><td>mmol/L</td></tr><tr><td>Chloride [Moles/volume] in Blood</td><td><strong>108.5 H</strong></td><td>98 - 108</td><td>mmol/L</td></tr><tr><td>Carbon dioxide, total [Moles/volume] in Blood</td><td>25.7</td><td>22 - 29</td><td>mmol/L</td></tr><tr><td>Protein [Mass/volume] in Serum or Plasma</td><td>6.6</td><td>6 - 8.3</td><td>g/dL</td></tr><tr><td>Albumin [Mass/volume] in Serum or Plasma</td><td>4.5</td><td>3.5 - 5.5</td><td>g/dL</td></tr><tr><td>Globulin [Mass/volume] in Serum by calculation</td><td>2.3</td><td>2 - 3.5</td><td>g/L</td></tr><tr><td>Bilirubin.total [Mass/volume] in Serum or Plasma</td><td>0.5</td><td>0.3 - 1.2</td><td>mg/dL</td></tr><tr><td>Alkaline phosphatase [Enzymatic activity/volume] in Serum or Plasma</td><td><strong>24.4 L</strong></td><td>39 - 147</td><td>U/L</td></tr><tr><td>Alanine aminotransferase [Enzymatic activity/volume] in Serum or Plasma</td><td>59.0</td><td>10 - 63</td><td>U/L</td></tr><tr><td>Aspartate aminotransferase [Enzymatic activity/volume] in Serum or Plasma</td><td>32.5</td><td>10 - 40</td><td>U/L</td></tr><tr><td>Appearance of Urine</td><td>Cloudy urine</td><td></td><td></td></tr><tr><td>Odor of Urine</td><td>Urine smell ammoniacal</td><td></td><td></td></tr><tr><td>Clarity of Urine</td><td>Translucent</td><td></td><td></td></tr><tr><td>Color of Urine</td><td>Brown color</td><td></td><td></td></tr><tr><td>Glucose [Mass/volume] in Urine by Test strip</td><td>0.6</td><td>0 - 0.8</td><td>mg/dL</td></tr><tr><td>Glucose [Presence] in Urine by Test strip</td><td>++</td><td></td><td></td></tr><tr><td>Bilirubin.total [Mass/volume] in Urine by Test strip</td><td>0.9</td><td>0 - 1.9</td><td>mg/dL</td></tr><tr><td>Bilirubin.total [Presence] in Urine by Test strip</td><td>Finding of bilirubin in urine</td><td></td><td></td></tr><tr><td>Ketones [Mass/volume] in Urine by Test strip</td><td><strong>16.4 H</strong></td><td>0 - 3</td><td>mg/dL</td></tr><tr><td>Ketones [Presence] in Urine by Test strip</td><td>Urine ketone test = +++</td><td></td><td></td></tr><tr><td>Specific gravity of Urine by Test strip</td><td><strong>1.0 L</strong></td><td>1.01 - 1.03</td><td>{nominal}</td></tr><tr><td>pH of Urine by Test strip</td><td>5.6</td><td>4.5 - 7.5</td><td>pH</td></tr><tr><td>Protein [Mass/volume] in Urine by Test strip</td><td><strong>326.8 H</strong></td><td>0 - 149</td><td>mg/dL</td></tr><tr><td>Protein [Presence] in Urine by Test strip</td><td>Urine protein test = +++</td><td></td><td></td></tr><tr><td>Nitrite [Presence] in Urine by Test strip</td><td>Urine nitrite negative</td><td></td><td></td></tr><tr><td>Hemoglobin [Presence] in Urine by Test strip</td><td>Urine blood test = negative</td><td></td><td></td></tr><tr><td>Leukocyte esterase [Presence] in Urine by Test strip</td><td>Urine leukocyte test negative</td><td></td><td></td></tr></tbody></table></table></div>"
            },
            "entry": [
              {
                "reference": "urn:uuid:f174fb3c-a724-4721-bbd0-71fb1eabe4ef"
              },
              {
                "reference": "urn:uuid:ae53ecd3-eb1c-45e8-9e39-c002dc95cffc"
              },
              {
                "reference": "urn:uuid:bb62d70a-ee7a-4d39-bf0f-960408cbb084"
              },
              {
                "reference": "urn:uuid:c3e421c6-c378-4ce9-81e6-35f6145bcdca"
              },
              {
                "reference": "urn:uuid:5dd90ee7-7233-4f55-aef3-609fb0ccde7b"
              },
              {
                "reference": "urn:uuid:18f8e8fd-969c-4068-aa93-2f954d51ff38"
              },
              {
                "reference": "urn:uuid:593fac22-eb33-4bcd-a056-c346d6df6c9c"
              },
              {
                "reference": "urn:uuid:0cf89f66-5c60-4f3b-9f20-bdf69e390aa8"
              },
              {
                "reference": "urn:uuid:1100e35d-51b6-437d-b06b-4aacb0b0f5f4"
              },
              {
                "reference": "urn:uuid:846db72b-d3aa-4ce4-8328-acee243747f3"
              },
              {
                "reference": "urn:uuid:1ae74fab-7cc2-4c41-ba39-e68264fc1fe0"
              },
              {
                "reference": "urn:uuid:15e87d8a-5081-4bc2-bf80-3c4e2fa2d206"
              },
              {
                "reference": "urn:uuid:11019b29-1a02-49c0-bf82-ad77dec7621d"
              },
              {
                "reference": "urn:uuid:5b693bbc-de2a-4971-abbe-254930b99b5c"
              },
              {
                "reference": "urn:uuid:ddd7462f-36de-4121-9227-27063e8b4cce"
              },
              {
                "reference": "urn:uuid:062b7bae-80df-4505-a39c-2e6b13a30f97"
              },
              {
                "reference": "urn:uuid:85b2ec25-5cc0-4c96-8214-e2c4435585bd"
              },
              {
                "reference": "urn:uuid:806d1038-dd16-4a7f-b8c8-79aa3c37a351"
              },
              {
                "reference": "urn:uuid:80a84c73-ba6d-40de-8357-84350346e665"
              },
              {
                "reference": "urn:uuid:ef0cda20-86ab-4dd6-bd1f-7fd219242900"
              },
              {
                "reference": "urn:uuid:9adb3b88-d53e-48a8-b85a-9e0e090f7834"
              },
              {
                "reference": "urn:uuid:d6d3888d-9d53-41fc-a508-491cfcd4ea9a"
              },
              {
                "reference": "urn:uuid:bc13b56a-bb97-4ec3-9031-e7e9075b2819"
              },
              {
                "reference": "urn:uuid:2b199681-cca7-4c80-83c2-b0d16dcd1205"
              },
              {
                "reference": "urn:uuid:eeab20f8-f6cf-40f9-821e-45a2deb9f1be"
              },
              {
                "reference": "urn:uuid:63bd1496-11bb-488b-9971-ef977b8fe9db"
              },
              {
                "reference": "urn:uuid:71e37d53-015a-4276-a895-faa84acf8dca"
              },
              {
                "reference": "urn:uuid:334dd1ba-4705-4e38-b73f-eea3c2a43f64"
              },
              {
                "reference": "urn:uuid:559f86b8-24e2-4492-a068-5e0d4234e44b"
              },
              {
                "reference": "urn:uuid:ccdb93c3-ebb2-4bf8-b330-577ea0ae9594"
              },
              {
                "reference": "urn:uuid:04a845d2-7e7a-4b44-a7df-4a59ff28b3f8"
              },
              {
                "reference": "urn:uuid:b8a7bdac-3e37-4ac6-a633-eacbcad4639d"
              }
            ],
            "code": {
              "coding": [
                {
                  "system": "http://loinc.org",
                  "code": "30954-2",
                  "display": "Relevant diagnostic tests/laboratory data note"
                }
              ]
            },
            "title": "Relevant diagnostic tests/laboratory data"
          },
          {
            "text": {
              "status": "generated",
              "div": "<div xmlns=\"http://www.w3.org/1999/xhtml\"><table class=\"hl7__ips\"><tr><th>Device</th><th>Date (since)</th></tr><tr><td>Home nebulizer (physical object)</td><td><span class=\"nb\">10-Jan-1969</span></td></tr><tr><td>Blood glucose meter (physical object)</td><td><span class=\"nb\">30-Aug-1963</span></td></tr></table></div>"
            },
            "entry": [
              {
                "reference": "urn:uuid:1a15eb58-d153-4662-91fb-e7ece2af66e1"
              },
              {
                "reference": "urn:uuid:c4d5438c-c3ac-498c-b8ec-ae4501ddad65"
              }
            ],
            "code": {
              "coding": [
                {
                  "system": "http://loinc.org",
                  "code": "46264-8",
                  "display": "History of medical device use"
                }
              ]
            },
            "title": "Device Use"
          }
        ],
        "title": "European Patient Summary",
        "status": "final",
        "subject": {
          "reference": "urn:uuid:dfc420c5-17d3-4161-b686-8f7db7812755",
          "display": "Victor Lagarde"
        },
        "custodian": {
          "reference": "urn:uuid:cb21b33f-9ad4-4b48-bd45-01ff999c3e71"
        },
        "date": "2025-07-07",
        "confidentiality": "N"
      }
    },
    {
      "fullUrl": "urn:uuid:dfc420c5-17d3-4161-b686-8f7db7812755",
      "resource": {
        "resourceType": "Patient",
        "id": "dfc420c5-17d3-4161-b686-8f7db7812755",
        "meta": {
          "security": [
            {
              "system": "http://terminology.hl7.org/CodeSystem/v3-ActReason",
              "code": "HTEST"
            },
            {
              "system": "http://terminology.hl7.org/CodeSystem/v3-ActReason",
              "code": "TRAIN"
            }
          ],
          "tag": [
            {
              "system": "https://synderai.net/fhir/CodeSystem/tags",
              "code": "synthetic",
              "display": "SYNDERAI Synthetic data"
            }
          ],
          "profile": [
            "http://hl7.eu/fhir/eps/StructureDefinition/patient-eu-eps"
          ]
        },
        "identifier": [
          {
            "type": {
              "coding": [
                {
                  "code": "PT",
                  "system": "http://terminology.hl7.org/CodeSystem/v2-0203"
                }
              ]
            },
            "system": "http://ec.europa.eu/identifier/eci",
            "value": "9925-001801-9"
          },
          {
            "type": {
              "coding": [
                {
                  "code": "MR",
                  "system": "http://terminology.hl7.org/CodeSystem/v2-0203"
                }
              ]
            },
            "system": "http://local.setting.eu/identifier",
            "value": "22c2dfd0-ac57-8833-2532-848f180896a4"
          }
        ],
        "name": [
          {
            "family": "Lagarde"
          },
          {
            "given": [
              "Victor"
            ]
          },
          {
            "text": "Victor Lagarde"
          }
        ],
        "address": [
          {
            "line": [
              "avenue Robert"
            ],
            "use": "home",
            "type": "physical",
            "postalCode": "80300",
            "city": "Albert",
            "country": "France"
          }
        ],
        "telecom": [
          {
            "system": "phone",
            "value": "0177941801"
          }
        ],
        "extension": [
          {
            "url": "http://hl7.org/fhir/StructureDefinition/patient-nationality",
            "valueCodeableConcept": {
              "coding": [
                {
                  "code": "FR",
                  "system": "http://hl7.org/fhir/ValueSet/country"
                }
              ]
            }
          }
        ],
        "text": {
          "status": "generated",
          "div": "<div xmlns=\"http://www.w3.org/1999/xhtml\"><table class=\"hl7__ips\"><tr><td>Victor Lagarde</td><td>male</td><td>31-Aug-1939</td></tr></table></div>"
        },
        "gender": "male",
        "birthDate": "1939-08-31"
      }
    },
    {
      "fullUrl": "urn:uuid:af211ede-45c6-4a5b-a990-26d574e4d82c",
      "resource": {
        "resourceType": "PractitionerRole",
        "id": "af211ede-45c6-4a5b-a990-26d574e4d82c",
        "meta": {
          "profile": [
            "http://hl7.eu/fhir/base/StructureDefinition/practitionerRole-eu"
          ]
        },
        "text": {
          "status": "generated",
          "div": "<div xmlns=\"http://www.w3.org/1999/xhtml\"><table class=\"hl7__ips\">Provider Role Id af211ede-45c6-4a5b-a990-26d574e4d82c</table></div>"
        },
        "practitioner": {
          "reference": "urn:uuid:21f73fcc-96d8-4e8a-8b9f-5297d4171f10"
        },
        "organization": {
          "reference": "urn:uuid:cb21b33f-9ad4-4b48-bd45-01ff999c3e71"
        }
      }
    },
    {
      "fullUrl": "urn:uuid:21f73fcc-96d8-4e8a-8b9f-5297d4171f10",
      "resource": {
        "resourceType": "Practitioner",
        "id": "21f73fcc-96d8-4e8a-8b9f-5297d4171f10",
        "meta": {
          "profile": [
            "http://hl7.eu/fhir/base/StructureDefinition/practitioner-eu"
          ]
        },
        "name": [
          {
            "prefix": [
              "Dr."
            ],
            "given": [
              "Hel"
            ],
            "family": "Ping"
          }
        ],
        "text": {
          "status": "generated",
          "div": "<div xmlns=\"http://www.w3.org/1999/xhtml\"><table class=\"hl7__ips\">Dr. Hel Ping</table></div>"
        }
      }
    },
    {
      "fullUrl": "urn:uuid:cb21b33f-9ad4-4b48-bd45-01ff999c3e71",
      "resource": {
        "resourceType": "Organization",
        "id": "cb21b33f-9ad4-4b48-bd45-01ff999c3e71",
        "meta": {
          "profile": [
            "http://hl7.eu/fhir/base/StructureDefinition/organization-eu"
          ]
        },
        "identifier": [
          {
            "assigner": {
              "display": "HL7 Europe"
            },
            "system": "urn:oid:2.16.840.1.113883.2.51.999",
            "value": "6e745823-0514-47e8-9c1e-1f039f51762d"
          }
        ],
        "address": [
          {
            "city": "Auxerre",
            "postalCode": "89000",
            "country": "France"
          }
        ],
        "text": {
          "status": "generated",
          "div": "<div xmlns=\"http://www.w3.org/1999/xhtml\"><table class=\"hl7__ips\">Thiriot Didier (Cardiologie)</table></div>"
        },
        "name": "Thiriot Didier (Cardiologie)"
      }
    },
    {
      "fullUrl": "urn:uuid:0ff2b57d-79c4-48ea-bcbc-ade86b6f8539",
      "resource": {
        "resourceType": "Condition",
        "id": "0ff2b57d-79c4-48ea-bcbc-ade86b6f8539",
        "meta": {
          "profile": [
            "http://hl7.org/fhir/uv/ips/StructureDefinition/Condition-uv-ips"
          ]
        },
        "category": [
          {
            "coding": [
              {
                "code": "problem-list-item",
                "system": "http://terminology.hl7.org/CodeSystem/condition-category",
                "display": "Problem List Item"
              }
            ]
          }
        ],
        "code": {
          "coding": [
            {
              "code": "433144002",
              "system": "http://snomed.info/sct",
              "display": "Chronic kidney disease stage 3 (disorder)"
            }
          ],
          "text": "Chronic kidney disease stage 3"
        },
        "text": {
          "status": "generated",
          "div": "<div xmlns=\"http://www.w3.org/1999/xhtml\"><table class=\"hl7__ips\"><tr><td>Chronic kidney disease stage 3</td><td><span class=\"nb\">14-Dec-2018</span></td><td>active</td></tr></table></div>"
        },
        "onsetDateTime": "2018-12-14",
        "subject": {
          "reference": "urn:uuid:",
          "display": "Victor Lagarde"
        },
        "asserter": {
          "reference": "urn:uuid:",
          "display": "Thiriot Didier (Cardiologie)"
        }
      }
    },
    {
      "fullUrl": "urn:uuid:e84e4997-c9dc-44da-96b9-91e4a2119f23",
      "resource": {
        "resourceType": "Condition",
        "id": "e84e4997-c9dc-44da-96b9-91e4a2119f23",
        "meta": {
          "profile": [
            "http://hl7.org/fhir/uv/ips/StructureDefinition/Condition-uv-ips"
          ]
        },
        "category": [
          {
            "coding": [
              {
                "code": "problem-list-item",
                "system": "http://terminology.hl7.org/CodeSystem/condition-category",
                "display": "Problem List Item"
              }
            ]
          }
        ],
        "code": {
          "coding": [
            {
              "code": "157141000119108",
              "system": "http://snomed.info/sct",
              "display": "Proteinuria due to type 2 diabetes mellitus (disorder)"
            }
          ],
          "text": "Proteinuria due to type 2 diabetes mellitus"
        },
        "text": {
          "status": "generated",
          "div": "<div xmlns=\"http://www.w3.org/1999/xhtml\"><table class=\"hl7__ips\"><tr><td>Proteinuria due to type 2 diabetes mellitus</td><td><span class=\"nb\">14-Dec-2018</span></td><td>active</td></tr></table></div>"
        },
        "onsetDateTime": "2018-12-14",
        "subject": {
          "reference": "urn:uuid:",
          "display": "Victor Lagarde"
        },
        "asserter": {
          "reference": "urn:uuid:",
          "display": "Thiriot Didier (Cardiologie)"
        }
      }
    },
    {
      "fullUrl": "urn:uuid:2214dba6-8158-451c-82cb-d3fa4afe3c28",
      "resource": {
        "resourceType": "Condition",
        "id": "2214dba6-8158-451c-82cb-d3fa4afe3c28",
        "meta": {
          "profile": [
            "http://hl7.org/fhir/uv/ips/StructureDefinition/Condition-uv-ips"
          ]
        },
        "category": [
          {
            "coding": [
              {
                "code": "problem-list-item",
                "system": "http://terminology.hl7.org/CodeSystem/condition-category",
                "display": "Problem List Item"
              }
            ]
          }
        ],
        "code": {
          "coding": [
            {
              "code": "431856006",
              "system": "http://snomed.info/sct",
              "display": "Chronic kidney disease stage 2 (disorder)"
            }
          ],
          "text": "Chronic kidney disease stage 2"
        },
        "text": {
          "status": "generated",
          "div": "<div xmlns=\"http://www.w3.org/1999/xhtml\"><table class=\"hl7__ips\"><tr><td>Chronic kidney disease stage 2</td><td><span class=\"nb\">21-Nov-2014</span></td><td>active</td></tr></table></div>"
        },
        "onsetDateTime": "2014-11-21",
        "subject": {
          "reference": "urn:uuid:",
          "display": "Victor Lagarde"
        },
        "asserter": {
          "reference": "urn:uuid:",
          "display": "Thiriot Didier (Cardiologie)"
        }
      }
    },
    {
      "fullUrl": "urn:uuid:91d0db19-b7b8-4551-807b-221ba4b92fe4",
      "resource": {
        "resourceType": "Condition",
        "id": "91d0db19-b7b8-4551-807b-221ba4b92fe4",
        "meta": {
          "profile": [
            "http://hl7.org/fhir/uv/ips/StructureDefinition/Condition-uv-ips"
          ]
        },
        "category": [
          {
            "coding": [
              {
                "code": "problem-list-item",
                "system": "http://terminology.hl7.org/CodeSystem/condition-category",
                "display": "Problem List Item"
              }
            ]
          }
        ],
        "code": {
          "coding": [
            {
              "code": "90781000119102",
              "system": "http://snomed.info/sct",
              "display": "Microalbuminuria due to type 2 diabetes mellitus (disorder)"
            }
          ],
          "text": "Microalbuminuria due to type 2 diabetes mellitus"
        },
        "text": {
          "status": "generated",
          "div": "<div xmlns=\"http://www.w3.org/1999/xhtml\"><table class=\"hl7__ips\"><tr><td>Microalbuminuria due to type 2 diabetes mellitus</td><td><span class=\"nb\">21-Nov-2014</span></td><td>active</td></tr></table></div>"
        },
        "onsetDateTime": "2014-11-21",
        "subject": {
          "reference": "urn:uuid:",
          "display": "Victor Lagarde"
        },
        "asserter": {
          "reference": "urn:uuid:",
          "display": "Thiriot Didier (Cardiologie)"
        }
      }
    },
    {
      "fullUrl": "urn:uuid:e593b679-f687-47a9-9d1d-abb8513d1d2e",
      "resource": {
        "resourceType": "Condition",
        "id": "e593b679-f687-47a9-9d1d-abb8513d1d2e",
        "meta": {
          "profile": [
            "http://hl7.org/fhir/uv/ips/StructureDefinition/Condition-uv-ips"
          ]
        },
        "category": [
          {
            "coding": [
              {
                "code": "problem-list-item",
                "system": "http://terminology.hl7.org/CodeSystem/condition-category",
                "display": "Problem List Item"
              }
            ]
          }
        ],
        "code": {
          "coding": [
            {
              "code": "127013003",
              "system": "http://snomed.info/sct",
              "display": "Disorder of kidney due to diabetes mellitus (disorder)"
            }
          ],
          "text": "Disorder of kidney due to diabetes mellitus"
        },
        "text": {
          "status": "generated",
          "div": "<div xmlns=\"http://www.w3.org/1999/xhtml\"><table class=\"hl7__ips\"><tr><td>Disorder of kidney due to diabetes mellitus</td><td><span class=\"nb\">15-Nov-2013</span></td><td>active</td></tr></table></div>"
        },
        "onsetDateTime": "2013-11-15",
        "subject": {
          "reference": "urn:uuid:",
          "display": "Victor Lagarde"
        },
        "asserter": {
          "reference": "urn:uuid:",
          "display": "Thiriot Didier (Cardiologie)"
        }
      }
    },
    {
      "fullUrl": "urn:uuid:9816de4c-3aa5-424f-95fa-6c0aa66eda7c",
      "resource": {
        "resourceType": "Condition",
        "id": "9816de4c-3aa5-424f-95fa-6c0aa66eda7c",
        "meta": {
          "profile": [
            "http://hl7.org/fhir/uv/ips/StructureDefinition/Condition-uv-ips"
          ]
        },
        "category": [
          {
            "coding": [
              {
                "code": "problem-list-item",
                "system": "http://terminology.hl7.org/CodeSystem/condition-category",
                "display": "Problem List Item"
              }
            ]
          }
        ],
        "code": {
          "coding": [
            {
              "code": "431855005",
              "system": "http://snomed.info/sct",
              "display": "Chronic kidney disease stage 1 (disorder)"
            }
          ],
          "text": "Chronic kidney disease stage 1"
        },
        "text": {
          "status": "generated",
          "div": "<div xmlns=\"http://www.w3.org/1999/xhtml\"><table class=\"hl7__ips\"><tr><td>Chronic kidney disease stage 1</td><td><span class=\"nb\">15-Nov-2013</span></td><td>active</td></tr></table></div>"
        },
        "onsetDateTime": "2013-11-15",
        "subject": {
          "reference": "urn:uuid:",
          "display": "Victor Lagarde"
        },
        "asserter": {
          "reference": "urn:uuid:",
          "display": "Thiriot Didier (Cardiologie)"
        }
      }
    },
    {
      "fullUrl": "urn:uuid:a06b273c-50c2-40cc-9214-c8cd5719dccc",
      "resource": {
        "resourceType": "Condition",
        "id": "a06b273c-50c2-40cc-9214-c8cd5719dccc",
        "meta": {
          "profile": [
            "http://hl7.org/fhir/uv/ips/StructureDefinition/Condition-uv-ips"
          ]
        },
        "category": [
          {
            "coding": [
              {
                "code": "problem-list-item",
                "system": "http://terminology.hl7.org/CodeSystem/condition-category",
                "display": "Problem List Item"
              }
            ]
          }
        ],
        "code": {
          "coding": [
            {
              "code": "55822004",
              "system": "http://snomed.info/sct",
              "display": "Hyperlipidemia (disorder)"
            }
          ],
          "text": "Hyperlipidemia"
        },
        "text": {
          "status": "generated",
          "div": "<div xmlns=\"http://www.w3.org/1999/xhtml\"><table class=\"hl7__ips\"><tr><td>Hyperlipidemia</td><td><span class=\"nb\">12-Oct-2007</span></td><td>active</td></tr></table></div>"
        },
        "onsetDateTime": "2007-10-12",
        "subject": {
          "reference": "urn:uuid:",
          "display": "Victor Lagarde"
        },
        "asserter": {
          "reference": "urn:uuid:",
          "display": "Thiriot Didier (Cardiologie)"
        }
      }
    },
    {
      "fullUrl": "urn:uuid:b810f109-25e4-4859-b38f-a26c571a71df",
      "resource": {
        "resourceType": "Condition",
        "id": "b810f109-25e4-4859-b38f-a26c571a71df",
        "meta": {
          "profile": [
            "http://hl7.org/fhir/uv/ips/StructureDefinition/Condition-uv-ips"
          ]
        },
        "category": [
          {
            "coding": [
              {
                "code": "problem-list-item",
                "system": "http://terminology.hl7.org/CodeSystem/condition-category",
                "display": "Problem List Item"
              }
            ]
          }
        ],
        "code": {
          "coding": [
            {
              "code": "59621000",
              "system": "http://snomed.info/sct",
              "display": "Essential hypertension (disorder)"
            }
          ],
          "text": "Essential hypertension"
        },
        "text": {
          "status": "generated",
          "div": "<div xmlns=\"http://www.w3.org/1999/xhtml\"><table class=\"hl7__ips\"><tr><td>Essential hypertension</td><td><span class=\"nb\">19-Sep-2003</span></td><td>active</td></tr></table></div>"
        },
        "onsetDateTime": "2003-09-19",
        "subject": {
          "reference": "urn:uuid:",
          "display": "Victor Lagarde"
        },
        "asserter": {
          "reference": "urn:uuid:",
          "display": "Thiriot Didier (Cardiologie)"
        }
      }
    },
    {
      "fullUrl": "urn:uuid:f012b16a-7ff6-4b45-b85a-5e3640a6408d",
      "resource": {
        "resourceType": "Condition",
        "id": "f012b16a-7ff6-4b45-b85a-5e3640a6408d",
        "meta": {
          "profile": [
            "http://hl7.org/fhir/uv/ips/StructureDefinition/Condition-uv-ips"
          ]
        },
        "category": [
          {
            "coding": [
              {
                "code": "problem-list-item",
                "system": "http://terminology.hl7.org/CodeSystem/condition-category",
                "display": "Problem List Item"
              }
            ]
          }
        ],
        "code": {
          "coding": [
            {
              "code": "237602007",
              "system": "http://snomed.info/sct",
              "display": "Metabolic syndrome X (disorder)"
            }
          ],
          "text": "Metabolic syndrome X"
        },
        "text": {
          "status": "generated",
          "div": "<div xmlns=\"http://www.w3.org/1999/xhtml\"><table class=\"hl7__ips\"><tr><td>Metabolic syndrome X</td><td><span class=\"nb\">19-Sep-2003</span></td><td>active</td></tr></table></div>"
        },
        "onsetDateTime": "2003-09-19",
        "subject": {
          "reference": "urn:uuid:",
          "display": "Victor Lagarde"
        },
        "asserter": {
          "reference": "urn:uuid:",
          "display": "Thiriot Didier (Cardiologie)"
        }
      }
    },
    {
      "fullUrl": "urn:uuid:26edcd71-cad9-42f9-b888-4eeb4bd7404d",
      "resource": {
        "resourceType": "Condition",
        "id": "26edcd71-cad9-42f9-b888-4eeb4bd7404d",
        "meta": {
          "profile": [
            "http://hl7.org/fhir/uv/ips/StructureDefinition/Condition-uv-ips"
          ]
        },
        "category": [
          {
            "coding": [
              {
                "code": "problem-list-item",
                "system": "http://terminology.hl7.org/CodeSystem/condition-category",
                "display": "Problem List Item"
              }
            ]
          }
        ],
        "code": {
          "coding": [
            {
              "code": "414545008",
              "system": "http://snomed.info/sct",
              "display": "Ischemic heart disease (disorder)"
            }
          ],
          "text": "Ischemic heart disease"
        },
        "text": {
          "status": "generated",
          "div": "<div xmlns=\"http://www.w3.org/1999/xhtml\"><table class=\"hl7__ips\"><tr><td>Ischemic heart disease</td><td><span class=\"nb\">30-Jun-1989</span></td><td>active</td></tr></table></div>"
        },
        "onsetDateTime": "1989-06-30",
        "subject": {
          "reference": "urn:uuid:",
          "display": "Victor Lagarde"
        },
        "asserter": {
          "reference": "urn:uuid:",
          "display": "Thiriot Didier (Cardiologie)"
        }
      }
    },
    {
      "fullUrl": "urn:uuid:0a003107-b01e-457b-8531-e86414eb92c5",
      "resource": {
        "resourceType": "Condition",
        "id": "0a003107-b01e-457b-8531-e86414eb92c5",
        "meta": {
          "profile": [
            "http://hl7.org/fhir/uv/ips/StructureDefinition/Condition-uv-ips"
          ]
        },
        "category": [
          {
            "coding": [
              {
                "code": "problem-list-item",
                "system": "http://terminology.hl7.org/CodeSystem/condition-category",
                "display": "Problem List Item"
              }
            ]
          }
        ],
        "code": {
          "coding": [
            {
              "code": "40055000",
              "system": "http://snomed.info/sct",
              "display": "Chronic sinusitis (disorder)"
            }
          ],
          "text": "Chronic sinusitis"
        },
        "text": {
          "status": "generated",
          "div": "<div xmlns=\"http://www.w3.org/1999/xhtml\"><table class=\"hl7__ips\"><tr><td>Chronic sinusitis</td><td><span class=\"nb\">10-Jan-1969</span></td><td>active</td></tr></table></div>"
        },
        "onsetDateTime": "1969-01-10",
        "subject": {
          "reference": "urn:uuid:",
          "display": "Victor Lagarde"
        },
        "asserter": {
          "reference": "urn:uuid:",
          "display": "Thiriot Didier (Cardiologie)"
        }
      }
    },
    {
      "fullUrl": "urn:uuid:1d1debcc-aded-4ce4-b775-23d6d891602f",
      "resource": {
        "resourceType": "Condition",
        "id": "1d1debcc-aded-4ce4-b775-23d6d891602f",
        "meta": {
          "profile": [
            "http://hl7.org/fhir/uv/ips/StructureDefinition/Condition-uv-ips"
          ]
        },
        "category": [
          {
            "coding": [
              {
                "code": "problem-list-item",
                "system": "http://terminology.hl7.org/CodeSystem/condition-category",
                "display": "Problem List Item"
              }
            ]
          }
        ],
        "code": {
          "coding": [
            {
              "code": "15777000",
              "system": "http://snomed.info/sct",
              "display": "Prediabetes (disorder)"
            }
          ],
          "text": "Prediabetes"
        },
        "text": {
          "status": "generated",
          "div": "<div xmlns=\"http://www.w3.org/1999/xhtml\"><table class=\"hl7__ips\"><tr><td>Prediabetes</td><td><span class=\"nb\">30-Aug-1963</span></td><td>active</td></tr></table></div>"
        },
        "onsetDateTime": "1963-08-30",
        "subject": {
          "reference": "urn:uuid:",
          "display": "Victor Lagarde"
        },
        "asserter": {
          "reference": "urn:uuid:",
          "display": "Thiriot Didier (Cardiologie)"
        }
      }
    },
    {
      "fullUrl": "urn:uuid:a16bd0b8-8aea-4c52-a083-1e126429ad2b",
      "resource": {
        "resourceType": "Condition",
        "id": "a16bd0b8-8aea-4c52-a083-1e126429ad2b",
        "meta": {
          "profile": [
            "http://hl7.org/fhir/uv/ips/StructureDefinition/Condition-uv-ips"
          ]
        },
        "category": [
          {
            "coding": [
              {
                "code": "problem-list-item",
                "system": "http://terminology.hl7.org/CodeSystem/condition-category",
                "display": "Problem List Item"
              }
            ]
          }
        ],
        "code": {
          "coding": [
            {
              "code": "271737000",
              "system": "http://snomed.info/sct",
              "display": "Anemia (disorder)"
            }
          ],
          "text": "Anemia"
        },
        "text": {
          "status": "generated",
          "div": "<div xmlns=\"http://www.w3.org/1999/xhtml\"><table class=\"hl7__ips\"><tr><td>Anemia</td><td><span class=\"nb\">30-Aug-1963</span></td><td>active</td></tr></table></div>"
        },
        "onsetDateTime": "1963-08-30",
        "subject": {
          "reference": "urn:uuid:",
          "display": "Victor Lagarde"
        },
        "asserter": {
          "reference": "urn:uuid:",
          "display": "Thiriot Didier (Cardiologie)"
        }
      }
    },
    {
      "fullUrl": "urn:uuid:4e3cff3a-1bce-47df-8791-ed588e0a5802",
      "resource": {
        "resourceType": "Condition",
        "id": "4e3cff3a-1bce-47df-8791-ed588e0a5802",
        "meta": {
          "profile": [
            "http://hl7.org/fhir/uv/ips/StructureDefinition/Condition-uv-ips"
          ]
        },
        "category": [
          {
            "coding": [
              {
                "code": "problem-list-item",
                "system": "http://terminology.hl7.org/CodeSystem/condition-category",
                "display": "Problem List Item"
              }
            ]
          }
        ],
        "code": {
          "coding": [
            {
              "code": "444814009",
              "system": "http://snomed.info/sct",
              "display": "Viral sinusitis (disorder)"
            }
          ],
          "text": "Viral sinusitis"
        },
        "text": {
          "status": "generated",
          "div": "<div xmlns=\"http://www.w3.org/1999/xhtml\"><table class=\"hl7__ips\"><tr><td><span class=\"grayedout\">Viral sinusitis</span></td><td><span class=\"nb\">10-May-2024 - 02-Jun-2024</span></td><td><span class=\"grayedout\">inactive</span></td></tr></table></div>"
        },
        "onsetDateTime": "2024-05-10",
        "abatementDateTime": "2024-06-02",
        "subject": {
          "reference": "urn:uuid:",
          "display": "Victor Lagarde"
        },
        "asserter": {
          "reference": "urn:uuid:",
          "display": "Thiriot Didier (Cardiologie)"
        }
      }
    },
    {
      "fullUrl": "urn:uuid:334a15fa-e5b9-4c77-81aa-e3ddf1e563b1",
      "resource": {
        "resourceType": "Medication",
        "id": "334a15fa-e5b9-4c77-81aa-e3ddf1e563b1",
        "meta": {
          "profile": [
            "http://hl7.eu/fhir/eps/StructureDefinition/Medication-eu-eps"
          ]
        },
        "code": {
          "coding": [
            {
              "code": "106892",
              "system": "http://www.nlm.nih.gov/research/umls/rxnorm",
              "display": "insulin isophane  human 70 UNT/ML / insulin  regular  human 30 UNT/ML Injectable Suspension [Humulin]"
            }
          ],
          "text": "insulin isophane  human 70 UNT/ML / insulin  regular  human 30 UNT/ML Injectable Suspension [Humulin]"
        },
        "text": {
          "status": "generated",
          "div": "<div xmlns=\"http://www.w3.org/1999/xhtml\">insulin isophane human 70 UNT/ML / insulin regular human 30 UNT/ML Injectable Suspension [Humulin]</div>"
        }
      }
    },
    {
      "fullUrl": "urn:uuid:83dbf70c-d6fd-4da1-8364-31fec6f27548",
      "resource": {
        "resourceType": "MedicationStatement",
        "id": "83dbf70c-d6fd-4da1-8364-31fec6f27548",
        "meta": {
          "profile": [
            "http://hl7.eu/fhir/eps/StructureDefinition/MedicationStatement-eu-eps"
          ]
        },
        "effectivePeriod": {
          "start": "2025-03-14"
        },
        "dosage": [
          {
            "doseAndRate": [
              {
                "doseQuantity": {
                  "value": 10,
                  "unit": "U",
                  "system": "$ucum",
                  "code": "U"
                }
              }
            ],
            "timing": {
              "repeat": {
                "frequency": 2,
                "period": 1,
                "periodUnit": "d"
              }
            },
            "text": "Inject 10 units subcutaneously twice daily before breakfast and dinner",
            "asNeededBoolean": false
          }
        ],
        "reasonCode": [
          {
            "coding": [
              {
                "code": "15777000",
                "system": "http://snomed.info/sct",
                "display": "Prediabetes"
              }
            ]
          }
        ],
        "text": {
          "status": "generated",
          "div": "<div xmlns=\"http://www.w3.org/1999/xhtml\"><table class=\"hl7__ips first25\"><tr><th>Medication</th><th>Since</th><th>Form</th><th>Dosage</th><th>Reason</th></tr><tr><td>insulin isophane human 70 UNT/ML / insulin regular human 30 UNT/ML Injectable Suspension [Humulin]</td><td><span class=\"nb\">2025-03-14</span></td><td>-</td><td>Inject 10 units subcutaneously twice daily before breakfast and dinner</td><td>Prediabetes</td></tr></table></div>"
        },
        "status": "active",
        "medicationReference": {
          "reference": "urn:uuid:334a15fa-e5b9-4c77-81aa-e3ddf1e563b1",
          "display": "insulin isophane  human 70 UNT/ML / insulin  regular  human 30 UNT/ML Injectable Suspension [Humulin]"
        },
        "subject": {
          "reference": "urn:uuid:dfc420c5-17d3-4161-b686-8f7db7812755",
          "display": "Victor Lagarde"
        }
      }
    },
    {
      "fullUrl": "urn:uuid:fe1240d8-51f5-4e29-9277-fcdd8c83aa68",
      "resource": {
        "resourceType": "Medication",
        "id": "fe1240d8-51f5-4e29-9277-fcdd8c83aa68",
        "meta": {
          "profile": [
            "http://hl7.eu/fhir/eps/StructureDefinition/Medication-eu-eps"
          ]
        },
        "code": {
          "coding": [
            {
              "code": "376209006",
              "system": "http://snomed.info/sct",
              "display": "Hydrochlorothiazide 25 mg oral tablet"
            }
          ],
          "text": "Hydrochlorothiazide 25 mg oral tablet"
        },
        "text": {
          "status": "generated",
          "div": "<div xmlns=\"http://www.w3.org/1999/xhtml\">Hydrochlorothiazide 25 mg oral tablet</div>"
        }
      }
    },
    {
      "fullUrl": "urn:uuid:24cfcccc-04ec-4c02-93f0-e9bcce0632af",
      "resource": {
        "resourceType": "MedicationStatement",
        "id": "24cfcccc-04ec-4c02-93f0-e9bcce0632af",
        "meta": {
          "profile": [
            "http://hl7.eu/fhir/eps/StructureDefinition/MedicationStatement-eu-eps"
          ]
        },
        "effectivePeriod": {
          "start": "2025-03-14"
        },
        "dosage": [
          {
            "doseAndRate": [
              {
                "doseQuantity": {
                  "value": 1,
                  "unit": "{tbl} (25 mg)",
                  "system": "$ucum",
                  "code": "{tbl}"
                }
              }
            ],
            "timing": {
              "repeat": {
                "frequency": 1,
                "period": 1,
                "periodUnit": "d"
              }
            },
            "text": "1 tablet (25 mg) by mouth once daily",
            "asNeededBoolean": false
          }
        ],
        "reasonCode": [
          {
            "coding": [
              {
                "code": "59621000",
                "system": "http://snomed.info/sct",
                "display": "Essential hypertension (disorder)"
              }
            ]
          }
        ],
        "text": {
          "status": "generated",
          "div": "<div xmlns=\"http://www.w3.org/1999/xhtml\"><table class=\"hl7__ips first25\"><tr><th>Medication</th><th>Since</th><th>Form</th><th>Dosage</th><th>Reason</th></tr><tr><td>Hydrochlorothiazide 25 mg oral tablet</td><td><span class=\"nb\">2025-03-14</span></td><td>-</td><td>1 tablet (25 mg) by mouth once daily</td><td>Essential hypertension (disorder)</td></tr></table></div>"
        },
        "status": "active",
        "medicationReference": {
          "reference": "urn:uuid:fe1240d8-51f5-4e29-9277-fcdd8c83aa68",
          "display": "Hydrochlorothiazide 25 mg oral tablet"
        },
        "subject": {
          "reference": "urn:uuid:dfc420c5-17d3-4161-b686-8f7db7812755",
          "display": "Victor Lagarde"
        }
      }
    },
    {
      "fullUrl": "urn:uuid:41f322e2-7d54-452e-ae9f-6d220f2967b2",
      "resource": {
        "resourceType": "Medication",
        "id": "41f322e2-7d54-452e-ae9f-6d220f2967b2",
        "meta": {
          "profile": [
            "http://hl7.eu/fhir/eps/StructureDefinition/Medication-eu-eps"
          ]
        },
        "code": {
          "coding": [
            {
              "code": "319996000",
              "system": "http://snomed.info/sct",
              "display": "Simvastatin 10 mg oral tablet"
            }
          ],
          "text": "Simvastatin 10 mg oral tablet"
        },
        "text": {
          "status": "generated",
          "div": "<div xmlns=\"http://www.w3.org/1999/xhtml\">Simvastatin 10 mg oral tablet</div>"
        }
      }
    },
    {
      "fullUrl": "urn:uuid:4be6c4be-46b6-4e2c-adc1-d4627ed10eca",
      "resource": {
        "resourceType": "MedicationStatement",
        "id": "4be6c4be-46b6-4e2c-adc1-d4627ed10eca",
        "meta": {
          "profile": [
            "http://hl7.eu/fhir/eps/StructureDefinition/MedicationStatement-eu-eps"
          ]
        },
        "effectivePeriod": {
          "start": "2025-01-24"
        },
        "dosage": [
          {
            "doseAndRate": [
              {
                "doseQuantity": {
                  "value": 1,
                  "unit": "{tbl} (10 mg)",
                  "system": "$ucum",
                  "code": "{tbl}"
                }
              }
            ],
            "timing": {
              "repeat": {
                "frequency": 1,
                "period": 1,
                "periodUnit": "d"
              }
            },
            "text": "1 tablet (10 mg) by mouth once daily",
            "asNeededBoolean": false
          }
        ],
        "reasonCode": [
          {
            "coding": [
              {
                "code": "55822004",
                "system": "http://snomed.info/sct",
                "display": "Hyperlipidemia"
              }
            ]
          }
        ],
        "text": {
          "status": "generated",
          "div": "<div xmlns=\"http://www.w3.org/1999/xhtml\"><table class=\"hl7__ips first25\"><tr><th>Medication</th><th>Since</th><th>Form</th><th>Dosage</th><th>Reason</th></tr><tr><td>Simvastatin 10 mg oral tablet</td><td><span class=\"nb\">2025-01-24</span></td><td>-</td><td>1 tablet (10 mg) by mouth once daily</td><td>Hyperlipidemia</td></tr></table></div>"
        },
        "status": "active",
        "medicationReference": {
          "reference": "urn:uuid:41f322e2-7d54-452e-ae9f-6d220f2967b2",
          "display": "Simvastatin 10 mg oral tablet"
        },
        "subject": {
          "reference": "urn:uuid:dfc420c5-17d3-4161-b686-8f7db7812755",
          "display": "Victor Lagarde"
        }
      }
    },
    {
      "fullUrl": "urn:uuid:9f860550-4602-42da-b308-5c3c730bc1d0",
      "resource": {
        "resourceType": "Medication",
        "id": "9f860550-4602-42da-b308-5c3c730bc1d0",
        "meta": {
          "profile": [
            "http://hl7.eu/fhir/eps/StructureDefinition/Medication-eu-eps"
          ]
        },
        "code": {
          "coding": [
            {
              "code": "425176000",
              "system": "http://snomed.info/sct",
              "display": "Nitroglycerin 400 microgram/actuation sublingual spray"
            }
          ],
          "text": "Nitroglycerin 400 microgram/actuation sublingual spray"
        },
        "text": {
          "status": "generated",
          "div": "<div xmlns=\"http://www.w3.org/1999/xhtml\">Nitroglycerin 400 microgram/actuation sublingual spray</div>"
        }
      }
    },
    {
      "fullUrl": "urn:uuid:9efd185c-62ae-4dfa-a711-f1addd2d07ac",
      "resource": {
        "resourceType": "MedicationStatement",
        "id": "9efd185c-62ae-4dfa-a711-f1addd2d07ac",
        "meta": {
          "profile": [
            "http://hl7.eu/fhir/eps/StructureDefinition/MedicationStatement-eu-eps"
          ]
        },
        "effectivePeriod": {
          "start": "1989-07-07"
        },
        "dosage": [
          {
            "doseAndRate": [
              {
                "doseQuantity": {
                  "value": 400,
                  "unit": "mcg",
                  "system": "$ucum",
                  "code": "mcg"
                }
              }
            ],
            "timing": {
              "repeat": {
                "frequency": 1,
                "period": 5,
                "periodUnit": "min"
              }
            },
            "text": "400 micrograms (1 spray) sublingually as needed for chest pain, may repeat every 5 minutes as needed, up to 3 sprays in 15 minutes",
            "asNeededBoolean": true
          }
        ],
        "text": {
          "status": "generated",
          "div": "<div xmlns=\"http://www.w3.org/1999/xhtml\"><table class=\"hl7__ips first25\"><tr><th>Medication</th><th>Since</th><th>Form</th><th>Dosage</th><th>Reason</th></tr><tr><td>Nitroglycerin 400 microgram/actuation sublingual spray</td><td><span class=\"nb\">1989-07-07</span></td><td>-</td><td>400 micrograms (1 spray) sublingually as needed for chest pain, may repeat every 5 minutes as needed, up to 3 sprays in 15 minutes</td><td>-</td></tr></table></div>"
        },
        "status": "active",
        "medicationReference": {
          "reference": "urn:uuid:9f860550-4602-42da-b308-5c3c730bc1d0",
          "display": "Nitroglycerin 400 microgram/actuation sublingual spray"
        },
        "subject": {
          "reference": "urn:uuid:dfc420c5-17d3-4161-b686-8f7db7812755",
          "display": "Victor Lagarde"
        }
      }
    },
    {
      "fullUrl": "urn:uuid:99f76022-2893-435e-bca9-489522867e35",
      "resource": {
        "resourceType": "Medication",
        "id": "99f76022-2893-435e-bca9-489522867e35",
        "meta": {
          "profile": [
            "http://hl7.eu/fhir/eps/StructureDefinition/Medication-eu-eps"
          ]
        },
        "code": {
          "coding": [
            {
              "code": "879980009",
              "system": "http://snomed.info/sct",
              "display": "Metoprolol tartrate (as metoprolol succinate) 100 mg prolonged-release oral tablet"
            }
          ],
          "text": "Metoprolol tartrate (as metoprolol succinate) 100 mg prolonged-release oral tablet"
        },
        "text": {
          "status": "generated",
          "div": "<div xmlns=\"http://www.w3.org/1999/xhtml\">Metoprolol tartrate (as metoprolol succinate) 100 mg prolonged-release oral tablet</div>"
        }
      }
    },
    {
      "fullUrl": "urn:uuid:8a22ab91-ae83-48f4-b018-6a66e926293e",
      "resource": {
        "resourceType": "MedicationStatement",
        "id": "8a22ab91-ae83-48f4-b018-6a66e926293e",
        "meta": {
          "profile": [
            "http://hl7.eu/fhir/eps/StructureDefinition/MedicationStatement-eu-eps"
          ]
        },
        "effectivePeriod": {
          "start": "1989-07-07"
        },
        "dosage": [
          {
            "doseAndRate": [
              {
                "doseQuantity": {
                  "value": 1,
                  "unit": "{tbl} (100 mg)",
                  "system": "$ucum",
                  "code": "{tbl}"
                }
              }
            ],
            "timing": {
              "repeat": {
                "frequency": 1,
                "period": 1,
                "periodUnit": "d"
              }
            },
            "text": "1 tablet (100 mg) once daily",
            "asNeededBoolean": false
          }
        ],
        "text": {
          "status": "generated",
          "div": "<div xmlns=\"http://www.w3.org/1999/xhtml\"><table class=\"hl7__ips first25\"><tr><th>Medication</th><th>Since</th><th>Form</th><th>Dosage</th><th>Reason</th></tr><tr><td>Metoprolol tartrate (as metoprolol succinate) 100 mg prolonged-release oral tablet</td><td><span class=\"nb\">1989-07-07</span></td><td>-</td><td>1 tablet (100 mg) once daily</td><td>-</td></tr></table></div>"
        },
        "status": "active",
        "medicationReference": {
          "reference": "urn:uuid:99f76022-2893-435e-bca9-489522867e35",
          "display": "Metoprolol tartrate (as metoprolol succinate) 100 mg prolonged-release oral tablet"
        },
        "subject": {
          "reference": "urn:uuid:dfc420c5-17d3-4161-b686-8f7db7812755",
          "display": "Victor Lagarde"
        }
      }
    },
    {
      "fullUrl": "urn:uuid:9ecb31cc-3475-4a6d-99ea-7a75cb7b3bc2",
      "resource": {
        "resourceType": "Immunization",
        "id": "9ecb31cc-3475-4a6d-99ea-7a75cb7b3bc2",
        "meta": {
          "profile": [
            "http://hl7.org/fhir/uv/ips/StructureDefinition/Immunization-uv-ips"
          ]
        },
        "vaccineCode": {
          "coding": [
            {
              "code": "1181000221105",
              "system": "http://snomed.info/sct",
              "display": "Vaccine product containing Influenza virus antigen"
            },
            {
              "code": "J07BB02",
              "system": "http://www.whocc.no/atc",
              "display": "Influenza, inactivated, split virus"
            }
          ],
          "text": "Influenza virus antigen only vaccine product"
        },
        "site": {
          "coding": [
            {
              "code": "244979005",
              "system": "http://snomed.info/sct",
              "display": "Entire muscle of upper arm"
            }
          ],
          "text": "Entire muscle of upper arm"
        },
        "route": {
          "coding": [
            {
              "code": "78421000",
              "system": "http://snomed.info/sct",
              "display": "Intramuscular route"
            }
          ],
          "text": "Intramuscular route"
        },
        "text": {
          "status": "generated",
          "div": "<div xmlns=\"http://www.w3.org/1999/xhtml\"><table class=\"hl7__ips\"><tr><td>Influenza virus antigen only vaccine product</td><td><span class=\"nb\">17-Jan-2025</span></td></tr></table></div>"
        },
        "status": "completed",
        "patient": {
          "reference": "urn:uuid:dfc420c5-17d3-4161-b686-8f7db7812755",
          "display": "Victor Lagarde"
        },
        "occurrenceDateTime": "2025-01-17",
        "lotNumber": "BH-Y02dfr",
        "expirationDate": "2026-01-02"
      }
    },
    {
      "fullUrl": "urn:uuid:4532160a-8bc7-4a7e-b1f6-ee5f1335297c",
      "resource": {
        "resourceType": "Immunization",
        "id": "4532160a-8bc7-4a7e-b1f6-ee5f1335297c",
        "meta": {
          "profile": [
            "http://hl7.org/fhir/uv/ips/StructureDefinition/Immunization-uv-ips"
          ]
        },
        "vaccineCode": {
          "coding": [
            {
              "code": "1119349007",
              "system": "http://snomed.info/sct",
              "display": "Vaccine product containing SARS-CoV-2 mRNA"
            },
            {
              "code": "J07BX03",
              "system": "http://www.whocc.no/atc",
              "display": "COVID-19 mRNA vaccines"
            }
          ],
          "text": "SARS-CoV-2 mRNA vaccine"
        },
        "site": {
          "coding": [
            {
              "code": "244979005",
              "system": "http://snomed.info/sct",
              "display": "Entire muscle of upper arm"
            }
          ],
          "text": "Entire muscle of upper arm"
        },
        "route": {
          "coding": [
            {
              "code": "78421000",
              "system": "http://snomed.info/sct",
              "display": "Intramuscular route"
            }
          ],
          "text": "Intramuscular route"
        },
        "text": {
          "status": "generated",
          "div": "<div xmlns=\"http://www.w3.org/1999/xhtml\"><table class=\"hl7__ips\"><tr><td>SARS-CoV-2 mRNA vaccine</td><td><span class=\"nb\">12-Feb-2021</span></td></tr></table></div>"
        },
        "status": "completed",
        "patient": {
          "reference": "urn:uuid:dfc420c5-17d3-4161-b686-8f7db7812755",
          "display": "Victor Lagarde"
        },
        "occurrenceDateTime": "2021-02-12",
        "lotNumber": "FS-HCT561",
        "expirationDate": "2021-07-03"
      }
    },
    {
      "fullUrl": "urn:uuid:e02293ed-73e7-4819-bd07-dbe4d7f7b217",
      "resource": {
        "resourceType": "Immunization",
        "id": "e02293ed-73e7-4819-bd07-dbe4d7f7b217",
        "meta": {
          "profile": [
            "http://hl7.org/fhir/uv/ips/StructureDefinition/Immunization-uv-ips"
          ]
        },
        "vaccineCode": {
          "coding": [
            {
              "code": "777725002",
              "system": "http://snomed.info/sct",
              "display": "Vaccine product containing only Clostridium tetani toxoid antigen adsorbed"
            },
            {
              "code": "J07AM51",
              "system": "http://www.whocc.no/atc",
              "display": "Diphtheria-tetanus vaccines, adult type"
            }
          ],
          "text": "Clostridium tetani toxoid antigen adsorbed only vaccine product"
        },
        "site": {
          "coding": [
            {
              "code": "244979005",
              "system": "http://snomed.info/sct",
              "display": "Entire muscle of upper arm"
            }
          ],
          "text": "Entire muscle of upper arm"
        },
        "route": {
          "coding": [
            {
              "code": "78421000",
              "system": "http://snomed.info/sct",
              "display": "Intramuscular route"
            }
          ],
          "text": "Intramuscular route"
        },
        "text": {
          "status": "generated",
          "div": "<div xmlns=\"http://www.w3.org/1999/xhtml\"><table class=\"hl7__ips\"><tr><td>Clostridium tetani toxoid antigen adsorbed only vaccine product</td><td><span class=\"nb\">20-Dec-2019</span></td></tr></table></div>"
        },
        "status": "completed",
        "patient": {
          "reference": "urn:uuid:dfc420c5-17d3-4161-b686-8f7db7812755",
          "display": "Victor Lagarde"
        },
        "occurrenceDateTime": "2019-12-20",
        "lotNumber": "XW-4KrQr6e",
        "expirationDate": "2020-08-14"
      }
    },
    {
      "fullUrl": "urn:uuid:8b4b60f8-0eaa-461b-a70e-e82dd19fde1d",
      "resource": {
        "resourceType": "Procedure",
        "id": "8b4b60f8-0eaa-461b-a70e-e82dd19fde1d",
        "meta": {
          "profile": [
            "http://hl7.org/fhir/uv/ips/StructureDefinition/Procedure-uv-ips"
          ]
        },
        "code": {
          "coding": [
            {
              "code": "171207006",
              "system": "http://snomed.info/sct",
              "display": "Depression screening (procedure)"
            }
          ],
          "text": "Depression screening"
        },
        "text": {
          "status": "generated",
          "div": "<div xmlns=\"http://www.w3.org/1999/xhtml\"><table class=\"hl7__ips\"><tr><td>Depression screening</td><td><span class=\"nb\">31-May-2024</span></td><td>-</td></tr></table></div>"
        },
        "status": "completed",
        "performedDateTime": "2024-05-31",
        "subject": {
          "reference": "urn:uuid:",
          "display": "Victor Lagarde"
        }
      }
    },
    {
      "fullUrl": "urn:uuid:84bdfac8-ed3f-4da4-a994-0b421a358ee4",
      "resource": {
        "resourceType": "Procedure",
        "id": "84bdfac8-ed3f-4da4-a994-0b421a358ee4",
        "meta": {
          "profile": [
            "http://hl7.org/fhir/uv/ips/StructureDefinition/Procedure-uv-ips"
          ]
        },
        "code": {
          "coding": [
            {
              "code": "430193006",
              "system": "http://snomed.info/sct",
              "display": "Medication Reconciliation (procedure)"
            }
          ],
          "text": "Medication reconciliation"
        },
        "text": {
          "status": "generated",
          "div": "<div xmlns=\"http://www.w3.org/1999/xhtml\"><table class=\"hl7__ips\"><tr><td>Medication reconciliation</td><td><span class=\"nb\">31-May-2024</span></td><td>-</td></tr></table></div>"
        },
        "status": "completed",
        "performedDateTime": "2024-05-31",
        "subject": {
          "reference": "urn:uuid:",
          "display": "Victor Lagarde"
        }
      }
    },
    {
      "fullUrl": "urn:uuid:fe82fdb8-ab46-499d-8a93-86a7ec04cc2d",
      "resource": {
        "resourceType": "Procedure",
        "id": "fe82fdb8-ab46-499d-8a93-86a7ec04cc2d",
        "meta": {
          "profile": [
            "http://hl7.org/fhir/uv/ips/StructureDefinition/Procedure-uv-ips"
          ]
        },
        "code": {
          "coding": [
            {
              "code": "710824005",
              "system": "http://snomed.info/sct",
              "display": "Assessment of health and social care needs (procedure)"
            }
          ],
          "text": "Assessment of health and social care needs"
        },
        "text": {
          "status": "generated",
          "div": "<div xmlns=\"http://www.w3.org/1999/xhtml\"><table class=\"hl7__ips\"><tr><td>Assessment of health and social care needs</td><td><span class=\"nb\">31-May-2024</span></td><td>-</td></tr></table></div>"
        },
        "status": "completed",
        "performedDateTime": "2024-05-31",
        "subject": {
          "reference": "urn:uuid:",
          "display": "Victor Lagarde"
        }
      }
    },
    {
      "fullUrl": "urn:uuid:40697565-10af-455c-b606-22e83dcc269c",
      "resource": {
        "resourceType": "Procedure",
        "id": "40697565-10af-455c-b606-22e83dcc269c",
        "meta": {
          "profile": [
            "http://hl7.org/fhir/uv/ips/StructureDefinition/Procedure-uv-ips"
          ]
        },
        "code": {
          "coding": [
            {
              "code": "713106006",
              "system": "http://snomed.info/sct",
              "display": "Screening for drug abuse (procedure)"
            }
          ],
          "text": "Screening for drug abuse"
        },
        "text": {
          "status": "generated",
          "div": "<div xmlns=\"http://www.w3.org/1999/xhtml\"><table class=\"hl7__ips\"><tr><td>Screening for drug abuse</td><td><span class=\"nb\">31-May-2024</span></td><td>-</td></tr></table></div>"
        },
        "status": "completed",
        "performedDateTime": "2024-05-31",
        "subject": {
          "reference": "urn:uuid:",
          "display": "Victor Lagarde"
        }
      }
    },
    {
      "fullUrl": "urn:uuid:a3fc0ef6-c4b8-4a59-a17f-f3098f6eb8e9",
      "resource": {
        "resourceType": "Procedure",
        "id": "a3fc0ef6-c4b8-4a59-a17f-f3098f6eb8e9",
        "meta": {
          "profile": [
            "http://hl7.org/fhir/uv/ips/StructureDefinition/Procedure-uv-ips"
          ]
        },
        "code": {
          "coding": [
            {
              "code": "762993000",
              "system": "http://snomed.info/sct",
              "display": "Assessment using Morse Fall Scale (procedure)"
            }
          ],
          "text": "Assessment using Morse Fall Scale"
        },
        "text": {
          "status": "generated",
          "div": "<div xmlns=\"http://www.w3.org/1999/xhtml\"><table class=\"hl7__ips\"><tr><td>Assessment using Morse Fall Scale</td><td><span class=\"nb\">31-May-2024</span></td><td>-</td></tr></table></div>"
        },
        "status": "completed",
        "performedDateTime": "2024-05-31",
        "subject": {
          "reference": "urn:uuid:",
          "display": "Victor Lagarde"
        }
      }
    },
    {
      "fullUrl": "urn:uuid:49ac225c-4679-43fd-9133-e88f044164a5",
      "resource": {
        "resourceType": "Procedure",
        "id": "49ac225c-4679-43fd-9133-e88f044164a5",
        "meta": {
          "profile": [
            "http://hl7.org/fhir/uv/ips/StructureDefinition/Procedure-uv-ips"
          ]
        },
        "code": {
          "coding": [
            {
              "code": "428211000124100",
              "system": "http://snomed.info/sct",
              "display": "Assessment of substance use (procedure)"
            }
          ],
          "text": "Assessment of substance use"
        },
        "text": {
          "status": "generated",
          "div": "<div xmlns=\"http://www.w3.org/1999/xhtml\"><table class=\"hl7__ips\"><tr><td>Assessment of substance use</td><td><span class=\"nb\">31-May-2024</span></td><td>-</td></tr></table></div>"
        },
        "status": "completed",
        "performedDateTime": "2024-05-31",
        "subject": {
          "reference": "urn:uuid:",
          "display": "Victor Lagarde"
        }
      }
    },
    {
      "fullUrl": "urn:uuid:7610a4f9-9ce2-4923-aa45-94907e4d877b",
      "resource": {
        "resourceType": "Procedure",
        "id": "7610a4f9-9ce2-4923-aa45-94907e4d877b",
        "meta": {
          "profile": [
            "http://hl7.org/fhir/uv/ips/StructureDefinition/Procedure-uv-ips"
          ]
        },
        "code": {
          "coding": [
            {
              "code": "454711000124102",
              "system": "http://snomed.info/sct",
              "display": "Depression screening using Patient Health Questionnaire Two-Item score (procedure)"
            }
          ]
        },
        "text": {
          "status": "generated",
          "div": "<div xmlns=\"http://www.w3.org/1999/xhtml\"><table class=\"hl7__ips\"><tr><td>Depression screening using Patient Health Questionnaire Two-Item score (procedure)</td><td><span class=\"nb\">31-May-2024</span></td><td>-</td></tr></table></div>"
        },
        "status": "completed",
        "performedDateTime": "2024-05-31",
        "subject": {
          "reference": "urn:uuid:",
          "display": "Victor Lagarde"
        }
      }
    },
    {
      "fullUrl": "urn:uuid:b4c1a6d6-f598-485b-9f39-fa055add769f",
      "resource": {
        "resourceType": "Procedure",
        "id": "b4c1a6d6-f598-485b-9f39-fa055add769f",
        "meta": {
          "profile": [
            "http://hl7.org/fhir/uv/ips/StructureDefinition/Procedure-uv-ips"
          ]
        },
        "code": {
          "coding": [
            {
              "code": "710841007",
              "system": "http://snomed.info/sct",
              "display": "Assessment of anxiety (procedure)"
            }
          ],
          "text": "Assessment of anxiety"
        },
        "text": {
          "status": "generated",
          "div": "<div xmlns=\"http://www.w3.org/1999/xhtml\"><table class=\"hl7__ips\"><tr><td>Assessment of anxiety</td><td><span class=\"nb\">17-May-2024</span></td><td>-</td></tr></table></div>"
        },
        "status": "completed",
        "performedDateTime": "2024-05-17",
        "subject": {
          "reference": "urn:uuid:",
          "display": "Victor Lagarde"
        }
      }
    },
    {
      "fullUrl": "urn:uuid:195089e7-d2d2-4435-9fb3-e2bc6800c818",
      "resource": {
        "resourceType": "Procedure",
        "id": "195089e7-d2d2-4435-9fb3-e2bc6800c818",
        "meta": {
          "profile": [
            "http://hl7.org/fhir/uv/ips/StructureDefinition/Procedure-uv-ips"
          ]
        },
        "code": {
          "coding": [
            {
              "code": "866148006",
              "system": "http://snomed.info/sct",
              "display": "Screening for domestic abuse (procedure)"
            }
          ],
          "text": "Screening for domestic abuse"
        },
        "text": {
          "status": "generated",
          "div": "<div xmlns=\"http://www.w3.org/1999/xhtml\"><table class=\"hl7__ips\"><tr><td>Screening for domestic abuse</td><td><span class=\"nb\">17-May-2024</span></td><td>-</td></tr></table></div>"
        },
        "status": "completed",
        "performedDateTime": "2024-05-17",
        "subject": {
          "reference": "urn:uuid:",
          "display": "Victor Lagarde"
        }
      }
    },
    {
      "fullUrl": "urn:uuid:04158518-9290-4c89-bd9a-2b8389ff499e",
      "resource": {
        "resourceType": "Procedure",
        "id": "04158518-9290-4c89-bd9a-2b8389ff499e",
        "meta": {
          "profile": [
            "http://hl7.org/fhir/uv/ips/StructureDefinition/Procedure-uv-ips"
          ]
        },
        "code": {
          "coding": [
            {
              "code": "763302001",
              "system": "http://snomed.info/sct",
              "display": "Assessment using Alcohol Use Disorders Identification Test - Consumption (procedure)"
            }
          ],
          "text": "Assessment using AUDIT-C (Alcohol Use Disorders Identification Test - Consumption)"
        },
        "text": {
          "status": "generated",
          "div": "<div xmlns=\"http://www.w3.org/1999/xhtml\"><table class=\"hl7__ips\"><tr><td>Assessment using AUDIT-C (Alcohol Use Disorders Identification Test - Consumption)</td><td><span class=\"nb\">05-Apr-2024</span></td><td>-</td></tr></table></div>"
        },
        "status": "completed",
        "performedDateTime": "2024-04-05",
        "subject": {
          "reference": "urn:uuid:",
          "display": "Victor Lagarde"
        }
      }
    },
    {
      "fullUrl": "urn:uuid:c5cf4251-8119-4441-aca7-f81354499218",
      "resource": {
        "resourceType": "AllergyIntolerance",
        "id": "c5cf4251-8119-4441-aca7-f81354499218",
        "meta": {
          "profile": [
            "http://hl7.eu/fhir/eps/StructureDefinition/allergyIntolerance-eu-eps"
          ]
        },
        "code": {
          "text": ""
        },
        "clinicalStatus": {
          "coding": [
            {
              "code": "active",
              "system": "http://terminology.hl7.org/CodeSystem/allergyintolerance-clinical"
            }
          ]
        },
        "text": {
          "status": "generated",
          "div": "<div xmlns=\"http://www.w3.org/1999/xhtml\"><table class=\"hl7__ips\"><tr><th>Allergy/Intolerance</th><th>Onset Date</th><th>Status</th><th>Type</th><th>Reaction</th></tr><tr><td></td><td>?</td><td>active</td><td>?</td><td></td></tr></table></div>"
        },
        "verificationStatus": {
          "coding": [
            {
              "code": "confirmed",
              "system": "http://terminology.hl7.org/CodeSystem/allergyintolerance-verification"
            }
          ]
        },
        "patient": {
          "reference": "urn:uuid:dfc420c5-17d3-4161-b686-8f7db7812755",
          "display": "Victor Lagarde"
        },
        "_onsetDateTime": {
          "extension": [
            {
              "url": "http://hl7.org/fhir/StructureDefinition/data-absent-reason",
              "valueCode": "unknown"
            }
          ]
        }
      }
    },
    {
      "fullUrl": "urn:uuid:91600b16-2a51-485b-a945-a8f17c782101",
      "resource": {
        "resourceType": "CarePlan",
        "id": "91600b16-2a51-485b-a945-a8f17c782101",
        "category": [
          {
            "coding": [
              {
                "code": "assess-plan",
                "system": "http://terminology.hl7.org/CodeSystem/care-plan-category",
                "display": "Assessment and Plan"
              }
            ]
          }
        ],
        "activity": [
          {
            "detail": {
              "code": {
                "coding": [
                  {
                    "code": "736690008",
                    "system": "http://snomed.info/sct",
                    "display": "Dialysis care plan (record artifact)"
                  }
                ]
              },
              "status": "unknown",
              "description": "Dialysis care plan",
              "kind": "Appointment"
            }
          }
        ],
        "period": {
          "start": "2025-07-07"
        },
        "text": {
          "status": "generated",
          "div": "<div xmlns=\"http://www.w3.org/1999/xhtml\"><table class=\"hl7__ips first25\"><tr><th>Active Planned Care / Goals</th><th>Start Date</th><th>Reason</th></tr><tr><td>Dialysis care plan</td><td><span class=\"nb\">07-Jul-2025</span></td><td>-</td></tr></table></div>"
        },
        "status": "active",
        "intent": "plan",
        "subject": {
          "reference": "urn:uuid:dfc420c5-17d3-4161-b686-8f7db7812755",
          "display": "Victor Lagarde"
        }
      }
    },
    {
      "fullUrl": "urn:uuid:7b381848-cdaa-42b5-877a-b53c4c9ac0ed",
      "resource": {
        "resourceType": "CarePlan",
        "id": "7b381848-cdaa-42b5-877a-b53c4c9ac0ed",
        "category": [
          {
            "coding": [
              {
                "code": "assess-plan",
                "system": "http://terminology.hl7.org/CodeSystem/care-plan-category",
                "display": "Assessment and Plan"
              }
            ]
          }
        ],
        "activity": [
          {
            "detail": {
              "code": {
                "coding": [
                  {
                    "code": "736285004",
                    "system": "http://snomed.info/sct",
                    "display": "Hyperlipidemia clinical management plan (record artifact)"
                  }
                ]
              },
              "reasonCode": [
                {
                  "coding": [
                    {
                      "code": "55822004",
                      "system": "http://snomed.info/sct",
                      "display": "Hyperlipidemia"
                    }
                  ]
                }
              ],
              "status": "unknown",
              "description": "Hyperlipidemia clinical management plan",
              "kind": "Appointment"
            }
          }
        ],
        "period": {
          "start": "2007-11-02"
        },
        "goal": [
          {
            "reference": "urn:uuid:b50a5049-3eae-46e2-86de-bb5d00bd4973"
          },
          {
            "reference": "urn:uuid:e691f7a0-58a7-43aa-886c-9054ec50166d"
          },
          {
            "reference": "urn:uuid:4dc53bd8-c59e-49e7-9f35-deecdfdc79b8"
          },
          {
            "reference": "urn:uuid:0b769a61-b374-40cf-87c3-d68cf528fdf6"
          }
        ],
        "text": {
          "status": "generated",
          "div": "<div xmlns=\"http://www.w3.org/1999/xhtml\"><table class=\"hl7__ips first25\"><tr><th>Active Planned Care / Goals</th><th>Start Date</th><th>Reason</th></tr><tr><td>Hyperlipidemia clinical management plan</td><td><span class=\"nb\">02-Nov-2007</span></td><td>Hyperlipidemia</td></tr><tr><td><ul><li>Reduce LDL cholesterol to target level to lower cardiovascular risk.</li><li>Achieve total cholesterol within recommended range.</li><li>Maintain fasting triglycerides below recommended threshold.</li><li>Maintain HDL cholesterol above minimum recommended level.</li></ul></td><td></td><td></td></tr></table></div>"
        },
        "status": "active",
        "intent": "plan",
        "subject": {
          "reference": "urn:uuid:dfc420c5-17d3-4161-b686-8f7db7812755",
          "display": "Victor Lagarde"
        }
      }
    },
    {
      "fullUrl": "urn:uuid:3e427b59-7afc-42bd-9d43-929f707fe4bd",
      "resource": {
        "resourceType": "CarePlan",
        "id": "3e427b59-7afc-42bd-9d43-929f707fe4bd",
        "category": [
          {
            "coding": [
              {
                "code": "assess-plan",
                "system": "http://terminology.hl7.org/CodeSystem/care-plan-category",
                "display": "Assessment and Plan"
              }
            ]
          }
        ],
        "activity": [
          {
            "detail": {
              "code": {
                "coding": [
                  {
                    "code": "443402002",
                    "system": "http://snomed.info/sct",
                    "display": "Lifestyle education regarding hypertension (procedure)"
                  }
                ]
              },
              "reasonCode": [
                {
                  "coding": [
                    {
                      "code": "59621000",
                      "system": "http://snomed.info/sct",
                      "display": "Essential hypertension (disorder)"
                    }
                  ]
                }
              ],
              "status": "unknown",
              "description": "Lifestyle education regarding hypertension",
              "kind": "Appointment"
            }
          }
        ],
        "period": {
          "start": "2003-09-19"
        },
        "goal": [
          {
            "reference": "urn:uuid:72a6d836-3ce8-4a9e-ad6f-7893bedb807a"
          },
          {
            "reference": "urn:uuid:5c7d3b94-4657-4e5f-9b6d-d122e3b45950"
          },
          {
            "reference": "urn:uuid:2eb942d4-a73c-457d-b13d-04ea569cbbd1"
          },
          {
            "reference": "urn:uuid:5d319274-3d19-4e76-ba1c-555d09bdaf2f"
          }
        ],
        "text": {
          "status": "generated",
          "div": "<div xmlns=\"http://www.w3.org/1999/xhtml\"><table class=\"hl7__ips first25\"><tr><th>Active Planned Care / Goals</th><th>Start Date</th><th>Reason</th></tr><tr><td>Lifestyle education regarding hypertension</td><td><span class=\"nb\">19-Sep-2003</span></td><td>Essential hypertension (disorder)</td></tr><tr><td><ul><li>Maintain blood pressure below 130/80 mmHg through lifestyle modifications.</li><li>Reduce daily sodium intake to less than 2.3 grams per day.</li><li>Achieve a 5% reduction in body weight to support blood pressure control.</li><li>Engage in at least 150 minutes of moderate-intensity physical activity per week.</li></ul></td><td></td><td></td></tr></table></div>"
        },
        "status": "active",
        "intent": "plan",
        "subject": {
          "reference": "urn:uuid:dfc420c5-17d3-4161-b686-8f7db7812755",
          "display": "Victor Lagarde"
        }
      }
    },
    {
      "fullUrl": "urn:uuid:e1b0b77e-b353-47af-80cf-40f53f5ebf47",
      "resource": {
        "resourceType": "CarePlan",
        "id": "e1b0b77e-b353-47af-80cf-40f53f5ebf47",
        "category": [
          {
            "coding": [
              {
                "code": "assess-plan",
                "system": "http://terminology.hl7.org/CodeSystem/care-plan-category",
                "display": "Assessment and Plan"
              }
            ]
          }
        ],
        "activity": [
          {
            "detail": {
              "code": {
                "coding": [
                  {
                    "code": "698360004",
                    "system": "http://snomed.info/sct",
                    "display": "Diabetes self management plan (qualifier value)"
                  }
                ]
              },
              "reasonCode": [
                {
                  "coding": [
                    {
                      "code": "15777000",
                      "system": "http://snomed.info/sct",
                      "display": "Prediabetes"
                    }
                  ]
                }
              ],
              "status": "unknown",
              "description": "Diabetes self management plan",
              "kind": "Appointment"
            }
          }
        ],
        "period": {
          "start": "1963-08-30"
        },
        "goal": [
          {
            "reference": "urn:uuid:234503b9-7a5e-4b60-b15b-c1d27538cece"
          }
        ],
        "text": {
          "status": "generated",
          "div": "<div xmlns=\"http://www.w3.org/1999/xhtml\"><table class=\"hl7__ips first25\"><tr><th>Active Planned Care / Goals</th><th>Start Date</th><th>Reason</th></tr><tr><td>Diabetes self management plan</td><td><span class=\"nb\">30-Aug-1963</span></td><td>Prediabetes</td></tr><tr><td><ul><li>Patient will implement and maintain a diabetes self-management plan to delay or prevent progression of prediabetes.</li></ul></td><td></td><td></td></tr></table></div>"
        },
        "status": "active",
        "intent": "plan",
        "subject": {
          "reference": "urn:uuid:dfc420c5-17d3-4161-b686-8f7db7812755",
          "display": "Victor Lagarde"
        }
      }
    },
    {
      "fullUrl": "urn:uuid:b592ad5c-31c9-4b8e-a153-f4c6a54ed0db",
      "resource": {
        "resourceType": "ImmunizationRecommendation",
        "id": "b592ad5c-31c9-4b8e-a153-f4c6a54ed0db",
        "recommendation": [
          {
            "vaccineCode": [
              {
                "coding": [
                  {
                    "code": "1181000221105",
                    "system": "http://snomed.info/sct",
                    "display": "Vaccine product containing only Influenza virus antigen (medicinal product)"
                  }
                ]
              }
            ],
            "dateCriterion": [
              {
                "code": {
                  "coding": [
                    {
                      "code": "30980-7",
                      "system": "http://loinc.org",
                      "display": "Date vaccine due"
                    }
                  ]
                },
                "value": "2025-10-01"
              }
            ],
            "targetDisease": {
              "coding": [
                {
                  "code": "6142004",
                  "system": "http://snomed.info/sct",
                  "display": "Influenza (disorder)"
                }
              ]
            },
            "series": "Annual seasonal influenza vaccination",
            "forecastStatus": {
              "coding": [
                {
                  "code": "due",
                  "system": "http://terminology.hl7.org/CodeSystem/immunization-recommendation-status",
                  "display": "Due"
                }
              ]
            }
          }
        ],
        "text": {
          "status": "generated",
          "div": "<div xmlns=\"http://www.w3.org/1999/xhtml\"><table class=\"hl7__ips\"><tr><td>Vaccine product containing only Influenza virus antigen (medicinal product)</td><td><span class=\"nb\">01-Oct-2025</span></td><td>Annual seasonal influenza vaccination</td></tr></table></div>"
        },
        "date": "2025-10-22",
        "patient": {
          "reference": "urn:uuid:dfc420c5-17d3-4161-b686-8f7db7812755",
          "display": "Victor Lagarde"
        }
      }
    },
    {
      "fullUrl": "urn:uuid:3d16fce9-b5c4-494a-8dd4-e38cadd2a8a3",
      "resource": {
        "resourceType": "Observation",
        "id": "3d16fce9-b5c4-494a-8dd4-e38cadd2a8a3",
        "meta": {
          "profile": [
            "http://hl7.org/fhir/StructureDefinition/vitalsigns"
          ]
        },
        "category": [
          {
            "coding": [
              {
                "system": "http://terminology.hl7.org/CodeSystem/observation-category",
                "code": "vital-signs",
                "display": "Vital Signs"
              }
            ]
          }
        ],
        "valueQuantity": {
          "value": 3.6,
          "code": "kg",
          "unit": "kg"
        },
        "text": {
          "status": "generated",
          "div": "<div xmlns=\"http://www.w3.org/1999/xhtml\"><table class=\"hl7__ips\"><tr><th>Vital Sign</th><th>Date</th><th>Measurement</th></tr><tr><td>Weight difference [Mass difference] --pre dialysis - post dialysis</td><td>16-Jul-2025</td><td>3.6 kg</td></tr></table></div>"
        },
        "status": "final",
        "code": {
          "coding": [
            {
              "code": "$74006-8",
              "system": "http://loinc.org",
              "display": "Weight difference [Mass difference] --pre dialysis - post dialysis"
            }
          ]
        },
        "subject": {
          "reference": "urn:uuid:dfc420c5-17d3-4161-b686-8f7db7812755",
          "display": "Victor Lagarde"
        },
        "effectiveDateTime": "2025-07-16"
      }
    },
    {
      "fullUrl": "urn:uuid:88e9bb7e-9b66-4b18-a63c-06e3bf1d6ff4",
      "resource": {
        "resourceType": "Observation",
        "id": "88e9bb7e-9b66-4b18-a63c-06e3bf1d6ff4",
        "meta": {
          "profile": [
            "http://hl7.org/fhir/StructureDefinition/vitalsigns"
          ]
        },
        "category": [
          {
            "coding": [
              {
                "system": "http://terminology.hl7.org/CodeSystem/observation-category",
                "code": "vital-signs",
                "display": "Vital Signs"
              }
            ]
          }
        ],
        "valueQuantity": {
          "value": 5,
          "code": "{score}",
          "unit": "{score}"
        },
        "text": {
          "status": "generated",
          "div": "<div xmlns=\"http://www.w3.org/1999/xhtml\"><table class=\"hl7__ips\"><tr><th>Vital Sign</th><th>Date</th><th>Measurement</th></tr><tr><td>Pain severity - 0-10 verbal numeric rating [Score] - Reported</td><td>16-Jul-2025</td><td>5 {score}</td></tr></table></div>"
        },
        "status": "final",
        "code": {
          "coding": [
            {
              "code": "$72514-3",
              "system": "http://loinc.org",
              "display": "Pain severity - 0-10 verbal numeric rating [Score] - Reported"
            }
          ]
        },
        "subject": {
          "reference": "urn:uuid:dfc420c5-17d3-4161-b686-8f7db7812755",
          "display": "Victor Lagarde"
        },
        "effectiveDateTime": "2025-07-16"
      }
    },
    {
      "fullUrl": "urn:uuid:57b66921-c112-4ac7-bce6-43c42323174c",
      "resource": {
        "resourceType": "Observation",
        "id": "57b66921-c112-4ac7-bce6-43c42323174c",
        "meta": {
          "profile": [
            "http://hl7.org/fhir/StructureDefinition/vitalsigns"
          ]
        },
        "category": [
          {
            "coding": [
              {
                "system": "http://terminology.hl7.org/CodeSystem/observation-category",
                "code": "vital-signs",
                "display": "Vital Signs"
              }
            ]
          }
        ],
        "valueQuantity": {
          "value": 2.9,
          "code": "kg",
          "unit": "kg"
        },
        "text": {
          "status": "generated",
          "div": "<div xmlns=\"http://www.w3.org/1999/xhtml\"><table class=\"hl7__ips\"><tr><th>Vital Sign</th><th>Date</th><th>Measurement</th></tr><tr><td>Weight difference [Mass difference] --pre dialysis - post dialysis</td><td>13-Jul-2025</td><td>2.9 kg</td></tr></table></div>"
        },
        "status": "final",
        "code": {
          "coding": [
            {
              "code": "$74006-8",
              "system": "http://loinc.org",
              "display": "Weight difference [Mass difference] --pre dialysis - post dialysis"
            }
          ]
        },
        "subject": {
          "reference": "urn:uuid:dfc420c5-17d3-4161-b686-8f7db7812755",
          "display": "Victor Lagarde"
        },
        "effectiveDateTime": "2025-07-13"
      }
    },
    {
      "fullUrl": "urn:uuid:ae4abb1b-f312-4f3d-b3f7-58c1fab4346e",
      "resource": {
        "resourceType": "Observation",
        "id": "ae4abb1b-f312-4f3d-b3f7-58c1fab4346e",
        "meta": {
          "profile": [
            "http://hl7.org/fhir/StructureDefinition/vitalsigns"
          ]
        },
        "category": [
          {
            "coding": [
              {
                "system": "http://terminology.hl7.org/CodeSystem/observation-category",
                "code": "vital-signs",
                "display": "Vital Signs"
              }
            ]
          }
        ],
        "valueQuantity": {
          "value": 4,
          "code": "{score}",
          "unit": "{score}"
        },
        "text": {
          "status": "generated",
          "div": "<div xmlns=\"http://www.w3.org/1999/xhtml\"><table class=\"hl7__ips\"><tr><th>Vital Sign</th><th>Date</th><th>Measurement</th></tr><tr><td>Pain severity - 0-10 verbal numeric rating [Score] - Reported</td><td>13-Jul-2025</td><td>4 {score}</td></tr></table></div>"
        },
        "status": "final",
        "code": {
          "coding": [
            {
              "code": "$72514-3",
              "system": "http://loinc.org",
              "display": "Pain severity - 0-10 verbal numeric rating [Score] - Reported"
            }
          ]
        },
        "subject": {
          "reference": "urn:uuid:dfc420c5-17d3-4161-b686-8f7db7812755",
          "display": "Victor Lagarde"
        },
        "effectiveDateTime": "2025-07-13"
      }
    },
    {
      "fullUrl": "urn:uuid:f174fb3c-a724-4721-bbd0-71fb1eabe4ef",
      "resource": {
        "resourceType": "Observation",
        "id": "f174fb3c-a724-4721-bbd0-71fb1eabe4ef",
        "meta": {
          "profile": [
            "http://hl7.eu/fhir/laboratory/StructureDefinition/Observation-resultslab-eu-lab"
          ]
        },
        "performer": [
          {
            "display": "The Central European Lab"
          }
        ],
        "category": [
          {
            "coding": [
              {
                "system": "http://terminology.hl7.org/CodeSystem/observation-category",
                "code": "laboratory"
              }
            ]
          }
        ],
        "code": {
          "coding": [
            {
              "code": "2339-0",
              "system": "http://loinc.org",
              "display": "Glucose [Mass/volume] in Blood"
            }
          ],
          "text": "Glucose [Mass/volume] in Blood"
        },
        "valueQuantity": {
          "system": "http://unitsofmeasure.org",
          "value": 79.6,
          "unit": "mg/dL",
          "code": "mg/dL"
        },
        "referenceRange": [
          {
            "low": {
              "value": 70,
              "code": "mg/dL",
              "system": "http://unitsofmeasure.org"
            }
          },
          {
            "high": {
              "value": 140,
              "code": "mg/dL",
              "system": "http://unitsofmeasure.org"
            }
          }
        ],
        "text": {
          "status": "generated",
          "div": "<div xmlns=\"http://www.w3.org/1999/xhtml\"><table class=\"hl7__eu__lab__report\"><tr><th>Test</th><th>07-Jul-2025</th><th>Reference&#xA0;Range</th><th>Unit</th></tr><tr><td>Glucose [Mass/volume] in Blood</td><td>79.6</td><td>70 - 140</td><td></td><td>mg/dL</td></tr></table></div>"
        },
        "status": "final",
        "subject": {
          "reference": "urn:uuid:dfc420c5-17d3-4161-b686-8f7db7812755",
          "display": "Victor Lagarde"
        },
        "effectiveDateTime": "2025-07-07T07:04:18Z"
      }
    },
    {
      "fullUrl": "urn:uuid:ae53ecd3-eb1c-45e8-9e39-c002dc95cffc",
      "resource": {
        "resourceType": "Observation",
        "id": "ae53ecd3-eb1c-45e8-9e39-c002dc95cffc",
        "meta": {
          "profile": [
            "http://hl7.eu/fhir/laboratory/StructureDefinition/Observation-resultslab-eu-lab"
          ]
        },
        "performer": [
          {
            "display": "The Central European Lab"
          }
        ],
        "category": [
          {
            "coding": [
              {
                "system": "http://terminology.hl7.org/CodeSystem/observation-category",
                "code": "laboratory"
              }
            ]
          }
        ],
        "code": {
          "coding": [
            {
              "code": "6299-2",
              "system": "http://loinc.org",
              "display": "Urea nitrogen [Mass/volume] in Blood"
            }
          ],
          "text": "Urea nitrogen [Mass/volume] in Blood"
        },
        "valueQuantity": {
          "system": "http://unitsofmeasure.org",
          "value": 11.8,
          "unit": "mg/dL",
          "code": "mg/dL"
        },
        "referenceRange": [
          {
            "low": {
              "value": 7,
              "code": "mg/dL",
              "system": "http://unitsofmeasure.org"
            }
          },
          {
            "high": {
              "value": 20,
              "code": "mg/dL",
              "system": "http://unitsofmeasure.org"
            }
          }
        ],
        "text": {
          "status": "generated",
          "div": "<div xmlns=\"http://www.w3.org/1999/xhtml\"><table class=\"hl7__eu__lab__report\"><tr><th>Test</th><th>07-Jul-2025</th><th>Reference&#xA0;Range</th><th>Unit</th></tr><tr><td>Urea nitrogen [Mass/volume] in Blood</td><td>11.8</td><td>7 - 20</td><td></td><td>mg/dL</td></tr></table></div>"
        },
        "status": "final",
        "subject": {
          "reference": "urn:uuid:dfc420c5-17d3-4161-b686-8f7db7812755",
          "display": "Victor Lagarde"
        },
        "effectiveDateTime": "2025-07-07T07:04:18Z"
      }
    },
    {
      "fullUrl": "urn:uuid:bb62d70a-ee7a-4d39-bf0f-960408cbb084",
      "resource": {
        "resourceType": "Observation",
        "id": "bb62d70a-ee7a-4d39-bf0f-960408cbb084",
        "meta": {
          "profile": [
            "http://hl7.eu/fhir/laboratory/StructureDefinition/Observation-resultslab-eu-lab"
          ]
        },
        "performer": [
          {
            "display": "The Central European Lab"
          }
        ],
        "category": [
          {
            "coding": [
              {
                "system": "http://terminology.hl7.org/CodeSystem/observation-category",
                "code": "laboratory"
              }
            ]
          }
        ],
        "code": {
          "coding": [
            {
              "code": "38483-4",
              "system": "http://loinc.org",
              "display": "Creatinine [Mass/volume] in Blood"
            }
          ],
          "text": "Creatinine [Mass/volume] in Blood"
        },
        "valueQuantity": {
          "system": "http://unitsofmeasure.org",
          "value": 3.1,
          "unit": "mg/dL",
          "code": "mg/dL"
        },
        "referenceRange": [
          {
            "low": {
              "value": 0.9,
              "code": "mg/dL",
              "system": "http://unitsofmeasure.org"
            }
          },
          {
            "high": {
              "value": 1.3,
              "code": "mg/dL",
              "system": "http://unitsofmeasure.org"
            }
          }
        ],
        "interpretation": [
          {
            "coding": [
              {
                "code": "H",
                "system": "http://terminology.hl7.org/CodeSystem/v3-ObservationInterpretation",
                "display": "High"
              }
            ]
          }
        ],
        "text": {
          "status": "generated",
          "div": "<div xmlns=\"http://www.w3.org/1999/xhtml\"><table class=\"hl7__eu__lab__report\"><tr><th>Test</th><th>07-Jul-2025</th><th>Reference&#xA0;Range</th><th>Unit</th></tr><tr><td>Creatinine [Mass/volume] in Blood</td><td>3.1</td><td>0.9 - 1.3</td><td>H</td><td>mg/dL</td></tr></table></div>"
        },
        "status": "final",
        "subject": {
          "reference": "urn:uuid:dfc420c5-17d3-4161-b686-8f7db7812755",
          "display": "Victor Lagarde"
        },
        "effectiveDateTime": "2025-07-07T07:04:18Z"
      }
    },
    {
      "fullUrl": "urn:uuid:c3e421c6-c378-4ce9-81e6-35f6145bcdca",
      "resource": {
        "resourceType": "Observation",
        "id": "c3e421c6-c378-4ce9-81e6-35f6145bcdca",
        "meta": {
          "profile": [
            "http://hl7.eu/fhir/laboratory/StructureDefinition/Observation-resultslab-eu-lab"
          ]
        },
        "performer": [
          {
            "display": "The Central European Lab"
          }
        ],
        "category": [
          {
            "coding": [
              {
                "system": "http://terminology.hl7.org/CodeSystem/observation-category",
                "code": "laboratory"
              }
            ]
          }
        ],
        "code": {
          "coding": [
            {
              "code": "49765-1",
              "system": "http://loinc.org",
              "display": "Calcium [Mass/volume] in Blood"
            }
          ],
          "text": "Calcium [Mass/volume] in Blood"
        },
        "valueQuantity": {
          "system": "http://unitsofmeasure.org",
          "value": 9.2,
          "unit": "mg/dL",
          "code": "mg/dL"
        },
        "referenceRange": [
          {
            "low": {
              "value": 8.5,
              "code": "mg/dL",
              "system": "http://unitsofmeasure.org"
            }
          },
          {
            "high": {
              "value": 10.5,
              "code": "mg/dL",
              "system": "http://unitsofmeasure.org"
            }
          }
        ],
        "text": {
          "status": "generated",
          "div": "<div xmlns=\"http://www.w3.org/1999/xhtml\"><table class=\"hl7__eu__lab__report\"><tr><th>Test</th><th>07-Jul-2025</th><th>Reference&#xA0;Range</th><th>Unit</th></tr><tr><td>Calcium [Mass/volume] in Blood</td><td>9.2</td><td>8.5 - 10.5</td><td></td><td>mg/dL</td></tr></table></div>"
        },
        "status": "final",
        "subject": {
          "reference": "urn:uuid:dfc420c5-17d3-4161-b686-8f7db7812755",
          "display": "Victor Lagarde"
        },
        "effectiveDateTime": "2025-07-07T07:04:18Z"
      }
    },
    {
      "fullUrl": "urn:uuid:5dd90ee7-7233-4f55-aef3-609fb0ccde7b",
      "resource": {
        "resourceType": "Observation",
        "id": "5dd90ee7-7233-4f55-aef3-609fb0ccde7b",
        "meta": {
          "profile": [
            "http://hl7.eu/fhir/laboratory/StructureDefinition/Observation-resultslab-eu-lab"
          ]
        },
        "performer": [
          {
            "display": "The Central European Lab"
          }
        ],
        "category": [
          {
            "coding": [
              {
                "system": "http://terminology.hl7.org/CodeSystem/observation-category",
                "code": "laboratory"
              }
            ]
          }
        ],
        "code": {
          "coding": [
            {
              "code": "2947-0",
              "system": "http://loinc.org",
              "display": "Sodium [Moles/volume] in Blood"
            }
          ],
          "text": "Sodium [Moles/volume] in Blood"
        },
        "valueQuantity": {
          "system": "http://unitsofmeasure.org",
          "value": 137.8,
          "unit": "mmol/L",
          "code": "mmol/L"
        },
        "referenceRange": [
          {
            "low": {
              "value": 135,
              "code": "mmol/L",
              "system": "http://unitsofmeasure.org"
            }
          },
          {
            "high": {
              "value": 145,
              "code": "mmol/L",
              "system": "http://unitsofmeasure.org"
            }
          }
        ],
        "text": {
          "status": "generated",
          "div": "<div xmlns=\"http://www.w3.org/1999/xhtml\"><table class=\"hl7__eu__lab__report\"><tr><th>Test</th><th>07-Jul-2025</th><th>Reference&#xA0;Range</th><th>Unit</th></tr><tr><td>Sodium [Moles/volume] in Blood</td><td>137.8</td><td>135 - 145</td><td></td><td>mmol/L</td></tr></table></div>"
        },
        "status": "final",
        "subject": {
          "reference": "urn:uuid:dfc420c5-17d3-4161-b686-8f7db7812755",
          "display": "Victor Lagarde"
        },
        "effectiveDateTime": "2025-07-07T07:04:18Z"
      }
    },
    {
      "fullUrl": "urn:uuid:18f8e8fd-969c-4068-aa93-2f954d51ff38",
      "resource": {
        "resourceType": "Observation",
        "id": "18f8e8fd-969c-4068-aa93-2f954d51ff38",
        "meta": {
          "profile": [
            "http://hl7.eu/fhir/laboratory/StructureDefinition/Observation-resultslab-eu-lab"
          ]
        },
        "performer": [
          {
            "display": "The Central European Lab"
          }
        ],
        "category": [
          {
            "coding": [
              {
                "system": "http://terminology.hl7.org/CodeSystem/observation-category",
                "code": "laboratory"
              }
            ]
          }
        ],
        "code": {
          "coding": [
            {
              "code": "6298-4",
              "system": "http://loinc.org",
              "display": "Potassium [Moles/volume] in Blood"
            }
          ],
          "text": "Potassium [Moles/volume] in Blood"
        },
        "valueQuantity": {
          "system": "http://unitsofmeasure.org",
          "value": 4.8,
          "unit": "mmol/L",
          "code": "mmol/L"
        },
        "referenceRange": [
          {
            "low": {
              "value": 3.5,
              "code": "mmol/L",
              "system": "http://unitsofmeasure.org"
            }
          },
          {
            "high": {
              "value": 5.1,
              "code": "mmol/L",
              "system": "http://unitsofmeasure.org"
            }
          }
        ],
        "text": {
          "status": "generated",
          "div": "<div xmlns=\"http://www.w3.org/1999/xhtml\"><table class=\"hl7__eu__lab__report\"><tr><th>Test</th><th>07-Jul-2025</th><th>Reference&#xA0;Range</th><th>Unit</th></tr><tr><td>Potassium [Moles/volume] in Blood</td><td>4.8</td><td>3.5 - 5.1</td><td></td><td>mmol/L</td></tr></table></div>"
        },
        "status": "final",
        "subject": {
          "reference": "urn:uuid:dfc420c5-17d3-4161-b686-8f7db7812755",
          "display": "Victor Lagarde"
        },
        "effectiveDateTime": "2025-07-07T07:04:18Z"
      }
    },
    {
      "fullUrl": "urn:uuid:593fac22-eb33-4bcd-a056-c346d6df6c9c",
      "resource": {
        "resourceType": "Observation",
        "id": "593fac22-eb33-4bcd-a056-c346d6df6c9c",
        "meta": {
          "profile": [
            "http://hl7.eu/fhir/laboratory/StructureDefinition/Observation-resultslab-eu-lab"
          ]
        },
        "performer": [
          {
            "display": "The Central European Lab"
          }
        ],
        "category": [
          {
            "coding": [
              {
                "system": "http://terminology.hl7.org/CodeSystem/observation-category",
                "code": "laboratory"
              }
            ]
          }
        ],
        "code": {
          "coding": [
            {
              "code": "2069-3",
              "system": "http://loinc.org",
              "display": "Chloride [Moles/volume] in Blood"
            }
          ],
          "text": "Chloride [Moles/volume] in Blood"
        },
        "valueQuantity": {
          "system": "http://unitsofmeasure.org",
          "value": 108.5,
          "unit": "mmol/L",
          "code": "mmol/L"
        },
        "referenceRange": [
          {
            "low": {
              "value": 98,
              "code": "mmol/L",
              "system": "http://unitsofmeasure.org"
            }
          },
          {
            "high": {
              "value": 108,
              "code": "mmol/L",
              "system": "http://unitsofmeasure.org"
            }
          }
        ],
        "interpretation": [
          {
            "coding": [
              {
                "code": "H",
                "system": "http://terminology.hl7.org/CodeSystem/v3-ObservationInterpretation",
                "display": "High"
              }
            ]
          }
        ],
        "text": {
          "status": "generated",
          "div": "<div xmlns=\"http://www.w3.org/1999/xhtml\"><table class=\"hl7__eu__lab__report\"><tr><th>Test</th><th>07-Jul-2025</th><th>Reference&#xA0;Range</th><th>Unit</th></tr><tr><td>Chloride [Moles/volume] in Blood</td><td>108.5</td><td>98 - 108</td><td>H</td><td>mmol/L</td></tr></table></div>"
        },
        "status": "final",
        "subject": {
          "reference": "urn:uuid:dfc420c5-17d3-4161-b686-8f7db7812755",
          "display": "Victor Lagarde"
        },
        "effectiveDateTime": "2025-07-07T07:04:18Z"
      }
    },
    {
      "fullUrl": "urn:uuid:0cf89f66-5c60-4f3b-9f20-bdf69e390aa8",
      "resource": {
        "resourceType": "Observation",
        "id": "0cf89f66-5c60-4f3b-9f20-bdf69e390aa8",
        "meta": {
          "profile": [
            "http://hl7.eu/fhir/laboratory/StructureDefinition/Observation-resultslab-eu-lab"
          ]
        },
        "performer": [
          {
            "display": "The Central European Lab"
          }
        ],
        "category": [
          {
            "coding": [
              {
                "system": "http://terminology.hl7.org/CodeSystem/observation-category",
                "code": "laboratory"
              }
            ]
          }
        ],
        "code": {
          "coding": [
            {
              "code": "20565-8",
              "system": "http://loinc.org",
              "display": "Carbon dioxide, total [Moles/volume] in Blood"
            }
          ],
          "text": "Carbon dioxide, total [Moles/volume] in Blood"
        },
        "valueQuantity": {
          "system": "http://unitsofmeasure.org",
          "value": 25.7,
          "unit": "mmol/L",
          "code": "mmol/L"
        },
        "referenceRange": [
          {
            "low": {
              "value": 22,
              "code": "mmol/L",
              "system": "http://unitsofmeasure.org"
            }
          },
          {
            "high": {
              "value": 29,
              "code": "mmol/L",
              "system": "http://unitsofmeasure.org"
            }
          }
        ],
        "text": {
          "status": "generated",
          "div": "<div xmlns=\"http://www.w3.org/1999/xhtml\"><table class=\"hl7__eu__lab__report\"><tr><th>Test</th><th>07-Jul-2025</th><th>Reference&#xA0;Range</th><th>Unit</th></tr><tr><td>Carbon dioxide, total [Moles/volume] in Blood</td><td>25.7</td><td>22 - 29</td><td></td><td>mmol/L</td></tr></table></div>"
        },
        "status": "final",
        "subject": {
          "reference": "urn:uuid:dfc420c5-17d3-4161-b686-8f7db7812755",
          "display": "Victor Lagarde"
        },
        "effectiveDateTime": "2025-07-07T07:04:18Z"
      }
    },
    {
      "fullUrl": "urn:uuid:1100e35d-51b6-437d-b06b-4aacb0b0f5f4",
      "resource": {
        "resourceType": "Observation",
        "id": "1100e35d-51b6-437d-b06b-4aacb0b0f5f4",
        "meta": {
          "profile": [
            "http://hl7.eu/fhir/laboratory/StructureDefinition/Observation-resultslab-eu-lab"
          ]
        },
        "performer": [
          {
            "display": "The Central European Lab"
          }
        ],
        "category": [
          {
            "coding": [
              {
                "system": "http://terminology.hl7.org/CodeSystem/observation-category",
                "code": "laboratory"
              }
            ]
          }
        ],
        "code": {
          "coding": [
            {
              "code": "2885-2",
              "system": "http://loinc.org",
              "display": "Protein [Mass/volume] in Serum or Plasma"
            }
          ],
          "text": "Protein [Mass/volume] in Serum or Plasma"
        },
        "valueQuantity": {
          "system": "http://unitsofmeasure.org",
          "value": 6.6,
          "unit": "g/dL",
          "code": "g/dL"
        },
        "referenceRange": [
          {
            "low": {
              "value": 6,
              "code": "g/dL",
              "system": "http://unitsofmeasure.org"
            }
          },
          {
            "high": {
              "value": 8.3,
              "code": "g/dL",
              "system": "http://unitsofmeasure.org"
            }
          }
        ],
        "text": {
          "status": "generated",
          "div": "<div xmlns=\"http://www.w3.org/1999/xhtml\"><table class=\"hl7__eu__lab__report\"><tr><th>Test</th><th>07-Jul-2025</th><th>Reference&#xA0;Range</th><th>Unit</th></tr><tr><td>Protein [Mass/volume] in Serum or Plasma</td><td>6.6</td><td>6 - 8.3</td><td></td><td>g/dL</td></tr></table></div>"
        },
        "status": "final",
        "subject": {
          "reference": "urn:uuid:dfc420c5-17d3-4161-b686-8f7db7812755",
          "display": "Victor Lagarde"
        },
        "effectiveDateTime": "2025-07-07T07:04:18Z"
      }
    },
    {
      "fullUrl": "urn:uuid:846db72b-d3aa-4ce4-8328-acee243747f3",
      "resource": {
        "resourceType": "Observation",
        "id": "846db72b-d3aa-4ce4-8328-acee243747f3",
        "meta": {
          "profile": [
            "http://hl7.eu/fhir/laboratory/StructureDefinition/Observation-resultslab-eu-lab"
          ]
        },
        "performer": [
          {
            "display": "The Central European Lab"
          }
        ],
        "category": [
          {
            "coding": [
              {
                "system": "http://terminology.hl7.org/CodeSystem/observation-category",
                "code": "laboratory"
              }
            ]
          }
        ],
        "code": {
          "coding": [
            {
              "code": "1751-7",
              "system": "http://loinc.org",
              "display": "Albumin [Mass/volume] in Serum or Plasma"
            }
          ],
          "text": "Albumin [Mass/volume] in Serum or Plasma"
        },
        "valueQuantity": {
          "system": "http://unitsofmeasure.org",
          "value": 4.5,
          "unit": "g/dL",
          "code": "g/dL"
        },
        "referenceRange": [
          {
            "low": {
              "value": 3.5,
              "code": "g/dL",
              "system": "http://unitsofmeasure.org"
            }
          },
          {
            "high": {
              "value": 5.5,
              "code": "g/dL",
              "system": "http://unitsofmeasure.org"
            }
          }
        ],
        "text": {
          "status": "generated",
          "div": "<div xmlns=\"http://www.w3.org/1999/xhtml\"><table class=\"hl7__eu__lab__report\"><tr><th>Test</th><th>07-Jul-2025</th><th>Reference&#xA0;Range</th><th>Unit</th></tr><tr><td>Albumin [Mass/volume] in Serum or Plasma</td><td>4.5</td><td>3.5 - 5.5</td><td></td><td>g/dL</td></tr></table></div>"
        },
        "status": "final",
        "subject": {
          "reference": "urn:uuid:dfc420c5-17d3-4161-b686-8f7db7812755",
          "display": "Victor Lagarde"
        },
        "effectiveDateTime": "2025-07-07T07:04:18Z"
      }
    },
    {
      "fullUrl": "urn:uuid:1ae74fab-7cc2-4c41-ba39-e68264fc1fe0",
      "resource": {
        "resourceType": "Observation",
        "id": "1ae74fab-7cc2-4c41-ba39-e68264fc1fe0",
        "meta": {
          "profile": [
            "http://hl7.eu/fhir/laboratory/StructureDefinition/Observation-resultslab-eu-lab"
          ]
        },
        "performer": [
          {
            "display": "The Central European Lab"
          }
        ],
        "category": [
          {
            "coding": [
              {
                "system": "http://terminology.hl7.org/CodeSystem/observation-category",
                "code": "laboratory"
              }
            ]
          }
        ],
        "code": {
          "coding": [
            {
              "code": "10834-0",
              "system": "http://loinc.org",
              "display": "Globulin [Mass/volume] in Serum by calculation"
            }
          ],
          "text": "Globulin [Mass/volume] in Serum by calculation"
        },
        "valueQuantity": {
          "system": "http://unitsofmeasure.org",
          "value": 2.3,
          "unit": "g/L",
          "code": "g/L"
        },
        "referenceRange": [
          {
            "low": {
              "value": 2,
              "code": "g/L",
              "system": "http://unitsofmeasure.org"
            }
          },
          {
            "high": {
              "value": 3.5,
              "code": "g/L",
              "system": "http://unitsofmeasure.org"
            }
          }
        ],
        "text": {
          "status": "generated",
          "div": "<div xmlns=\"http://www.w3.org/1999/xhtml\"><table class=\"hl7__eu__lab__report\"><tr><th>Test</th><th>07-Jul-2025</th><th>Reference&#xA0;Range</th><th>Unit</th></tr><tr><td>Globulin [Mass/volume] in Serum by calculation</td><td>2.3</td><td>2 - 3.5</td><td></td><td>g/L</td></tr></table></div>"
        },
        "status": "final",
        "subject": {
          "reference": "urn:uuid:dfc420c5-17d3-4161-b686-8f7db7812755",
          "display": "Victor Lagarde"
        },
        "effectiveDateTime": "2025-07-07T07:04:18Z"
      }
    },
    {
      "fullUrl": "urn:uuid:15e87d8a-5081-4bc2-bf80-3c4e2fa2d206",
      "resource": {
        "resourceType": "Observation",
        "id": "15e87d8a-5081-4bc2-bf80-3c4e2fa2d206",
        "meta": {
          "profile": [
            "http://hl7.eu/fhir/laboratory/StructureDefinition/Observation-resultslab-eu-lab"
          ]
        },
        "performer": [
          {
            "display": "The Central European Lab"
          }
        ],
        "category": [
          {
            "coding": [
              {
                "system": "http://terminology.hl7.org/CodeSystem/observation-category",
                "code": "laboratory"
              }
            ]
          }
        ],
        "code": {
          "coding": [
            {
              "code": "1975-2",
              "system": "http://loinc.org",
              "display": "Bilirubin.total [Mass/volume] in Serum or Plasma"
            }
          ],
          "text": "Bilirubin.total [Mass/volume] in Serum or Plasma"
        },
        "valueQuantity": {
          "system": "http://unitsofmeasure.org",
          "value": 0.5,
          "unit": "mg/dL",
          "code": "mg/dL"
        },
        "referenceRange": [
          {
            "low": {
              "value": 0.3,
              "code": "mg/dL",
              "system": "http://unitsofmeasure.org"
            }
          },
          {
            "high": {
              "value": 1.2,
              "code": "mg/dL",
              "system": "http://unitsofmeasure.org"
            }
          }
        ],
        "text": {
          "status": "generated",
          "div": "<div xmlns=\"http://www.w3.org/1999/xhtml\"><table class=\"hl7__eu__lab__report\"><tr><th>Test</th><th>07-Jul-2025</th><th>Reference&#xA0;Range</th><th>Unit</th></tr><tr><td>Bilirubin.total [Mass/volume] in Serum or Plasma</td><td>0.5</td><td>0.3 - 1.2</td><td></td><td>mg/dL</td></tr></table></div>"
        },
        "status": "final",
        "subject": {
          "reference": "urn:uuid:dfc420c5-17d3-4161-b686-8f7db7812755",
          "display": "Victor Lagarde"
        },
        "effectiveDateTime": "2025-07-07T07:04:18Z"
      }
    },
    {
      "fullUrl": "urn:uuid:11019b29-1a02-49c0-bf82-ad77dec7621d",
      "resource": {
        "resourceType": "Observation",
        "id": "11019b29-1a02-49c0-bf82-ad77dec7621d",
        "meta": {
          "profile": [
            "http://hl7.eu/fhir/laboratory/StructureDefinition/Observation-resultslab-eu-lab"
          ]
        },
        "performer": [
          {
            "display": "The Central European Lab"
          }
        ],
        "category": [
          {
            "coding": [
              {
                "system": "http://terminology.hl7.org/CodeSystem/observation-category",
                "code": "laboratory"
              }
            ]
          }
        ],
        "code": {
          "coding": [
            {
              "code": "6768-6",
              "system": "http://loinc.org",
              "display": "Alkaline phosphatase [Enzymatic activity/volume] in Serum or Plasma"
            }
          ],
          "text": "Alkaline phosphatase [Enzymatic activity/volume] in Serum or Plasma"
        },
        "valueQuantity": {
          "system": "http://unitsofmeasure.org",
          "value": 24.4,
          "unit": "U/L",
          "code": "U/L"
        },
        "referenceRange": [
          {
            "low": {
              "value": 39,
              "code": "U/L",
              "system": "http://unitsofmeasure.org"
            }
          },
          {
            "high": {
              "value": 147,
              "code": "U/L",
              "system": "http://unitsofmeasure.org"
            }
          }
        ],
        "interpretation": [
          {
            "coding": [
              {
                "code": "L",
                "system": "http://terminology.hl7.org/CodeSystem/v3-ObservationInterpretation",
                "display": "Low"
              }
            ]
          }
        ],
        "text": {
          "status": "generated",
          "div": "<div xmlns=\"http://www.w3.org/1999/xhtml\"><table class=\"hl7__eu__lab__report\"><tr><th>Test</th><th>07-Jul-2025</th><th>Reference&#xA0;Range</th><th>Unit</th></tr><tr><td>Alkaline phosphatase [Enzymatic activity/volume] in Serum or Plasma</td><td>24.4</td><td>39 - 147</td><td>L</td><td>U/L</td></tr></table></div>"
        },
        "status": "final",
        "subject": {
          "reference": "urn:uuid:dfc420c5-17d3-4161-b686-8f7db7812755",
          "display": "Victor Lagarde"
        },
        "effectiveDateTime": "2025-07-07T07:04:18Z"
      }
    },
    {
      "fullUrl": "urn:uuid:5b693bbc-de2a-4971-abbe-254930b99b5c",
      "resource": {
        "resourceType": "Observation",
        "id": "5b693bbc-de2a-4971-abbe-254930b99b5c",
        "meta": {
          "profile": [
            "http://hl7.eu/fhir/laboratory/StructureDefinition/Observation-resultslab-eu-lab"
          ]
        },
        "performer": [
          {
            "display": "The Central European Lab"
          }
        ],
        "category": [
          {
            "coding": [
              {
                "system": "http://terminology.hl7.org/CodeSystem/observation-category",
                "code": "laboratory"
              }
            ]
          }
        ],
        "code": {
          "coding": [
            {
              "code": "1742-6",
              "system": "http://loinc.org",
              "display": "Alanine aminotransferase [Enzymatic activity/volume] in Serum or Plasma"
            }
          ],
          "text": "Alanine aminotransferase [Enzymatic activity/volume] in Serum or Plasma"
        },
        "valueQuantity": {
          "system": "http://unitsofmeasure.org",
          "value": 59,
          "unit": "U/L",
          "code": "U/L"
        },
        "referenceRange": [
          {
            "low": {
              "value": 10,
              "code": "U/L",
              "system": "http://unitsofmeasure.org"
            }
          },
          {
            "high": {
              "value": 63,
              "code": "U/L",
              "system": "http://unitsofmeasure.org"
            }
          }
        ],
        "text": {
          "status": "generated",
          "div": "<div xmlns=\"http://www.w3.org/1999/xhtml\"><table class=\"hl7__eu__lab__report\"><tr><th>Test</th><th>07-Jul-2025</th><th>Reference&#xA0;Range</th><th>Unit</th></tr><tr><td>Alanine aminotransferase [Enzymatic activity/volume] in Serum or Plasma</td><td>59.0</td><td>10 - 63</td><td></td><td>U/L</td></tr></table></div>"
        },
        "status": "final",
        "subject": {
          "reference": "urn:uuid:dfc420c5-17d3-4161-b686-8f7db7812755",
          "display": "Victor Lagarde"
        },
        "effectiveDateTime": "2025-07-07T07:04:18Z"
      }
    },
    {
      "fullUrl": "urn:uuid:ddd7462f-36de-4121-9227-27063e8b4cce",
      "resource": {
        "resourceType": "Observation",
        "id": "ddd7462f-36de-4121-9227-27063e8b4cce",
        "meta": {
          "profile": [
            "http://hl7.eu/fhir/laboratory/StructureDefinition/Observation-resultslab-eu-lab"
          ]
        },
        "performer": [
          {
            "display": "The Central European Lab"
          }
        ],
        "category": [
          {
            "coding": [
              {
                "system": "http://terminology.hl7.org/CodeSystem/observation-category",
                "code": "laboratory"
              }
            ]
          }
        ],
        "code": {
          "coding": [
            {
              "code": "1920-8",
              "system": "http://loinc.org",
              "display": "Aspartate aminotransferase [Enzymatic activity/volume] in Serum or Plasma"
            }
          ],
          "text": "Aspartate aminotransferase [Enzymatic activity/volume] in Serum or Plasma"
        },
        "valueQuantity": {
          "system": "http://unitsofmeasure.org",
          "value": 32.5,
          "unit": "U/L",
          "code": "U/L"
        },
        "referenceRange": [
          {
            "low": {
              "value": 10,
              "code": "U/L",
              "system": "http://unitsofmeasure.org"
            }
          },
          {
            "high": {
              "value": 40,
              "code": "U/L",
              "system": "http://unitsofmeasure.org"
            }
          }
        ],
        "text": {
          "status": "generated",
          "div": "<div xmlns=\"http://www.w3.org/1999/xhtml\"><table class=\"hl7__eu__lab__report\"><tr><th>Test</th><th>07-Jul-2025</th><th>Reference&#xA0;Range</th><th>Unit</th></tr><tr><td>Aspartate aminotransferase [Enzymatic activity/volume] in Serum or Plasma</td><td>32.5</td><td>10 - 40</td><td></td><td>U/L</td></tr></table></div>"
        },
        "status": "final",
        "subject": {
          "reference": "urn:uuid:dfc420c5-17d3-4161-b686-8f7db7812755",
          "display": "Victor Lagarde"
        },
        "effectiveDateTime": "2025-07-07T07:04:18Z"
      }
    },
    {
      "fullUrl": "urn:uuid:062b7bae-80df-4505-a39c-2e6b13a30f97",
      "resource": {
        "resourceType": "Observation",
        "id": "062b7bae-80df-4505-a39c-2e6b13a30f97",
        "meta": {
          "profile": [
            "http://hl7.eu/fhir/laboratory/StructureDefinition/Observation-resultslab-eu-lab"
          ]
        },
        "performer": [
          {
            "display": "The Central European Lab"
          }
        ],
        "category": [
          {
            "coding": [
              {
                "system": "http://terminology.hl7.org/CodeSystem/observation-category",
                "code": "laboratory"
              }
            ]
          }
        ],
        "code": {
          "coding": [
            {
              "code": "5767-9",
              "system": "http://loinc.org",
              "display": "Appearance of Urine"
            }
          ],
          "text": "Appearance of Urine"
        },
        "text": {
          "status": "generated",
          "div": "<div xmlns=\"http://www.w3.org/1999/xhtml\"><table class=\"hl7__eu__lab__report\"><tr><th>Test</th><th>07-Jul-2025</th><th>Reference&#xA0;Range</th><th>Unit</th></tr><tr><td>Appearance of Urine</td></tr></table></div>"
        },
        "status": "final",
        "subject": {
          "reference": "urn:uuid:dfc420c5-17d3-4161-b686-8f7db7812755",
          "display": "Victor Lagarde"
        },
        "effectiveDateTime": "2025-07-07T07:04:18Z"
      }
    },
    {
      "fullUrl": "urn:uuid:85b2ec25-5cc0-4c96-8214-e2c4435585bd",
      "resource": {
        "resourceType": "Observation",
        "id": "85b2ec25-5cc0-4c96-8214-e2c4435585bd",
        "meta": {
          "profile": [
            "http://hl7.eu/fhir/laboratory/StructureDefinition/Observation-resultslab-eu-lab"
          ]
        },
        "performer": [
          {
            "display": "The Central European Lab"
          }
        ],
        "category": [
          {
            "coding": [
              {
                "system": "http://terminology.hl7.org/CodeSystem/observation-category",
                "code": "laboratory"
              }
            ]
          }
        ],
        "code": {
          "coding": [
            {
              "code": "34533-0",
              "system": "http://loinc.org",
              "display": "Odor of Urine"
            }
          ],
          "text": "Odor of Urine"
        },
        "text": {
          "status": "generated",
          "div": "<div xmlns=\"http://www.w3.org/1999/xhtml\"><table class=\"hl7__eu__lab__report\"><tr><th>Test</th><th>07-Jul-2025</th><th>Reference&#xA0;Range</th><th>Unit</th></tr><tr><td>Odor of Urine</td></tr></table></div>"
        },
        "status": "final",
        "subject": {
          "reference": "urn:uuid:dfc420c5-17d3-4161-b686-8f7db7812755",
          "display": "Victor Lagarde"
        },
        "effectiveDateTime": "2025-07-07T07:04:18Z"
      }
    },
    {
      "fullUrl": "urn:uuid:806d1038-dd16-4a7f-b8c8-79aa3c37a351",
      "resource": {
        "resourceType": "Observation",
        "id": "806d1038-dd16-4a7f-b8c8-79aa3c37a351",
        "meta": {
          "profile": [
            "http://hl7.eu/fhir/laboratory/StructureDefinition/Observation-resultslab-eu-lab"
          ]
        },
        "performer": [
          {
            "display": "The Central European Lab"
          }
        ],
        "category": [
          {
            "coding": [
              {
                "system": "http://terminology.hl7.org/CodeSystem/observation-category",
                "code": "laboratory"
              }
            ]
          }
        ],
        "code": {
          "coding": [
            {
              "code": "32167-9",
              "system": "http://loinc.org",
              "display": "Clarity of Urine"
            }
          ],
          "text": "Clarity of Urine"
        },
        "text": {
          "status": "generated",
          "div": "<div xmlns=\"http://www.w3.org/1999/xhtml\"><table class=\"hl7__eu__lab__report\"><tr><th>Test</th><th>07-Jul-2025</th><th>Reference&#xA0;Range</th><th>Unit</th></tr><tr><td>Clarity of Urine</td></tr></table></div>"
        },
        "status": "final",
        "subject": {
          "reference": "urn:uuid:dfc420c5-17d3-4161-b686-8f7db7812755",
          "display": "Victor Lagarde"
        },
        "effectiveDateTime": "2025-07-07T07:04:18Z"
      }
    },
    {
      "fullUrl": "urn:uuid:80a84c73-ba6d-40de-8357-84350346e665",
      "resource": {
        "resourceType": "Observation",
        "id": "80a84c73-ba6d-40de-8357-84350346e665",
        "meta": {
          "profile": [
            "http://hl7.eu/fhir/laboratory/StructureDefinition/Observation-resultslab-eu-lab"
          ]
        },
        "performer": [
          {
            "display": "The Central European Lab"
          }
        ],
        "category": [
          {
            "coding": [
              {
                "system": "http://terminology.hl7.org/CodeSystem/observation-category",
                "code": "laboratory"
              }
            ]
          }
        ],
        "code": {
          "coding": [
            {
              "code": "5778-6",
              "system": "http://loinc.org",
              "display": "Color of Urine"
            }
          ],
          "text": "Color of Urine"
        },
        "text": {
          "status": "generated",
          "div": "<div xmlns=\"http://www.w3.org/1999/xhtml\"><table class=\"hl7__eu__lab__report\"><tr><th>Test</th><th>07-Jul-2025</th><th>Reference&#xA0;Range</th><th>Unit</th></tr><tr><td>Color of Urine</td></tr></table></div>"
        },
        "status": "final",
        "subject": {
          "reference": "urn:uuid:dfc420c5-17d3-4161-b686-8f7db7812755",
          "display": "Victor Lagarde"
        },
        "effectiveDateTime": "2025-07-07T07:04:18Z"
      }
    },
    {
      "fullUrl": "urn:uuid:ef0cda20-86ab-4dd6-bd1f-7fd219242900",
      "resource": {
        "resourceType": "Observation",
        "id": "ef0cda20-86ab-4dd6-bd1f-7fd219242900",
        "meta": {
          "profile": [
            "http://hl7.eu/fhir/laboratory/StructureDefinition/Observation-resultslab-eu-lab"
          ]
        },
        "performer": [
          {
            "display": "The Central European Lab"
          }
        ],
        "category": [
          {
            "coding": [
              {
                "system": "http://terminology.hl7.org/CodeSystem/observation-category",
                "code": "laboratory"
              }
            ]
          }
        ],
        "code": {
          "coding": [
            {
              "code": "5792-7",
              "system": "http://loinc.org",
              "display": "Glucose [Mass/volume] in Urine by Test strip"
            }
          ],
          "text": "Glucose [Mass/volume] in Urine by Test strip"
        },
        "valueQuantity": {
          "system": "http://unitsofmeasure.org",
          "value": 0.6,
          "unit": "mg/dL",
          "code": "mg/dL"
        },
        "referenceRange": [
          {
            "low": {
              "value": 0,
              "code": "mg/dL",
              "system": "http://unitsofmeasure.org"
            }
          },
          {
            "high": {
              "value": 0.8,
              "code": "mg/dL",
              "system": "http://unitsofmeasure.org"
            }
          }
        ],
        "text": {
          "status": "generated",
          "div": "<div xmlns=\"http://www.w3.org/1999/xhtml\"><table class=\"hl7__eu__lab__report\"><tr><th>Test</th><th>07-Jul-2025</th><th>Reference&#xA0;Range</th><th>Unit</th></tr><tr><td>Glucose [Mass/volume] in Urine by Test strip</td><td>0.6</td><td>0 - 0.8</td><td></td><td>mg/dL</td></tr></table></div>"
        },
        "status": "final",
        "subject": {
          "reference": "urn:uuid:dfc420c5-17d3-4161-b686-8f7db7812755",
          "display": "Victor Lagarde"
        },
        "effectiveDateTime": "2025-07-07T07:04:18Z"
      }
    },
    {
      "fullUrl": "urn:uuid:9adb3b88-d53e-48a8-b85a-9e0e090f7834",
      "resource": {
        "resourceType": "Observation",
        "id": "9adb3b88-d53e-48a8-b85a-9e0e090f7834",
        "meta": {
          "profile": [
            "http://hl7.eu/fhir/laboratory/StructureDefinition/Observation-resultslab-eu-lab"
          ]
        },
        "performer": [
          {
            "display": "The Central European Lab"
          }
        ],
        "category": [
          {
            "coding": [
              {
                "system": "http://terminology.hl7.org/CodeSystem/observation-category",
                "code": "laboratory"
              }
            ]
          }
        ],
        "code": {
          "coding": [
            {
              "code": "25428-4",
              "system": "http://loinc.org",
              "display": "Glucose [Presence] in Urine by Test strip"
            }
          ],
          "text": "Glucose [Presence] in Urine by Test strip"
        },
        "text": {
          "status": "generated",
          "div": "<div xmlns=\"http://www.w3.org/1999/xhtml\"><table class=\"hl7__eu__lab__report\"><tr><th>Test</th><th>07-Jul-2025</th><th>Reference&#xA0;Range</th><th>Unit</th></tr><tr><td>Glucose [Presence] in Urine by Test strip</td></tr></table></div>"
        },
        "status": "final",
        "subject": {
          "reference": "urn:uuid:dfc420c5-17d3-4161-b686-8f7db7812755",
          "display": "Victor Lagarde"
        },
        "effectiveDateTime": "2025-07-07T07:04:18Z"
      }
    },
    {
      "fullUrl": "urn:uuid:d6d3888d-9d53-41fc-a508-491cfcd4ea9a",
      "resource": {
        "resourceType": "Observation",
        "id": "d6d3888d-9d53-41fc-a508-491cfcd4ea9a",
        "meta": {
          "profile": [
            "http://hl7.eu/fhir/laboratory/StructureDefinition/Observation-resultslab-eu-lab"
          ]
        },
        "performer": [
          {
            "display": "The Central European Lab"
          }
        ],
        "category": [
          {
            "coding": [
              {
                "system": "http://terminology.hl7.org/CodeSystem/observation-category",
                "code": "laboratory"
              }
            ]
          }
        ],
        "code": {
          "coding": [
            {
              "code": "20505-4",
              "system": "http://loinc.org",
              "display": "Bilirubin.total [Mass/volume] in Urine by Test strip"
            }
          ],
          "text": "Bilirubin.total [Mass/volume] in Urine by Test strip"
        },
        "valueQuantity": {
          "system": "http://unitsofmeasure.org",
          "value": 0.9,
          "unit": "mg/dL",
          "code": "mg/dL"
        },
        "referenceRange": [
          {
            "low": {
              "value": 0,
              "code": "mg/dL",
              "system": "http://unitsofmeasure.org"
            }
          },
          {
            "high": {
              "value": 1.9,
              "code": "mg/dL",
              "system": "http://unitsofmeasure.org"
            }
          }
        ],
        "text": {
          "status": "generated",
          "div": "<div xmlns=\"http://www.w3.org/1999/xhtml\"><table class=\"hl7__eu__lab__report\"><tr><th>Test</th><th>07-Jul-2025</th><th>Reference&#xA0;Range</th><th>Unit</th></tr><tr><td>Bilirubin.total [Mass/volume] in Urine by Test strip</td><td>0.9</td><td>0 - 1.9</td><td></td><td>mg/dL</td></tr></table></div>"
        },
        "status": "final",
        "subject": {
          "reference": "urn:uuid:dfc420c5-17d3-4161-b686-8f7db7812755",
          "display": "Victor Lagarde"
        },
        "effectiveDateTime": "2025-07-07T07:04:18Z"
      }
    },
    {
      "fullUrl": "urn:uuid:bc13b56a-bb97-4ec3-9031-e7e9075b2819",
      "resource": {
        "resourceType": "Observation",
        "id": "bc13b56a-bb97-4ec3-9031-e7e9075b2819",
        "meta": {
          "profile": [
            "http://hl7.eu/fhir/laboratory/StructureDefinition/Observation-resultslab-eu-lab"
          ]
        },
        "performer": [
          {
            "display": "The Central European Lab"
          }
        ],
        "category": [
          {
            "coding": [
              {
                "system": "http://terminology.hl7.org/CodeSystem/observation-category",
                "code": "laboratory"
              }
            ]
          }
        ],
        "code": {
          "coding": [
            {
              "code": "5770-3",
              "system": "http://loinc.org",
              "display": "Bilirubin.total [Presence] in Urine by Test strip"
            }
          ],
          "text": "Bilirubin.total [Presence] in Urine by Test strip"
        },
        "text": {
          "status": "generated",
          "div": "<div xmlns=\"http://www.w3.org/1999/xhtml\"><table class=\"hl7__eu__lab__report\"><tr><th>Test</th><th>07-Jul-2025</th><th>Reference&#xA0;Range</th><th>Unit</th></tr><tr><td>Bilirubin.total [Presence] in Urine by Test strip</td></tr></table></div>"
        },
        "status": "final",
        "subject": {
          "reference": "urn:uuid:dfc420c5-17d3-4161-b686-8f7db7812755",
          "display": "Victor Lagarde"
        },
        "effectiveDateTime": "2025-07-07T07:04:18Z"
      }
    },
    {
      "fullUrl": "urn:uuid:2b199681-cca7-4c80-83c2-b0d16dcd1205",
      "resource": {
        "resourceType": "Observation",
        "id": "2b199681-cca7-4c80-83c2-b0d16dcd1205",
        "meta": {
          "profile": [
            "http://hl7.eu/fhir/laboratory/StructureDefinition/Observation-resultslab-eu-lab"
          ]
        },
        "performer": [
          {
            "display": "The Central European Lab"
          }
        ],
        "category": [
          {
            "coding": [
              {
                "system": "http://terminology.hl7.org/CodeSystem/observation-category",
                "code": "laboratory"
              }
            ]
          }
        ],
        "code": {
          "coding": [
            {
              "code": "5797-6",
              "system": "http://loinc.org",
              "display": "Ketones [Mass/volume] in Urine by Test strip"
            }
          ],
          "text": "Ketones [Mass/volume] in Urine by Test strip"
        },
        "valueQuantity": {
          "system": "http://unitsofmeasure.org",
          "value": 16.4,
          "unit": "mg/dL",
          "code": "mg/dL"
        },
        "referenceRange": [
          {
            "low": {
              "value": 0,
              "code": "mg/dL",
              "system": "http://unitsofmeasure.org"
            }
          },
          {
            "high": {
              "value": 3,
              "code": "mg/dL",
              "system": "http://unitsofmeasure.org"
            }
          }
        ],
        "interpretation": [
          {
            "coding": [
              {
                "code": "H",
                "system": "http://terminology.hl7.org/CodeSystem/v3-ObservationInterpretation",
                "display": "High"
              }
            ]
          }
        ],
        "text": {
          "status": "generated",
          "div": "<div xmlns=\"http://www.w3.org/1999/xhtml\"><table class=\"hl7__eu__lab__report\"><tr><th>Test</th><th>07-Jul-2025</th><th>Reference&#xA0;Range</th><th>Unit</th></tr><tr><td>Ketones [Mass/volume] in Urine by Test strip</td><td>16.4</td><td>0 - 3</td><td>H</td><td>mg/dL</td></tr></table></div>"
        },
        "status": "final",
        "subject": {
          "reference": "urn:uuid:dfc420c5-17d3-4161-b686-8f7db7812755",
          "display": "Victor Lagarde"
        },
        "effectiveDateTime": "2025-07-07T07:04:18Z"
      }
    },
    {
      "fullUrl": "urn:uuid:eeab20f8-f6cf-40f9-821e-45a2deb9f1be",
      "resource": {
        "resourceType": "Observation",
        "id": "eeab20f8-f6cf-40f9-821e-45a2deb9f1be",
        "meta": {
          "profile": [
            "http://hl7.eu/fhir/laboratory/StructureDefinition/Observation-resultslab-eu-lab"
          ]
        },
        "performer": [
          {
            "display": "The Central European Lab"
          }
        ],
        "category": [
          {
            "coding": [
              {
                "system": "http://terminology.hl7.org/CodeSystem/observation-category",
                "code": "laboratory"
              }
            ]
          }
        ],
        "code": {
          "coding": [
            {
              "code": "2514-8",
              "system": "http://loinc.org",
              "display": "Ketones [Presence] in Urine by Test strip"
            }
          ],
          "text": "Ketones [Presence] in Urine by Test strip"
        },
        "text": {
          "status": "generated",
          "div": "<div xmlns=\"http://www.w3.org/1999/xhtml\"><table class=\"hl7__eu__lab__report\"><tr><th>Test</th><th>07-Jul-2025</th><th>Reference&#xA0;Range</th><th>Unit</th></tr><tr><td>Ketones [Presence] in Urine by Test strip</td></tr></table></div>"
        },
        "status": "final",
        "subject": {
          "reference": "urn:uuid:dfc420c5-17d3-4161-b686-8f7db7812755",
          "display": "Victor Lagarde"
        },
        "effectiveDateTime": "2025-07-07T07:04:18Z"
      }
    },
    {
      "fullUrl": "urn:uuid:63bd1496-11bb-488b-9971-ef977b8fe9db",
      "resource": {
        "resourceType": "Observation",
        "id": "63bd1496-11bb-488b-9971-ef977b8fe9db",
        "meta": {
          "profile": [
            "http://hl7.eu/fhir/laboratory/StructureDefinition/Observation-resultslab-eu-lab"
          ]
        },
        "performer": [
          {
            "display": "The Central European Lab"
          }
        ],
        "category": [
          {
            "coding": [
              {
                "system": "http://terminology.hl7.org/CodeSystem/observation-category",
                "code": "laboratory"
              }
            ]
          }
        ],
        "code": {
          "coding": [
            {
              "code": "5811-5",
              "system": "http://loinc.org",
              "display": "Specific gravity of Urine by Test strip"
            }
          ],
          "text": "Specific gravity of Urine by Test strip"
        },
        "valueQuantity": {
          "system": "http://unitsofmeasure.org",
          "value": 1,
          "unit": "{nominal}",
          "code": "{nominal}"
        },
        "referenceRange": [
          {
            "low": {
              "value": 1.01,
              "code": "g/mL",
              "system": "http://unitsofmeasure.org"
            }
          },
          {
            "high": {
              "value": 1.03,
              "code": "g/mL",
              "system": "http://unitsofmeasure.org"
            }
          }
        ],
        "interpretation": [
          {
            "coding": [
              {
                "code": "L",
                "system": "http://terminology.hl7.org/CodeSystem/v3-ObservationInterpretation",
                "display": "Low"
              }
            ]
          }
        ],
        "text": {
          "status": "generated",
          "div": "<div xmlns=\"http://www.w3.org/1999/xhtml\"><table class=\"hl7__eu__lab__report\"><tr><th>Test</th><th>07-Jul-2025</th><th>Reference&#xA0;Range</th><th>Unit</th></tr><tr><td>Specific gravity of Urine by Test strip</td><td>1.0</td><td>1.01 - 1.03</td><td>L</td><td>{nominal}</td></tr></table></div>"
        },
        "status": "final",
        "subject": {
          "reference": "urn:uuid:dfc420c5-17d3-4161-b686-8f7db7812755",
          "display": "Victor Lagarde"
        },
        "effectiveDateTime": "2025-07-07T07:04:18Z"
      }
    },
    {
      "fullUrl": "urn:uuid:71e37d53-015a-4276-a895-faa84acf8dca",
      "resource": {
        "resourceType": "Observation",
        "id": "71e37d53-015a-4276-a895-faa84acf8dca",
        "meta": {
          "profile": [
            "http://hl7.eu/fhir/laboratory/StructureDefinition/Observation-resultslab-eu-lab"
          ]
        },
        "performer": [
          {
            "display": "The Central European Lab"
          }
        ],
        "category": [
          {
            "coding": [
              {
                "system": "http://terminology.hl7.org/CodeSystem/observation-category",
                "code": "laboratory"
              }
            ]
          }
        ],
        "code": {
          "coding": [
            {
              "code": "5803-2",
              "system": "http://loinc.org",
              "display": "pH of Urine by Test strip"
            }
          ],
          "text": "pH of Urine by Test strip"
        },
        "valueQuantity": {
          "system": "http://unitsofmeasure.org",
          "value": 5.6,
          "unit": "pH",
          "code": "pH"
        },
        "referenceRange": [
          {
            "low": {
              "value": 4.5,
              "code": "pH",
              "system": "http://unitsofmeasure.org"
            }
          },
          {
            "high": {
              "value": 7.5,
              "code": "pH",
              "system": "http://unitsofmeasure.org"
            }
          }
        ],
        "text": {
          "status": "generated",
          "div": "<div xmlns=\"http://www.w3.org/1999/xhtml\"><table class=\"hl7__eu__lab__report\"><tr><th>Test</th><th>07-Jul-2025</th><th>Reference&#xA0;Range</th><th>Unit</th></tr><tr><td>pH of Urine by Test strip</td><td>5.6</td><td>4.5 - 7.5</td><td></td><td>pH</td></tr></table></div>"
        },
        "status": "final",
        "subject": {
          "reference": "urn:uuid:dfc420c5-17d3-4161-b686-8f7db7812755",
          "display": "Victor Lagarde"
        },
        "effectiveDateTime": "2025-07-07T07:04:18Z"
      }
    },
    {
      "fullUrl": "urn:uuid:334dd1ba-4705-4e38-b73f-eea3c2a43f64",
      "resource": {
        "resourceType": "Observation",
        "id": "334dd1ba-4705-4e38-b73f-eea3c2a43f64",
        "meta": {
          "profile": [
            "http://hl7.eu/fhir/laboratory/StructureDefinition/Observation-resultslab-eu-lab"
          ]
        },
        "performer": [
          {
            "display": "The Central European Lab"
          }
        ],
        "category": [
          {
            "coding": [
              {
                "system": "http://terminology.hl7.org/CodeSystem/observation-category",
                "code": "laboratory"
              }
            ]
          }
        ],
        "code": {
          "coding": [
            {
              "code": "5804-0",
              "system": "http://loinc.org",
              "display": "Protein [Mass/volume] in Urine by Test strip"
            }
          ],
          "text": "Protein [Mass/volume] in Urine by Test strip"
        },
        "valueQuantity": {
          "system": "http://unitsofmeasure.org",
          "value": 326.8,
          "unit": "mg/dL",
          "code": "mg/dL"
        },
        "referenceRange": [
          {
            "low": {
              "value": 0,
              "code": "mg/dL",
              "system": "http://unitsofmeasure.org"
            }
          },
          {
            "high": {
              "value": 149,
              "code": "mg/dL",
              "system": "http://unitsofmeasure.org"
            }
          }
        ],
        "interpretation": [
          {
            "coding": [
              {
                "code": "H",
                "system": "http://terminology.hl7.org/CodeSystem/v3-ObservationInterpretation",
                "display": "High"
              }
            ]
          }
        ],
        "text": {
          "status": "generated",
          "div": "<div xmlns=\"http://www.w3.org/1999/xhtml\"><table class=\"hl7__eu__lab__report\"><tr><th>Test</th><th>07-Jul-2025</th><th>Reference&#xA0;Range</th><th>Unit</th></tr><tr><td>Protein [Mass/volume] in Urine by Test strip</td><td>326.8</td><td>0 - 149</td><td>H</td><td>mg/dL</td></tr></table></div>"
        },
        "status": "final",
        "subject": {
          "reference": "urn:uuid:dfc420c5-17d3-4161-b686-8f7db7812755",
          "display": "Victor Lagarde"
        },
        "effectiveDateTime": "2025-07-07T07:04:18Z"
      }
    },
    {
      "fullUrl": "urn:uuid:559f86b8-24e2-4492-a068-5e0d4234e44b",
      "resource": {
        "resourceType": "Observation",
        "id": "559f86b8-24e2-4492-a068-5e0d4234e44b",
        "meta": {
          "profile": [
            "http://hl7.eu/fhir/laboratory/StructureDefinition/Observation-resultslab-eu-lab"
          ]
        },
        "performer": [
          {
            "display": "The Central European Lab"
          }
        ],
        "category": [
          {
            "coding": [
              {
                "system": "http://terminology.hl7.org/CodeSystem/observation-category",
                "code": "laboratory"
              }
            ]
          }
        ],
        "code": {
          "coding": [
            {
              "code": "20454-5",
              "system": "http://loinc.org",
              "display": "Protein [Presence] in Urine by Test strip"
            }
          ],
          "text": "Protein [Presence] in Urine by Test strip"
        },
        "text": {
          "status": "generated",
          "div": "<div xmlns=\"http://www.w3.org/1999/xhtml\"><table class=\"hl7__eu__lab__report\"><tr><th>Test</th><th>07-Jul-2025</th><th>Reference&#xA0;Range</th><th>Unit</th></tr><tr><td>Protein [Presence] in Urine by Test strip</td></tr></table></div>"
        },
        "status": "final",
        "subject": {
          "reference": "urn:uuid:dfc420c5-17d3-4161-b686-8f7db7812755",
          "display": "Victor Lagarde"
        },
        "effectiveDateTime": "2025-07-07T07:04:18Z"
      }
    },
    {
      "fullUrl": "urn:uuid:ccdb93c3-ebb2-4bf8-b330-577ea0ae9594",
      "resource": {
        "resourceType": "Observation",
        "id": "ccdb93c3-ebb2-4bf8-b330-577ea0ae9594",
        "meta": {
          "profile": [
            "http://hl7.eu/fhir/laboratory/StructureDefinition/Observation-resultslab-eu-lab"
          ]
        },
        "performer": [
          {
            "display": "The Central European Lab"
          }
        ],
        "category": [
          {
            "coding": [
              {
                "system": "http://terminology.hl7.org/CodeSystem/observation-category",
                "code": "laboratory"
              }
            ]
          }
        ],
        "code": {
          "coding": [
            {
              "code": "5802-4",
              "system": "http://loinc.org",
              "display": "Nitrite [Presence] in Urine by Test strip"
            }
          ],
          "text": "Nitrite [Presence] in Urine by Test strip"
        },
        "text": {
          "status": "generated",
          "div": "<div xmlns=\"http://www.w3.org/1999/xhtml\"><table class=\"hl7__eu__lab__report\"><tr><th>Test</th><th>07-Jul-2025</th><th>Reference&#xA0;Range</th><th>Unit</th></tr><tr><td>Nitrite [Presence] in Urine by Test strip</td></tr></table></div>"
        },
        "status": "final",
        "subject": {
          "reference": "urn:uuid:dfc420c5-17d3-4161-b686-8f7db7812755",
          "display": "Victor Lagarde"
        },
        "effectiveDateTime": "2025-07-07T07:04:18Z"
      }
    },
    {
      "fullUrl": "urn:uuid:04a845d2-7e7a-4b44-a7df-4a59ff28b3f8",
      "resource": {
        "resourceType": "Observation",
        "id": "04a845d2-7e7a-4b44-a7df-4a59ff28b3f8",
        "meta": {
          "profile": [
            "http://hl7.eu/fhir/laboratory/StructureDefinition/Observation-resultslab-eu-lab"
          ]
        },
        "performer": [
          {
            "display": "The Central European Lab"
          }
        ],
        "category": [
          {
            "coding": [
              {
                "system": "http://terminology.hl7.org/CodeSystem/observation-category",
                "code": "laboratory"
              }
            ]
          }
        ],
        "code": {
          "coding": [
            {
              "code": "5794-3",
              "system": "http://loinc.org",
              "display": "Hemoglobin [Presence] in Urine by Test strip"
            }
          ],
          "text": "Hemoglobin [Presence] in Urine by Test strip"
        },
        "text": {
          "status": "generated",
          "div": "<div xmlns=\"http://www.w3.org/1999/xhtml\"><table class=\"hl7__eu__lab__report\"><tr><th>Test</th><th>07-Jul-2025</th><th>Reference&#xA0;Range</th><th>Unit</th></tr><tr><td>Hemoglobin [Presence] in Urine by Test strip</td></tr></table></div>"
        },
        "status": "final",
        "subject": {
          "reference": "urn:uuid:dfc420c5-17d3-4161-b686-8f7db7812755",
          "display": "Victor Lagarde"
        },
        "effectiveDateTime": "2025-07-07T07:04:18Z"
      }
    },
    {
      "fullUrl": "urn:uuid:b8a7bdac-3e37-4ac6-a633-eacbcad4639d",
      "resource": {
        "resourceType": "Observation",
        "id": "b8a7bdac-3e37-4ac6-a633-eacbcad4639d",
        "meta": {
          "profile": [
            "http://hl7.eu/fhir/laboratory/StructureDefinition/Observation-resultslab-eu-lab"
          ]
        },
        "performer": [
          {
            "display": "The Central European Lab"
          }
        ],
        "category": [
          {
            "coding": [
              {
                "system": "http://terminology.hl7.org/CodeSystem/observation-category",
                "code": "laboratory"
              }
            ]
          }
        ],
        "code": {
          "coding": [
            {
              "code": "5799-2",
              "system": "http://loinc.org",
              "display": "Leukocyte esterase [Presence] in Urine by Test strip"
            }
          ],
          "text": "Leukocyte esterase [Presence] in Urine by Test strip"
        },
        "text": {
          "status": "generated",
          "div": "<div xmlns=\"http://www.w3.org/1999/xhtml\"><table class=\"hl7__eu__lab__report\"><tr><th>Test</th><th>07-Jul-2025</th><th>Reference&#xA0;Range</th><th>Unit</th></tr><tr><td>Leukocyte esterase [Presence] in Urine by Test strip</td></tr></table></div>"
        },
        "status": "final",
        "subject": {
          "reference": "urn:uuid:dfc420c5-17d3-4161-b686-8f7db7812755",
          "display": "Victor Lagarde"
        },
        "effectiveDateTime": "2025-07-07T07:04:18Z"
      }
    },
    {
      "fullUrl": "urn:uuid:1a15eb58-d153-4662-91fb-e7ece2af66e1",
      "resource": {
        "resourceType": "DeviceUseStatement",
        "id": "1a15eb58-d153-4662-91fb-e7ece2af66e1",
        "meta": {
          "profile": [
            "http://hl7.eu/fhir/eps/StructureDefinition/deviceUseStatement-eu-eps"
          ]
        },
        "timingPeriod": {
          "start": "1969-01-10"
        },
        "text": {
          "status": "generated",
          "div": "<div xmlns=\"http://www.w3.org/1999/xhtml\"><table class=\"hl7__ips\"><tr><td>Home nebulizer (physical object)</td><td><span class=\"nb\">10-Jan-1969</span></td></tr></table></div>"
        },
        "status": "active",
        "device": {
          "reference": "urn:uuid:518baf0c-c4bf-4a5e-b737-f14adae32160",
          "display": "Home nebulizer (physical object)"
        },
        "subject": {
          "reference": "urn:uuid:dfc420c5-17d3-4161-b686-8f7db7812755",
          "display": "Victor Lagarde"
        }
      }
    },
    {
      "fullUrl": "urn:uuid:518baf0c-c4bf-4a5e-b737-f14adae32160",
      "resource": {
        "resourceType": "Device",
        "id": "518baf0c-c4bf-4a5e-b737-f14adae32160",
        "meta": {
          "profile": [
            "http://hl7.eu/fhir/eps/StructureDefinition/device-eu-eps"
          ]
        },
        "udiCarrier": [
          {
            "id": "(01)38849452376608(11)681220(17)940104(10)3769270091930002458(21)64400059791"
          }
        ],
        "status": "active",
        "patient": {
          "reference": "urn:uuid:dfc420c5-17d3-4161-b686-8f7db7812755",
          "display": "Victor Lagarde"
        },
        "type": {
          "coding": [
            {
              "code": "170615005",
              "system": "http://snomed.info/sct",
              "display": "Home nebulizer (physical object)"
            }
          ]
        }
      }
    },
    {
      "fullUrl": "urn:uuid:c4d5438c-c3ac-498c-b8ec-ae4501ddad65",
      "resource": {
        "resourceType": "DeviceUseStatement",
        "id": "c4d5438c-c3ac-498c-b8ec-ae4501ddad65",
        "meta": {
          "profile": [
            "http://hl7.eu/fhir/eps/StructureDefinition/deviceUseStatement-eu-eps"
          ]
        },
        "timingPeriod": {
          "start": "1963-08-30"
        },
        "text": {
          "status": "generated",
          "div": "<div xmlns=\"http://www.w3.org/1999/xhtml\"><table class=\"hl7__ips\"><tr><td>Blood glucose meter (physical object)</td><td><span class=\"nb\">30-Aug-1963</span></td></tr></table></div>"
        },
        "status": "active",
        "device": {
          "reference": "urn:uuid:a0f59275-5451-4481-b333-089805766705",
          "display": "Blood glucose meter (physical object)"
        },
        "subject": {
          "reference": "urn:uuid:dfc420c5-17d3-4161-b686-8f7db7812755",
          "display": "Victor Lagarde"
        }
      }
    },
    {
      "fullUrl": "urn:uuid:a0f59275-5451-4481-b333-089805766705",
      "resource": {
        "resourceType": "Device",
        "id": "a0f59275-5451-4481-b333-089805766705",
        "meta": {
          "profile": [
            "http://hl7.eu/fhir/eps/StructureDefinition/device-eu-eps"
          ]
        },
        "udiCarrier": [
          {
            "id": "(01)53530781095600(11)630809(17)880823(10)9217052(21)1976332"
          }
        ],
        "status": "active",
        "patient": {
          "reference": "urn:uuid:dfc420c5-17d3-4161-b686-8f7db7812755",
          "display": "Victor Lagarde"
        },
        "type": {
          "coding": [
            {
              "code": "337414009",
              "system": "http://snomed.info/sct",
              "display": "Blood glucose meter (physical object)"
            }
          ]
        }
      }
    },
    {
      "fullUrl": "urn:uuid:cd701316-22b6-49c0-b3de-7ec33abf3037",
      "resource": {
        "resourceType": "Device",
        "id": "cd701316-22b6-49c0-b3de-7ec33abf3037",
        "deviceName": [
          {
            "name": "SYNDERAI Synthetic Generator",
            "type": "manufacturer-name"
          }
        ],
        "version": [
          {
            "value": "5.0"
          }
        ],
        "text": {
          "status": "generated",
          "div": "<div xmlns=\"http://www.w3.org/1999/xhtml\">SYNDERAI Synthetic Generator v5.0</div>"
        },
        "status": "active\"",
        "distinctIdentifier": "synderai-generator-50",
        "manufacturer": "SYNDERAI Project"
      }
    },
    {
      "fullUrl": "urn:uuid:1d062a5a-2828-4afd-8404-115758d70b1b",
      "resource": {
        "resourceType": "Provenance",
        "id": "1d062a5a-2828-4afd-8404-115758d70b1b",
        "target": [
          {
            "reference": "Patient/dfc420c5-17d3-4161-b686-8f7db7812755"
          },
          {
            "reference": "Bundle/4722eb93-5b75-47cb-8da0-8a9983547102"
          },
          {
            "reference": "Composition/f5c97989-1c9f-4846-8a96-03c720c1aa08"
          },
          {
            "reference": "PractitionerRole/af211ede-45c6-4a5b-a990-26d574e4d82c"
          },
          {
            "reference": "Organization/cb21b33f-9ad4-4b48-bd45-01ff999c3e71"
          },
          {
            "reference": "Practitioner/21f73fcc-96d8-4e8a-8b9f-5297d4171f10"
          }
        ],
        "activity": {
          "text": "Synthetic Example Data Generation"
        },
        "policy": [
          "https://synderai.net/synderai-synthetic-data-policy"
        ],
        "agent": [
          {
            "type": {
              "text": "author"
            },
            "who": {
              "reference": "Device/cd701316-22b6-49c0-b3de-7ec33abf3037"
            }
          }
        ],
        "reason": [
          {
            "text": "Interoperability Testing and Training (non-clinical use)"
          }
        ],
        "text": {
          "status": "generated",
          "div": "<div xmlns=\"http://www.w3.org/1999/xhtml\">Provenance for SYNDERAI Synthetic Example Data Resource</div>"
        },
        "recorded": "2025-07-07T07:04:18Z"
      }
    }
  ],
  "type": "document",
  "timestamp": "2025-07-07T07:04:18Z"
}
