{
  "resourceType": "Bundle",
  "id": "c00c1705-1121-4e54-93e5-496e31502e8e",
  "meta": {
    "profile": [
      "http://hl7.eu/fhir/eps/StructureDefinition/bundle-eu-eps"
    ]
  },
  "identifier": {
    "assigner": {
      "display": "HL7 Europe"
    },
    "system": "urn:oid:2.16.840.1.113883.2.51.999",
    "value": "edfacc22-c03a-46b6-bc92-b0b7d423a7d0"
  },
  "entry": [
    {
      "fullUrl": "urn:uuid:437678c0-121b-4b5b-9fc9-ccb84ae02a4f",
      "resource": {
        "resourceType": "Composition",
        "id": "437678c0-121b-4b5b-9fc9-ccb84ae02a4f",
        "meta": {
          "security": [
            {
              "system": "http://terminology.hl7.org/CodeSystem/v3-ActReason",
              "code": "HTEST"
            },
            {
              "system": "http://terminology.hl7.org/CodeSystem/v3-ActReason",
              "code": "TRAIN"
            }
          ],
          "tag": [
            {
              "system": "https://synderai.net/fhir/CodeSystem/tags",
              "code": "synthetic",
              "display": "SYNDERAI Synthetic data"
            }
          ],
          "profile": [
            "http://hl7.eu/fhir/eps/StructureDefinition/composition-eu-eps"
          ]
        },
        "identifier": {
          "assigner": {
            "display": "HL7 Europe"
          },
          "system": "urn:oid:2.16.840.1.113883.2.51.999",
          "value": "55cc768b-6064-4ada-bdee-682ca20b5510"
        },
        "type": {
          "coding": [
            {
              "system": "http://loinc.org",
              "code": "60591-5",
              "display": "Patient summary Document"
            }
          ],
          "text": "Patient summary Document"
        },
        "author": [
          {
            "reference": "urn:uuid:0b9ed570-50cc-43b0-96b0-1ec431e849ab"
          }
        ],
        "section": [
          {
            "text": {
              "status": "generated",
              "div": "<div xmlns=\"http://www.w3.org/1999/xhtml\"><table class=\"hl7__ips\"><tr><th>Condition</th><th>Onset Date</th><th>Status</th></tr><tr><td>Metabolic syndrome X</td><td><span class=\"nb\">18-Oct-2017</span></td><td>active</td></tr><tr><td>Chronic kidney disease stage 3</td><td><span class=\"nb\">04-Jan-2017</span></td><td>active</td></tr><tr><td>Proteinuria due to type 2 diabetes mellitus</td><td><span class=\"nb\">04-Jan-2017</span></td><td>active</td></tr><tr><td>Chronic kidney disease stage 2</td><td><span class=\"nb\">13-May-2015</span></td><td>active</td></tr><tr><td>Microalbuminuria due to type 2 diabetes mellitus</td><td><span class=\"nb\">13-May-2015</span></td><td>active</td></tr><tr><td>Disorder of kidney due to diabetes mellitus</td><td><span class=\"nb\">01-Oct-2014</span></td><td>active</td></tr><tr><td>Chronic kidney disease stage 1</td><td><span class=\"nb\">01-Oct-2014</span></td><td>active</td></tr><tr><td>Essential hypertension</td><td><span class=\"nb\">01-Jul-1998</span></td><td>active</td></tr><tr><td>Prediabetes</td><td><span class=\"nb\">26-Jan-1994</span></td><td>active</td></tr><tr><td>Anemia</td><td><span class=\"nb\">26-Jan-1994</span></td><td>active</td></tr></table></div>"
            },
            "entry": [
              {
                "reference": "urn:uuid:a9b41fbd-0360-445b-b21c-db4a3355ff29"
              },
              {
                "reference": "urn:uuid:b52804f2-bebd-4d76-863e-23f483795323"
              },
              {
                "reference": "urn:uuid:988b29f6-8ee1-4ee5-ae7d-8597bb63e9c3"
              },
              {
                "reference": "urn:uuid:f8587b50-d139-4812-82fa-375ff5513c3b"
              },
              {
                "reference": "urn:uuid:8c444747-7319-4cfe-8e11-cf42a02c6e0b"
              },
              {
                "reference": "urn:uuid:abcb31a0-d159-465b-8e82-c96796d8282b"
              },
              {
                "reference": "urn:uuid:c68b086e-fb15-40b8-abd5-40ec6cad518b"
              },
              {
                "reference": "urn:uuid:898987b6-d7b8-4c03-90d8-755f7b25d671"
              },
              {
                "reference": "urn:uuid:713fabb2-14aa-4968-871f-90943ae759b2"
              },
              {
                "reference": "urn:uuid:9a3b094a-33ef-4e4f-a154-e98108a388d2"
              }
            ],
            "code": {
              "coding": [
                {
                  "system": "http://loinc.org",
                  "code": "11450-4",
                  "display": "Problem list - Reported"
                }
              ]
            },
            "title": "Problem list"
          },
          {
            "text": {
              "status": "generated",
              "div": "<div xmlns=\"http://www.w3.org/1999/xhtml\"><table class=\"hl7__ips\"><tr><th>Medication</th><th>Since</th><th>Form</th><th>Dosage</th><th>Reason</th></tr><tr><td>insulin isophane human 70 UNT/ML / insulin regular human 30 UNT/ML Injectable Suspension [Humulin]</td><td><span class=\"nb\">2025-06-18</span></td><td>-</td><td>Inject 10 units subcutaneously before breakfast and 10 units before dinner</td><td>Prediabetes</td></tr><tr><td>Amlodipine (as amlodipine besylate) 2.5 mg oral tablet</td><td><span class=\"nb\">2025-06-18</span></td><td>-</td><td>1 tablet (2.5 mg) by mouth once daily</td><td>Essential hypertension (disorder)</td></tr><tr><td>Hydrochlorothiazide 25 mg oral tablet</td><td><span class=\"nb\">2025-06-18</span></td><td>-</td><td>1 tablet (25 mg) by mouth once daily</td><td>Essential hypertension (disorder)</td></tr><tr><td>Lisinopril 10 mg oral tablet</td><td><span class=\"nb\">2025-06-18</span></td><td>-</td><td>1 tablet (10 mg) by mouth once daily</td><td>Essential hypertension (disorder)</td></tr></table></div>"
            },
            "entry": [
              {
                "reference": "urn:uuid:0dfff676-8d82-4bdb-a42c-614d6883a0f5"
              },
              {
                "reference": "urn:uuid:0730414e-66d6-4327-a203-40aa04c3b1c4"
              },
              {
                "reference": "urn:uuid:0c84d388-5824-4935-9f8b-be1ad2d502b3"
              },
              {
                "reference": "urn:uuid:e2ada2ff-5f0b-4a55-8470-c841bfc5880f"
              }
            ],
            "code": {
              "coding": [
                {
                  "system": "http://loinc.org",
                  "code": "10160-0",
                  "display": "History of Medication use Narrative"
                }
              ]
            },
            "title": "Medication list"
          },
          {
            "text": {
              "status": "generated",
              "div": "<div xmlns=\"http://www.w3.org/1999/xhtml\"><table class=\"hl7__ips\"><tr><th>Vaccine</th><th>Date</th></tr><tr><td>Influenza virus antigen only vaccine product</td><td><span class=\"nb\">27-Nov-2024</span></td></tr><tr><td>Clostridium tetani toxoid antigen adsorbed only vaccine product</td><td><span class=\"nb\">22-May-2024</span></td></tr><tr><td>Live attenuated Human alphaherpesvirus 3 only vaccine product</td><td><span class=\"nb\">22-Nov-2023</span></td></tr><tr><td>SARS-CoV-2 mRNA vaccine</td><td><span class=\"nb\">28-Apr-2021</span></td></tr></table></div>"
            },
            "entry": [
              {
                "reference": "urn:uuid:b30e8d49-d33b-4e32-b518-65a9a892f64e"
              },
              {
                "reference": "urn:uuid:f2202659-4b9d-4c79-a302-4b27387d9974"
              },
              {
                "reference": "urn:uuid:322294ce-8dc2-430a-81e5-cfd3aed636e8"
              },
              {
                "reference": "urn:uuid:579bd9fb-e923-4c31-8ca4-2fa664315bbc"
              }
            ],
            "code": {
              "coding": [
                {
                  "system": "http://loinc.org",
                  "code": "11369-6",
                  "display": "History of Immunization note"
                }
              ]
            },
            "title": "Immunizations list"
          },
          {
            "text": {
              "status": "generated",
              "div": "<div xmlns=\"http://www.w3.org/1999/xhtml\"><table class=\"hl7__ips\"><tr><th>Procedure</th><th>Date</th><th>Reason</th></tr><tr><td>Medication reconciliation</td><td><span class=\"nb\">20-Dec-2023</span></td><td>-</td></tr><tr><td>Depression screening</td><td><span class=\"nb\">13-Dec-2023</span></td><td>-</td></tr><tr><td>Assessment of health and social care needs</td><td><span class=\"nb\">13-Dec-2023</span></td><td>-</td></tr><tr><td>Depression screening using Patient Health Questionnaire Two-Item score (procedure)</td><td><span class=\"nb\">13-Dec-2023</span></td><td>-</td></tr><tr><td>Assessment of anxiety</td><td><span class=\"nb\">03-Aug-2022</span></td><td>-</td></tr><tr><td>Screening for drug abuse</td><td><span class=\"nb\">20-Mar-2019</span></td><td>-</td></tr><tr><td>Screening for domestic abuse</td><td><span class=\"nb\">20-Mar-2019</span></td><td>-</td></tr><tr><td>Assessment of substance use</td><td><span class=\"nb\">20-Mar-2019</span></td><td>-</td></tr><tr><td>Depression screening using PHQ-9 (Patient Health Questionnaire 9) score</td><td><span class=\"nb\">13-Feb-2019</span></td><td>-</td></tr></table></div>"
            },
            "entry": [
              {
                "reference": "urn:uuid:969a56f7-2311-436d-bcdf-66e3122166ec"
              },
              {
                "reference": "urn:uuid:53f3b05d-c966-4f8d-b06d-a76b0f2857d6"
              },
              {
                "reference": "urn:uuid:d75c0e61-869d-4146-84c8-b57107bcaae0"
              },
              {
                "reference": "urn:uuid:d9b34d0b-b580-4abf-915c-536aa9aba045"
              },
              {
                "reference": "urn:uuid:2e1165d5-7b1d-4dfa-90f4-62360ef9a2c5"
              },
              {
                "reference": "urn:uuid:1a8a6dba-669a-45f1-a70e-cfd03f40f986"
              },
              {
                "reference": "urn:uuid:cf242298-9701-4a49-9d69-7611a8585ad6"
              },
              {
                "reference": "urn:uuid:9adb57ee-3278-4afc-957f-1a3a9ce8493d"
              },
              {
                "reference": "urn:uuid:0b1d5d8b-a87c-4308-bc85-810dae7a622b"
              }
            ],
            "code": {
              "coding": [
                {
                  "system": "http://loinc.org",
                  "code": "47519-4",
                  "display": "History of Procedures Document"
                }
              ]
            },
            "title": "Procedure History list"
          },
          {
            "text": {
              "status": "generated",
              "div": "<div xmlns=\"http://www.w3.org/1999/xhtml\"><table class=\"hl7__ips\"><tr><th>Allergy/Intolerance</th><th>Onset Date</th><th>Status</th><th>Type</th><th>Reaction</th></tr><tr><td></td><td>?</td><td>active</td><td>?</td><td></td></tr></table></div>"
            },
            "entry": [
              {
                "reference": "urn:uuid:268dd0f3-1725-49b5-bd48-f507af2dd026"
              }
            ],
            "code": {
              "coding": [
                {
                  "system": "http://loinc.org",
                  "code": "48765-2",
                  "display": "Allergies and adverse reactions Document"
                }
              ]
            },
            "title": "Allergies and Intolerances"
          },
          {
            "text": {
              "status": "generated",
              "div": "<div xmlns=\"http://www.w3.org/1999/xhtml\"><table class=\"hl7__ips\"><tr><th>Active Planned Care / Goals</th><th>Start Date</th><th>Reason</th></tr><tr><td>Lifestyle education regarding hypertension</td><td><span class=\"nb\">01-Jul-1998</span></td><td>Essential hypertension (disorder)</td></tr><tr><td><ul><li>Maintain blood pressure below 130/80 mmHg to reduce risk of cardiovascular and renal complications.</li><li>Achieve at least 5% reduction in body weight to improve blood pressure control.</li><li>Limit sodium intake to less than 2.3 grams per day to support blood pressure management.</li><li>Engage in at least 150 minutes per week of moderate-intensity aerobic physical activity.</li></ul></td><td></td><td></td></tr><tr><td>Diabetes self management plan</td><td><span class=\"nb\">26-Jan-1994</span></td><td>Prediabetes</td></tr><tr><td><ul><li>Patient will participate in a diabetes self-management program to improve knowledge and skills for prediabetes management.</li><li>Patient will achieve a 5% reduction in baseline body weight to reduce risk of progression to diabetes.</li><li>Patient will maintain hemoglobin A1c below 6.5% to prevent progression to diabetes.</li><li>Patient will engage in at least 150 minutes per week of moderate-intensity physical activity.</li><li>Patient will follow a diet low in refined carbohydrates and saturated fats to support glycemic control.</li></ul></td><td></td><td></td></tr></table></div>"
            },
            "entry": [
              {
                "reference": "urn:uuid:0b557dc2-7f0d-4c78-90eb-c9143126e25a"
              },
              {
                "reference": "urn:uuid:6dab3610-82be-4568-9b05-3fe152ae2a44"
              }
            ],
            "code": {
              "coding": [
                {
                  "system": "http://loinc.org",
                  "code": "18776-5",
                  "display": "Plan of care note"
                }
              ]
            },
            "title": "Care Plan"
          },
          {
            "text": {
              "status": "generated",
              "div": "<div xmlns=\"http://www.w3.org/1999/xhtml\"><table class=\"hl7__ips\"><tr><th>Vital Signs</th><th>2025-06-18</th><th>2025-04-23</th></tr><tr><td>Body Height</td><td>187.3 cm</td><td>187.3 cm</td></tr><tr><td>Pain severity - 0-10 verbal numeric rating [Score] - Reported</td><td>0 {score}</td><td>3 {score}</td></tr><tr><td>Body Weight</td><td>101.8 kg</td><td>101.5 kg</td></tr><tr><td>Body mass index (BMI) [Ratio]</td><td>29 kg/m2</td><td>28.9 kg/m2</td></tr><tr><td>Diastolic Blood Pressure</td><td>78 mm[Hg]</td><td>82 mm[Hg]</td></tr><tr><td>Systolic Blood Pressure</td><td>102 mm[Hg]</td><td>95 mm[Hg]</td></tr><tr><td>Heart rate</td><td>95 /min</td><td>94 /min</td></tr><tr><td>Respiratory rate</td><td>12 /min</td><td>15 /min</td></tr></table></div>"
            },
            "entry": [
              {
                "reference": "urn:uuid:87a7df0f-7344-4c83-8429-61e8cf5c369f"
              },
              {
                "reference": "urn:uuid:46a56b0a-f143-4cfb-ab66-1a42fb4a0593"
              },
              {
                "reference": "urn:uuid:58de3d17-cd09-45ac-9ddb-df6329fc9dfd"
              },
              {
                "reference": "urn:uuid:a61945b7-4710-4d86-bddd-64f60e423c87"
              },
              {
                "reference": "urn:uuid:eaac3a46-ac73-45ce-bcf0-abce0a8da6c6"
              },
              {
                "reference": "urn:uuid:bba5c8b7-21a4-4032-895a-e8c891877a3f"
              },
              {
                "reference": "urn:uuid:0621cd74-78ad-4df9-9a50-fa431d3e0bf3"
              },
              {
                "reference": "urn:uuid:56c21a7c-9465-4803-8c64-b5107b31a743"
              },
              {
                "reference": "urn:uuid:4454e867-40a3-4071-b46f-9ad0cc4eae1f"
              },
              {
                "reference": "urn:uuid:446db8e9-af5f-498e-af92-48e5d8b4bba7"
              },
              {
                "reference": "urn:uuid:59d03ce8-ce75-434e-9f31-fe32dd701f3a"
              },
              {
                "reference": "urn:uuid:e2cee620-fd68-46aa-8122-29c0d56a757b"
              },
              {
                "reference": "urn:uuid:176abccf-a12c-4ef0-be99-4fa94a7d84ac"
              },
              {
                "reference": "urn:uuid:0f692ff3-893b-4d79-8b7d-e7c6e4c50d8c"
              },
              {
                "reference": "urn:uuid:12f4ba3b-88c9-4f10-826e-c710142e2e70"
              },
              {
                "reference": "urn:uuid:a34fca39-aeb6-41ce-adee-1b24000bb77a"
              }
            ],
            "code": {
              "coding": [
                {
                  "system": "http://loinc.org",
                  "code": "8716-3",
                  "display": "Vital signs note"
                }
              ]
            },
            "title": "Vital Signs"
          },
          {
            "text": {
              "status": "generated",
              "div": "<div xmlns=\"http://www.w3.org/1999/xhtml\"><table class=\"hl7__ips\"><table class=\"hl7__ips\"><thead><tr><th>Recent Lab Observations</th><th>18-JUN-2025</th><th>Reference&#xA0;Range</th><th>Unit</th></tr></thead><tbody><tr><td>Glucose [Mass/volume] in Serum or Plasma</td><td><strong>68.6 L</strong></td><td>70 - 140</td><td>mg/dL</td></tr><tr><td>Urea nitrogen [Mass/volume] in Serum or Plasma</td><td>19.4</td><td>7 - 20</td><td>mg/dL</td></tr><tr><td>Creatinine [Mass/volume] in Serum or Plasma</td><td><strong>2.0 H</strong></td><td>0.9 - 1.3</td><td>mg/dL</td></tr><tr><td>Calcium [Mass/volume] in Serum or Plasma</td><td>10.2</td><td>8.5 - 10.5</td><td>mg/dL</td></tr><tr><td>Sodium [Moles/volume] in Serum or Plasma</td><td>137.6</td><td>135 - 145</td><td>mmol/L</td></tr><tr><td>Potassium [Moles/volume] in Serum or Plasma</td><td>4.1</td><td>3.5 - 5</td><td>mmol/L</td></tr><tr><td>Chloride [Moles/volume] in Serum or Plasma</td><td><strong>109.1 H</strong></td><td>98 - 108</td><td>mmol/L</td></tr><tr><td>Carbon dioxide, total [Moles/volume] in Serum or Plasma</td><td><strong>21.8 L</strong></td><td>22 - 29</td><td>mmol/L</td></tr><tr><td>Appearance of Urine</td><td>Cloudy urine</td><td></td><td></td></tr><tr><td>Odor of Urine</td><td>Urine smell ammoniacal</td><td></td><td></td></tr><tr><td>Clarity of Urine</td><td>Translucent</td><td></td><td></td></tr><tr><td>Color of Urine</td><td>Brown color</td><td></td><td></td></tr><tr><td>Glucose [Mass/volume] in Urine by Test strip</td><td><strong>2.3 H</strong></td><td>0 - 0.8</td><td>mg/dL</td></tr><tr><td>Glucose [Presence] in Urine by Test strip</td><td>++</td><td></td><td></td></tr><tr><td>Bilirubin.total [Mass/volume] in Urine by Test strip</td><td>0.3</td><td>0.2 - 1</td><td>mg/dL</td></tr><tr><td>Bilirubin.total [Presence] in Urine by Test strip</td><td>Finding of bilirubin in urine</td><td></td><td></td></tr><tr><td>Ketones [Mass/volume] in Urine by Test strip</td><td><strong>16.5 H</strong></td><td>0 - 5</td><td>mg/dL</td></tr><tr><td>Ketones [Presence] in Urine by Test strip</td><td>Urine ketone test = ++</td><td></td><td></td></tr><tr><td>Specific gravity of Urine by Test strip</td><td><strong>1.0 L</strong></td><td>1.005 - 1.03</td><td>{nominal}</td></tr><tr><td>pH of Urine by Test strip</td><td>6.6</td><td>4.6 - 7</td><td>pH</td></tr><tr><td>Protein [Mass/volume] in Urine by Test strip</td><td><strong>243.1 H</strong></td><td>0 - 150</td><td>mg/dL</td></tr><tr><td>Protein [Presence] in Urine by Test strip</td><td>Urine protein test = ++</td><td></td><td></td></tr><tr><td>Nitrite [Presence] in Urine by Test strip</td><td>Urine nitrite negative</td><td></td><td></td></tr><tr><td>Hemoglobin [Presence] in Urine by Test strip</td><td>Urine blood test = negative</td><td></td><td></td></tr><tr><td>Leukocyte esterase [Presence] in Urine by Test strip</td><td>Urine leukocyte test negative</td><td></td><td></td></tr><tr><td>Hemoglobin A1c/Hemoglobin.total in Blood</td><td><strong>3.0 L</strong></td><td>4.3 - 6.4</td><td>%</td></tr><tr><td>Glucose [Mass/volume] in Blood</td><td><strong>68.6 L</strong></td><td>70 - 140</td><td>mg/dL</td></tr><tr><td>Urea nitrogen [Mass/volume] in Blood</td><td>19.4</td><td>7 - 20</td><td>mg/dL</td></tr><tr><td>Creatinine [Mass/volume] in Blood</td><td><strong>5.3 H</strong></td><td>0.6 - 1.3</td><td>mg/dL</td></tr><tr><td>Calcium [Mass/volume] in Blood</td><td>10.2</td><td>8.5 - 10.5</td><td>mg/dL</td></tr><tr><td>Sodium [Moles/volume] in Blood</td><td>137.6</td><td>135 - 145</td><td>mmol/L</td></tr><tr><td>Potassium [Moles/volume] in Blood</td><td>4.1</td><td>3.5 - 5.3</td><td>mmol/L</td></tr><tr><td>Chloride [Moles/volume] in Blood</td><td>109.1</td><td>98 - 110</td><td>mmol/L</td></tr><tr><td>Carbon dioxide, total [Moles/volume] in Blood</td><td><strong>21.8 L</strong></td><td>22 - 29</td><td>mmol/L</td></tr></tbody></table></table></div>"
            },
            "entry": [
              {
                "reference": "urn:uuid:a1126f69-7369-4191-a77f-ca11decad579"
              },
              {
                "reference": "urn:uuid:121f134a-550d-4e81-a2d8-19b3d3019d9d"
              },
              {
                "reference": "urn:uuid:3a6aabef-292c-4f9b-bb45-b25cbd2e56f9"
              },
              {
                "reference": "urn:uuid:8f2d05f9-c9e5-4574-9c2d-ef0b1f939532"
              },
              {
                "reference": "urn:uuid:2a0db867-dcff-49c3-b274-8777faa8c7c2"
              },
              {
                "reference": "urn:uuid:5b9a8b78-6a24-4e9b-8e5a-f486ca122344"
              },
              {
                "reference": "urn:uuid:aea654c1-ca0c-473f-a0bd-aa77d3ff3289"
              },
              {
                "reference": "urn:uuid:87e54a5b-367a-416e-a7be-20c117ffa758"
              },
              {
                "reference": "urn:uuid:c7957e29-90aa-4210-9294-38677a4c7867"
              },
              {
                "reference": "urn:uuid:87a796bc-6483-4194-b9da-4166ab9375c1"
              },
              {
                "reference": "urn:uuid:febf72a3-0afb-484f-a07a-8b8b8f40d063"
              },
              {
                "reference": "urn:uuid:a0a4ae84-91b4-42a1-a2c2-d9bff49644b3"
              },
              {
                "reference": "urn:uuid:373d3596-002d-491e-95a9-21138ee01463"
              },
              {
                "reference": "urn:uuid:e067647c-e132-4ee2-b03b-f6c1facab525"
              },
              {
                "reference": "urn:uuid:fc128aa4-6417-4674-9189-7a15c96503aa"
              },
              {
                "reference": "urn:uuid:b5f87fe4-2438-417f-b057-c98a2f22e3bc"
              },
              {
                "reference": "urn:uuid:5c6d374f-a704-4496-abc0-22d9497f43af"
              },
              {
                "reference": "urn:uuid:0e4050f2-aa39-4b9c-a60c-df42811e011d"
              },
              {
                "reference": "urn:uuid:5ec3b65d-bd0e-4cfe-984d-f668a4a24883"
              },
              {
                "reference": "urn:uuid:45740288-8e85-4aab-a0fc-95c1d37b450a"
              },
              {
                "reference": "urn:uuid:94267860-e3c3-40a5-b06d-e804be8c57f0"
              },
              {
                "reference": "urn:uuid:a6e477fa-6e32-4dbc-b421-64d901f244ee"
              },
              {
                "reference": "urn:uuid:63d7f9f4-5ba1-4eda-a583-20a5f0803325"
              },
              {
                "reference": "urn:uuid:9f37e604-4bf6-4daa-82b9-7127779e4128"
              },
              {
                "reference": "urn:uuid:1dad6d97-abfb-4b0d-8bbc-f15e3abdf94d"
              },
              {
                "reference": "urn:uuid:d1e15f06-e22e-4cca-9b20-17fadf96b710"
              },
              {
                "reference": "urn:uuid:3a773426-ff03-4951-b09e-634d751a34b6"
              },
              {
                "reference": "urn:uuid:9f14b133-d2fb-4f63-b6d6-ae3161c8dc0f"
              },
              {
                "reference": "urn:uuid:ba3a8cce-a68f-4a3d-843d-18b1ea8f5fb1"
              },
              {
                "reference": "urn:uuid:b25702da-ca3e-4455-91e7-fc9e85815acb"
              },
              {
                "reference": "urn:uuid:c0492a43-f8b8-46ee-8d6f-46ef4c0fa0a0"
              },
              {
                "reference": "urn:uuid:2eabd5a8-d6c2-45e4-ade7-561601b38be9"
              },
              {
                "reference": "urn:uuid:a0317675-4749-4fe7-a0df-7cf67f94a9b0"
              },
              {
                "reference": "urn:uuid:21667788-f6ee-41b0-8ec5-a2916b26bbd2"
              }
            ],
            "code": {
              "coding": [
                {
                  "system": "http://loinc.org",
                  "code": "30954-2",
                  "display": "Relevant diagnostic tests/laboratory data note"
                }
              ]
            },
            "title": "Relevant diagnostic tests/laboratory data"
          },
          {
            "text": {
              "status": "generated",
              "div": "<div xmlns=\"http://www.w3.org/1999/xhtml\"><table class=\"hl7__ips\"><tr><th>Device</th><th>Date (since)</th></tr><tr><td>Blood glucose meter (physical object)</td><td><span class=\"nb\">26-Jan-1994</span></td></tr></table></div>"
            },
            "entry": [
              {
                "reference": "urn:uuid:31e91f2a-a8cd-4fac-af3f-e0520418ea8a"
              }
            ],
            "code": {
              "coding": [
                {
                  "system": "http://loinc.org",
                  "code": "46264-8",
                  "display": "History of medical device use"
                }
              ]
            },
            "title": "Device Use"
          }
        ],
        "title": "European Patient Summary",
        "status": "final",
        "subject": {
          "reference": "urn:uuid:430d9c55-ab93-4845-8adc-dc58c90b9d13",
          "display": "Θεμιστοκλής Λιναρδάκη"
        },
        "custodian": {
          "reference": "urn:uuid:42315baa-2836-46f3-94cf-7c7949930a0c"
        },
        "date": "2025-06-18",
        "confidentiality": "N"
      }
    },
    {
      "fullUrl": "urn:uuid:430d9c55-ab93-4845-8adc-dc58c90b9d13",
      "resource": {
        "resourceType": "Patient",
        "id": "430d9c55-ab93-4845-8adc-dc58c90b9d13",
        "meta": {
          "security": [
            {
              "system": "http://terminology.hl7.org/CodeSystem/v3-ActReason",
              "code": "HTEST"
            },
            {
              "system": "http://terminology.hl7.org/CodeSystem/v3-ActReason",
              "code": "TRAIN"
            }
          ],
          "tag": [
            {
              "system": "https://synderai.net/fhir/CodeSystem/tags",
              "code": "synthetic",
              "display": "SYNDERAI Synthetic data"
            }
          ],
          "profile": [
            "http://hl7.eu/fhir/eps/StructureDefinition/patient-eu-eps"
          ]
        },
        "identifier": [
          {
            "type": {
              "coding": [
                {
                  "code": "PT",
                  "system": "http://terminology.hl7.org/CodeSystem/v2-0203"
                }
              ]
            },
            "system": "http://ec.europa.eu/identifier/eci",
            "value": "5962-476889-7"
          },
          {
            "type": {
              "coding": [
                {
                  "code": "MR",
                  "system": "http://terminology.hl7.org/CodeSystem/v2-0203"
                }
              ]
            },
            "system": "http://local.setting.eu/identifier",
            "value": "925e2603-2ef9-6bdf-1330-2ebf526636c4"
          }
        ],
        "name": [
          {
            "family": "Λιναρδάκη"
          },
          {
            "given": [
              "Θεμιστοκλής"
            ]
          },
          {
            "text": "Θεμιστοκλής Λιναρδάκη"
          }
        ],
        "address": [
          {
            "line": [
              "Αμαρύνθου 54-58"
            ],
            "use": "home",
            "type": "physical",
            "postalCode": "262 21",
            "city": "Πάτρα",
            "country": "Greece"
          }
        ],
        "telecom": [
          {
            "system": "phone",
            "value": "+302226364480"
          }
        ],
        "extension": [
          {
            "url": "http://hl7.org/fhir/StructureDefinition/patient-nationality",
            "valueCodeableConcept": {
              "coding": [
                {
                  "code": "GR",
                  "system": "http://hl7.org/fhir/ValueSet/country"
                }
              ]
            }
          }
        ],
        "text": {
          "status": "generated",
          "div": "<div xmlns=\"http://www.w3.org/1999/xhtml\"><table class=\"hl7__ips\"><tr><td>Θεμιστοκλής Λιναρδάκη</td><td>male</td><td>21-Jan-1974</td></tr></table></div>"
        },
        "gender": "male",
        "birthDate": "1974-01-21"
      }
    },
    {
      "fullUrl": "urn:uuid:0b9ed570-50cc-43b0-96b0-1ec431e849ab",
      "resource": {
        "resourceType": "PractitionerRole",
        "id": "0b9ed570-50cc-43b0-96b0-1ec431e849ab",
        "meta": {
          "profile": [
            "http://hl7.eu/fhir/base/StructureDefinition/practitionerRole-eu"
          ]
        },
        "text": {
          "status": "generated",
          "div": "<div xmlns=\"http://www.w3.org/1999/xhtml\"><table class=\"hl7__ips\">Provider Role Id 0b9ed570-50cc-43b0-96b0-1ec431e849ab</table></div>"
        },
        "practitioner": {
          "reference": "urn:uuid:b06a6008-6c77-4fc9-87bc-698d8d195b2d"
        },
        "organization": {
          "reference": "urn:uuid:42315baa-2836-46f3-94cf-7c7949930a0c"
        }
      }
    },
    {
      "fullUrl": "urn:uuid:b06a6008-6c77-4fc9-87bc-698d8d195b2d",
      "resource": {
        "resourceType": "Practitioner",
        "id": "b06a6008-6c77-4fc9-87bc-698d8d195b2d",
        "meta": {
          "profile": [
            "http://hl7.eu/fhir/base/StructureDefinition/practitioner-eu"
          ]
        },
        "name": [
          {
            "prefix": [
              "Dr."
            ],
            "given": [
              "Hel"
            ],
            "family": "Ping"
          }
        ],
        "text": {
          "status": "generated",
          "div": "<div xmlns=\"http://www.w3.org/1999/xhtml\"><table class=\"hl7__ips\">Dr. Hel Ping</table></div>"
        }
      }
    },
    {
      "fullUrl": "urn:uuid:42315baa-2836-46f3-94cf-7c7949930a0c",
      "resource": {
        "resourceType": "Organization",
        "id": "42315baa-2836-46f3-94cf-7c7949930a0c",
        "meta": {
          "profile": [
            "http://hl7.eu/fhir/base/StructureDefinition/organization-eu"
          ]
        },
        "identifier": [
          {
            "assigner": {
              "display": "HL7 Europe"
            },
            "system": "urn:oid:2.16.840.1.113883.2.51.999",
            "value": "ca8afd88-d98f-4d28-ad1d-0ac42efaaae3"
          }
        ],
        "address": [
          {
            "line": [
              "211 Odós Filellinon"
            ],
            "city": "Patras",
            "postalCode": "262 21",
            "country": "Greece"
          }
        ],
        "text": {
          "status": "generated",
          "div": "<div xmlns=\"http://www.w3.org/1999/xhtml\"><table class=\"hl7__ips\">Dr. Dimitris Economou</table></div>"
        },
        "name": "Dr. Dimitris Economou"
      }
    },
    {
      "fullUrl": "urn:uuid:a9b41fbd-0360-445b-b21c-db4a3355ff29",
      "resource": {
        "resourceType": "Condition",
        "id": "a9b41fbd-0360-445b-b21c-db4a3355ff29",
        "meta": {
          "profile": [
            "http://hl7.org/fhir/uv/ips/StructureDefinition/Condition-uv-ips"
          ]
        },
        "category": [
          {
            "coding": [
              {
                "code": "problem-list-item",
                "system": "http://terminology.hl7.org/CodeSystem/condition-category",
                "display": "Problem List Item"
              }
            ]
          }
        ],
        "code": {
          "coding": [
            {
              "code": "237602007",
              "system": "http://snomed.info/sct",
              "display": "Metabolic syndrome X (disorder)"
            }
          ],
          "text": "Metabolic syndrome X"
        },
        "text": {
          "status": "generated",
          "div": "<div xmlns=\"http://www.w3.org/1999/xhtml\"><table class=\"hl7__ips\"><tr><td>Metabolic syndrome X</td><td><span class=\"nb\">18-Oct-2017</span></td><td>active</td></tr></table></div>"
        },
        "onsetDateTime": "2017-10-18",
        "subject": {
          "reference": "urn:uuid:",
          "display": "Θεμιστοκλής Λιναρδάκη"
        },
        "asserter": {
          "reference": "urn:uuid:",
          "display": "Dr. Dimitris Economou"
        }
      }
    },
    {
      "fullUrl": "urn:uuid:b52804f2-bebd-4d76-863e-23f483795323",
      "resource": {
        "resourceType": "Condition",
        "id": "b52804f2-bebd-4d76-863e-23f483795323",
        "meta": {
          "profile": [
            "http://hl7.org/fhir/uv/ips/StructureDefinition/Condition-uv-ips"
          ]
        },
        "category": [
          {
            "coding": [
              {
                "code": "problem-list-item",
                "system": "http://terminology.hl7.org/CodeSystem/condition-category",
                "display": "Problem List Item"
              }
            ]
          }
        ],
        "code": {
          "coding": [
            {
              "code": "433144002",
              "system": "http://snomed.info/sct",
              "display": "Chronic kidney disease stage 3 (disorder)"
            }
          ],
          "text": "Chronic kidney disease stage 3"
        },
        "text": {
          "status": "generated",
          "div": "<div xmlns=\"http://www.w3.org/1999/xhtml\"><table class=\"hl7__ips\"><tr><td>Chronic kidney disease stage 3</td><td><span class=\"nb\">04-Jan-2017</span></td><td>active</td></tr></table></div>"
        },
        "onsetDateTime": "2017-01-04",
        "subject": {
          "reference": "urn:uuid:",
          "display": "Θεμιστοκλής Λιναρδάκη"
        },
        "asserter": {
          "reference": "urn:uuid:",
          "display": "Dr. Dimitris Economou"
        }
      }
    },
    {
      "fullUrl": "urn:uuid:988b29f6-8ee1-4ee5-ae7d-8597bb63e9c3",
      "resource": {
        "resourceType": "Condition",
        "id": "988b29f6-8ee1-4ee5-ae7d-8597bb63e9c3",
        "meta": {
          "profile": [
            "http://hl7.org/fhir/uv/ips/StructureDefinition/Condition-uv-ips"
          ]
        },
        "category": [
          {
            "coding": [
              {
                "code": "problem-list-item",
                "system": "http://terminology.hl7.org/CodeSystem/condition-category",
                "display": "Problem List Item"
              }
            ]
          }
        ],
        "code": {
          "coding": [
            {
              "code": "157141000119108",
              "system": "http://snomed.info/sct",
              "display": "Proteinuria due to type 2 diabetes mellitus (disorder)"
            }
          ],
          "text": "Proteinuria due to type 2 diabetes mellitus"
        },
        "text": {
          "status": "generated",
          "div": "<div xmlns=\"http://www.w3.org/1999/xhtml\"><table class=\"hl7__ips\"><tr><td>Proteinuria due to type 2 diabetes mellitus</td><td><span class=\"nb\">04-Jan-2017</span></td><td>active</td></tr></table></div>"
        },
        "onsetDateTime": "2017-01-04",
        "subject": {
          "reference": "urn:uuid:",
          "display": "Θεμιστοκλής Λιναρδάκη"
        },
        "asserter": {
          "reference": "urn:uuid:",
          "display": "Dr. Dimitris Economou"
        }
      }
    },
    {
      "fullUrl": "urn:uuid:f8587b50-d139-4812-82fa-375ff5513c3b",
      "resource": {
        "resourceType": "Condition",
        "id": "f8587b50-d139-4812-82fa-375ff5513c3b",
        "meta": {
          "profile": [
            "http://hl7.org/fhir/uv/ips/StructureDefinition/Condition-uv-ips"
          ]
        },
        "category": [
          {
            "coding": [
              {
                "code": "problem-list-item",
                "system": "http://terminology.hl7.org/CodeSystem/condition-category",
                "display": "Problem List Item"
              }
            ]
          }
        ],
        "code": {
          "coding": [
            {
              "code": "431856006",
              "system": "http://snomed.info/sct",
              "display": "Chronic kidney disease stage 2 (disorder)"
            }
          ],
          "text": "Chronic kidney disease stage 2"
        },
        "text": {
          "status": "generated",
          "div": "<div xmlns=\"http://www.w3.org/1999/xhtml\"><table class=\"hl7__ips\"><tr><td>Chronic kidney disease stage 2</td><td><span class=\"nb\">13-May-2015</span></td><td>active</td></tr></table></div>"
        },
        "onsetDateTime": "2015-05-13",
        "subject": {
          "reference": "urn:uuid:",
          "display": "Θεμιστοκλής Λιναρδάκη"
        },
        "asserter": {
          "reference": "urn:uuid:",
          "display": "Dr. Dimitris Economou"
        }
      }
    },
    {
      "fullUrl": "urn:uuid:8c444747-7319-4cfe-8e11-cf42a02c6e0b",
      "resource": {
        "resourceType": "Condition",
        "id": "8c444747-7319-4cfe-8e11-cf42a02c6e0b",
        "meta": {
          "profile": [
            "http://hl7.org/fhir/uv/ips/StructureDefinition/Condition-uv-ips"
          ]
        },
        "category": [
          {
            "coding": [
              {
                "code": "problem-list-item",
                "system": "http://terminology.hl7.org/CodeSystem/condition-category",
                "display": "Problem List Item"
              }
            ]
          }
        ],
        "code": {
          "coding": [
            {
              "code": "90781000119102",
              "system": "http://snomed.info/sct",
              "display": "Microalbuminuria due to type 2 diabetes mellitus (disorder)"
            }
          ],
          "text": "Microalbuminuria due to type 2 diabetes mellitus"
        },
        "text": {
          "status": "generated",
          "div": "<div xmlns=\"http://www.w3.org/1999/xhtml\"><table class=\"hl7__ips\"><tr><td>Microalbuminuria due to type 2 diabetes mellitus</td><td><span class=\"nb\">13-May-2015</span></td><td>active</td></tr></table></div>"
        },
        "onsetDateTime": "2015-05-13",
        "subject": {
          "reference": "urn:uuid:",
          "display": "Θεμιστοκλής Λιναρδάκη"
        },
        "asserter": {
          "reference": "urn:uuid:",
          "display": "Dr. Dimitris Economou"
        }
      }
    },
    {
      "fullUrl": "urn:uuid:abcb31a0-d159-465b-8e82-c96796d8282b",
      "resource": {
        "resourceType": "Condition",
        "id": "abcb31a0-d159-465b-8e82-c96796d8282b",
        "meta": {
          "profile": [
            "http://hl7.org/fhir/uv/ips/StructureDefinition/Condition-uv-ips"
          ]
        },
        "category": [
          {
            "coding": [
              {
                "code": "problem-list-item",
                "system": "http://terminology.hl7.org/CodeSystem/condition-category",
                "display": "Problem List Item"
              }
            ]
          }
        ],
        "code": {
          "coding": [
            {
              "code": "127013003",
              "system": "http://snomed.info/sct",
              "display": "Disorder of kidney due to diabetes mellitus (disorder)"
            }
          ],
          "text": "Disorder of kidney due to diabetes mellitus"
        },
        "text": {
          "status": "generated",
          "div": "<div xmlns=\"http://www.w3.org/1999/xhtml\"><table class=\"hl7__ips\"><tr><td>Disorder of kidney due to diabetes mellitus</td><td><span class=\"nb\">01-Oct-2014</span></td><td>active</td></tr></table></div>"
        },
        "onsetDateTime": "2014-10-01",
        "subject": {
          "reference": "urn:uuid:",
          "display": "Θεμιστοκλής Λιναρδάκη"
        },
        "asserter": {
          "reference": "urn:uuid:",
          "display": "Dr. Dimitris Economou"
        }
      }
    },
    {
      "fullUrl": "urn:uuid:c68b086e-fb15-40b8-abd5-40ec6cad518b",
      "resource": {
        "resourceType": "Condition",
        "id": "c68b086e-fb15-40b8-abd5-40ec6cad518b",
        "meta": {
          "profile": [
            "http://hl7.org/fhir/uv/ips/StructureDefinition/Condition-uv-ips"
          ]
        },
        "category": [
          {
            "coding": [
              {
                "code": "problem-list-item",
                "system": "http://terminology.hl7.org/CodeSystem/condition-category",
                "display": "Problem List Item"
              }
            ]
          }
        ],
        "code": {
          "coding": [
            {
              "code": "431855005",
              "system": "http://snomed.info/sct",
              "display": "Chronic kidney disease stage 1 (disorder)"
            }
          ],
          "text": "Chronic kidney disease stage 1"
        },
        "text": {
          "status": "generated",
          "div": "<div xmlns=\"http://www.w3.org/1999/xhtml\"><table class=\"hl7__ips\"><tr><td>Chronic kidney disease stage 1</td><td><span class=\"nb\">01-Oct-2014</span></td><td>active</td></tr></table></div>"
        },
        "onsetDateTime": "2014-10-01",
        "subject": {
          "reference": "urn:uuid:",
          "display": "Θεμιστοκλής Λιναρδάκη"
        },
        "asserter": {
          "reference": "urn:uuid:",
          "display": "Dr. Dimitris Economou"
        }
      }
    },
    {
      "fullUrl": "urn:uuid:898987b6-d7b8-4c03-90d8-755f7b25d671",
      "resource": {
        "resourceType": "Condition",
        "id": "898987b6-d7b8-4c03-90d8-755f7b25d671",
        "meta": {
          "profile": [
            "http://hl7.org/fhir/uv/ips/StructureDefinition/Condition-uv-ips"
          ]
        },
        "category": [
          {
            "coding": [
              {
                "code": "problem-list-item",
                "system": "http://terminology.hl7.org/CodeSystem/condition-category",
                "display": "Problem List Item"
              }
            ]
          }
        ],
        "code": {
          "coding": [
            {
              "code": "59621000",
              "system": "http://snomed.info/sct",
              "display": "Essential hypertension (disorder)"
            }
          ],
          "text": "Essential hypertension"
        },
        "text": {
          "status": "generated",
          "div": "<div xmlns=\"http://www.w3.org/1999/xhtml\"><table class=\"hl7__ips\"><tr><td>Essential hypertension</td><td><span class=\"nb\">01-Jul-1998</span></td><td>active</td></tr></table></div>"
        },
        "onsetDateTime": "1998-07-01",
        "subject": {
          "reference": "urn:uuid:",
          "display": "Θεμιστοκλής Λιναρδάκη"
        },
        "asserter": {
          "reference": "urn:uuid:",
          "display": "Dr. Dimitris Economou"
        }
      }
    },
    {
      "fullUrl": "urn:uuid:713fabb2-14aa-4968-871f-90943ae759b2",
      "resource": {
        "resourceType": "Condition",
        "id": "713fabb2-14aa-4968-871f-90943ae759b2",
        "meta": {
          "profile": [
            "http://hl7.org/fhir/uv/ips/StructureDefinition/Condition-uv-ips"
          ]
        },
        "category": [
          {
            "coding": [
              {
                "code": "problem-list-item",
                "system": "http://terminology.hl7.org/CodeSystem/condition-category",
                "display": "Problem List Item"
              }
            ]
          }
        ],
        "code": {
          "coding": [
            {
              "code": "15777000",
              "system": "http://snomed.info/sct",
              "display": "Prediabetes (disorder)"
            }
          ],
          "text": "Prediabetes"
        },
        "text": {
          "status": "generated",
          "div": "<div xmlns=\"http://www.w3.org/1999/xhtml\"><table class=\"hl7__ips\"><tr><td>Prediabetes</td><td><span class=\"nb\">26-Jan-1994</span></td><td>active</td></tr></table></div>"
        },
        "onsetDateTime": "1994-01-26",
        "subject": {
          "reference": "urn:uuid:",
          "display": "Θεμιστοκλής Λιναρδάκη"
        },
        "asserter": {
          "reference": "urn:uuid:",
          "display": "Dr. Dimitris Economou"
        }
      }
    },
    {
      "fullUrl": "urn:uuid:9a3b094a-33ef-4e4f-a154-e98108a388d2",
      "resource": {
        "resourceType": "Condition",
        "id": "9a3b094a-33ef-4e4f-a154-e98108a388d2",
        "meta": {
          "profile": [
            "http://hl7.org/fhir/uv/ips/StructureDefinition/Condition-uv-ips"
          ]
        },
        "category": [
          {
            "coding": [
              {
                "code": "problem-list-item",
                "system": "http://terminology.hl7.org/CodeSystem/condition-category",
                "display": "Problem List Item"
              }
            ]
          }
        ],
        "code": {
          "coding": [
            {
              "code": "271737000",
              "system": "http://snomed.info/sct",
              "display": "Anemia (disorder)"
            }
          ],
          "text": "Anemia"
        },
        "text": {
          "status": "generated",
          "div": "<div xmlns=\"http://www.w3.org/1999/xhtml\"><table class=\"hl7__ips\"><tr><td>Anemia</td><td><span class=\"nb\">26-Jan-1994</span></td><td>active</td></tr></table></div>"
        },
        "onsetDateTime": "1994-01-26",
        "subject": {
          "reference": "urn:uuid:",
          "display": "Θεμιστοκλής Λιναρδάκη"
        },
        "asserter": {
          "reference": "urn:uuid:",
          "display": "Dr. Dimitris Economou"
        }
      }
    },
    {
      "fullUrl": "urn:uuid:83ff5b57-1786-4887-959a-5212f884d47c",
      "resource": {
        "resourceType": "Condition",
        "id": "83ff5b57-1786-4887-959a-5212f884d47c",
        "meta": {
          "profile": [
            "http://hl7.org/fhir/uv/ips/StructureDefinition/Condition-uv-ips"
          ]
        },
        "category": [
          {
            "coding": [
              {
                "code": "problem-list-item",
                "system": "http://terminology.hl7.org/CodeSystem/condition-category",
                "display": "Problem List Item"
              }
            ]
          }
        ],
        "code": {
          "coding": [
            {
              "code": "195662009",
              "system": "http://snomed.info/sct",
              "display": "Acute viral pharyngitis (disorder)"
            }
          ],
          "text": "Acute viral pharyngitis"
        },
        "text": {
          "status": "generated",
          "div": "<div xmlns=\"http://www.w3.org/1999/xhtml\"><table class=\"hl7__ips\"><tr><td><span class=\"grayedout\">Acute viral pharyngitis</span></td><td><span class=\"nb\">04-Dec-2023 - 16-Dec-2023</span></td><td><span class=\"grayedout\">inactive</span></td></tr></table></div>"
        },
        "onsetDateTime": "2023-12-04",
        "abatementDateTime": "2023-12-16",
        "subject": {
          "reference": "urn:uuid:",
          "display": "Θεμιστοκλής Λιναρδάκη"
        },
        "asserter": {
          "reference": "urn:uuid:",
          "display": "Dr. Dimitris Economou"
        }
      }
    },
    {
      "fullUrl": "urn:uuid:152812c6-7f92-49b5-961e-34b7d426537c",
      "resource": {
        "resourceType": "Condition",
        "id": "152812c6-7f92-49b5-961e-34b7d426537c",
        "meta": {
          "profile": [
            "http://hl7.org/fhir/uv/ips/StructureDefinition/Condition-uv-ips"
          ]
        },
        "category": [
          {
            "coding": [
              {
                "code": "problem-list-item",
                "system": "http://terminology.hl7.org/CodeSystem/condition-category",
                "display": "Problem List Item"
              }
            ]
          }
        ],
        "code": {
          "coding": [
            {
              "code": "444814009",
              "system": "http://snomed.info/sct",
              "display": "Viral sinusitis (disorder)"
            }
          ],
          "text": "Viral sinusitis"
        },
        "text": {
          "status": "generated",
          "div": "<div xmlns=\"http://www.w3.org/1999/xhtml\"><table class=\"hl7__ips\"><tr><td><span class=\"grayedout\">Viral sinusitis</span></td><td><span class=\"nb\">13-Mar-2019 - 09-Apr-2019</span></td><td><span class=\"grayedout\">inactive</span></td></tr></table></div>"
        },
        "onsetDateTime": "2019-03-13",
        "abatementDateTime": "2019-04-09",
        "subject": {
          "reference": "urn:uuid:",
          "display": "Θεμιστοκλής Λιναρδάκη"
        },
        "asserter": {
          "reference": "urn:uuid:",
          "display": "Dr. Dimitris Economou"
        }
      }
    },
    {
      "fullUrl": "urn:uuid:bc0bac5d-7e54-483a-853e-d25849b968c5",
      "resource": {
        "resourceType": "Medication",
        "id": "bc0bac5d-7e54-483a-853e-d25849b968c5",
        "meta": {
          "profile": [
            "http://hl7.eu/fhir/eps/StructureDefinition/Medication-eu-eps"
          ]
        },
        "code": {
          "coding": [
            {
              "code": "106892",
              "system": "http://www.nlm.nih.gov/research/umls/rxnorm",
              "display": "insulin isophane  human 70 UNT/ML / insulin  regular  human 30 UNT/ML Injectable Suspension [Humulin]"
            }
          ],
          "text": "insulin isophane  human 70 UNT/ML / insulin  regular  human 30 UNT/ML Injectable Suspension [Humulin]"
        },
        "text": {
          "status": "generated",
          "div": "<div xmlns=\"http://www.w3.org/1999/xhtml\">insulin isophane human 70 UNT/ML / insulin regular human 30 UNT/ML Injectable Suspension [Humulin]</div>"
        }
      }
    },
    {
      "fullUrl": "urn:uuid:0dfff676-8d82-4bdb-a42c-614d6883a0f5",
      "resource": {
        "resourceType": "MedicationStatement",
        "id": "0dfff676-8d82-4bdb-a42c-614d6883a0f5",
        "meta": {
          "profile": [
            "http://hl7.eu/fhir/eps/StructureDefinition/MedicationStatement-eu-eps"
          ]
        },
        "effectivePeriod": {
          "start": "2025-06-18"
        },
        "dosage": [
          {
            "doseAndRate": [
              {
                "doseQuantity": {
                  "value": 10,
                  "unit": "unit",
                  "code": "{U}"
                }
              }
            ],
            "timing": {
              "repeat": {
                "frequency": 2,
                "period": 1,
                "periodUnit": "d"
              }
            },
            "text": "Inject 10 units subcutaneously before breakfast and 10 units before dinner",
            "asNeededBoolean": false
          }
        ],
        "reasonCode": [
          {
            "coding": [
              {
                "code": "15777000",
                "system": "http://snomed.info/sct",
                "display": "Prediabetes"
              }
            ]
          }
        ],
        "text": {
          "status": "generated",
          "div": "<div xmlns=\"http://www.w3.org/1999/xhtml\"><table class=\"hl7__ips first25\"><tr><th>Medication</th><th>Since</th><th>Form</th><th>Dosage</th><th>Reason</th></tr><tr><td>insulin isophane human 70 UNT/ML / insulin regular human 30 UNT/ML Injectable Suspension [Humulin]</td><td><span class=\"nb\">2025-06-18</span></td><td>-</td><td>Inject 10 units subcutaneously before breakfast and 10 units before dinner</td><td>Prediabetes</td></tr></table></div>"
        },
        "status": "active",
        "medicationReference": {
          "reference": "urn:uuid:bc0bac5d-7e54-483a-853e-d25849b968c5",
          "display": "insulin isophane  human 70 UNT/ML / insulin  regular  human 30 UNT/ML Injectable Suspension [Humulin]"
        },
        "subject": {
          "reference": "urn:uuid:430d9c55-ab93-4845-8adc-dc58c90b9d13",
          "display": "Θεμιστοκλής Λιναρδάκη"
        }
      }
    },
    {
      "fullUrl": "urn:uuid:12a45a89-fa2b-431f-b13c-7a621302a789",
      "resource": {
        "resourceType": "Medication",
        "id": "12a45a89-fa2b-431f-b13c-7a621302a789",
        "meta": {
          "profile": [
            "http://hl7.eu/fhir/eps/StructureDefinition/Medication-eu-eps"
          ]
        },
        "code": {
          "coding": [
            {
              "code": "1153431000",
              "system": "http://snomed.info/sct",
              "display": "Amlodipine (as amlodipine besylate) 2.5 mg oral tablet"
            }
          ],
          "text": "Amlodipine (as amlodipine besylate) 2.5 mg oral tablet"
        },
        "text": {
          "status": "generated",
          "div": "<div xmlns=\"http://www.w3.org/1999/xhtml\">Amlodipine (as amlodipine besylate) 2.5 mg oral tablet</div>"
        }
      }
    },
    {
      "fullUrl": "urn:uuid:0730414e-66d6-4327-a203-40aa04c3b1c4",
      "resource": {
        "resourceType": "MedicationStatement",
        "id": "0730414e-66d6-4327-a203-40aa04c3b1c4",
        "meta": {
          "profile": [
            "http://hl7.eu/fhir/eps/StructureDefinition/MedicationStatement-eu-eps"
          ]
        },
        "effectivePeriod": {
          "start": "2025-06-18"
        },
        "dosage": [
          {
            "doseAndRate": [
              {
                "doseQuantity": {
                  "value": 1,
                  "unit": "{tbl} (2.5 mg)",
                  "system": "$ucum",
                  "code": "{tbl}"
                }
              }
            ],
            "timing": {
              "repeat": {
                "frequency": 1,
                "period": 1,
                "periodUnit": "d"
              }
            },
            "text": "1 tablet (2.5 mg) by mouth once daily",
            "asNeededBoolean": false
          }
        ],
        "reasonCode": [
          {
            "coding": [
              {
                "code": "59621000",
                "system": "http://snomed.info/sct",
                "display": "Essential hypertension (disorder)"
              }
            ]
          }
        ],
        "text": {
          "status": "generated",
          "div": "<div xmlns=\"http://www.w3.org/1999/xhtml\"><table class=\"hl7__ips first25\"><tr><th>Medication</th><th>Since</th><th>Form</th><th>Dosage</th><th>Reason</th></tr><tr><td>Amlodipine (as amlodipine besylate) 2.5 mg oral tablet</td><td><span class=\"nb\">2025-06-18</span></td><td>-</td><td>1 tablet (2.5 mg) by mouth once daily</td><td>Essential hypertension (disorder)</td></tr></table></div>"
        },
        "status": "active",
        "medicationReference": {
          "reference": "urn:uuid:12a45a89-fa2b-431f-b13c-7a621302a789",
          "display": "Amlodipine (as amlodipine besylate) 2.5 mg oral tablet"
        },
        "subject": {
          "reference": "urn:uuid:430d9c55-ab93-4845-8adc-dc58c90b9d13",
          "display": "Θεμιστοκλής Λιναρδάκη"
        }
      }
    },
    {
      "fullUrl": "urn:uuid:83453935-e87b-4c47-b9b1-fef5e5866575",
      "resource": {
        "resourceType": "Medication",
        "id": "83453935-e87b-4c47-b9b1-fef5e5866575",
        "meta": {
          "profile": [
            "http://hl7.eu/fhir/eps/StructureDefinition/Medication-eu-eps"
          ]
        },
        "code": {
          "coding": [
            {
              "code": "376209006",
              "system": "http://snomed.info/sct",
              "display": "Hydrochlorothiazide 25 mg oral tablet"
            }
          ],
          "text": "Hydrochlorothiazide 25 mg oral tablet"
        },
        "text": {
          "status": "generated",
          "div": "<div xmlns=\"http://www.w3.org/1999/xhtml\">Hydrochlorothiazide 25 mg oral tablet</div>"
        }
      }
    },
    {
      "fullUrl": "urn:uuid:0c84d388-5824-4935-9f8b-be1ad2d502b3",
      "resource": {
        "resourceType": "MedicationStatement",
        "id": "0c84d388-5824-4935-9f8b-be1ad2d502b3",
        "meta": {
          "profile": [
            "http://hl7.eu/fhir/eps/StructureDefinition/MedicationStatement-eu-eps"
          ]
        },
        "effectivePeriod": {
          "start": "2025-06-18"
        },
        "dosage": [
          {
            "doseAndRate": [
              {
                "doseQuantity": {
                  "value": 1,
                  "unit": "{tbl}",
                  "code": "{tbl}"
                }
              }
            ],
            "timing": {
              "repeat": {
                "frequency": 1,
                "period": 1,
                "periodUnit": "d"
              }
            },
            "text": "1 tablet (25 mg) by mouth once daily",
            "asNeededBoolean": false
          }
        ],
        "reasonCode": [
          {
            "coding": [
              {
                "code": "59621000",
                "system": "http://snomed.info/sct",
                "display": "Essential hypertension (disorder)"
              }
            ]
          }
        ],
        "text": {
          "status": "generated",
          "div": "<div xmlns=\"http://www.w3.org/1999/xhtml\"><table class=\"hl7__ips first25\"><tr><th>Medication</th><th>Since</th><th>Form</th><th>Dosage</th><th>Reason</th></tr><tr><td>Hydrochlorothiazide 25 mg oral tablet</td><td><span class=\"nb\">2025-06-18</span></td><td>-</td><td>1 tablet (25 mg) by mouth once daily</td><td>Essential hypertension (disorder)</td></tr></table></div>"
        },
        "status": "active",
        "medicationReference": {
          "reference": "urn:uuid:83453935-e87b-4c47-b9b1-fef5e5866575",
          "display": "Hydrochlorothiazide 25 mg oral tablet"
        },
        "subject": {
          "reference": "urn:uuid:430d9c55-ab93-4845-8adc-dc58c90b9d13",
          "display": "Θεμιστοκλής Λιναρδάκη"
        }
      }
    },
    {
      "fullUrl": "urn:uuid:3cff4b9b-030e-4e0d-97da-88df560ef1ff",
      "resource": {
        "resourceType": "Medication",
        "id": "3cff4b9b-030e-4e0d-97da-88df560ef1ff",
        "meta": {
          "profile": [
            "http://hl7.eu/fhir/eps/StructureDefinition/Medication-eu-eps"
          ]
        },
        "code": {
          "coding": [
            {
              "code": "318859000",
              "system": "http://snomed.info/sct",
              "display": "Lisinopril 10 mg oral tablet"
            }
          ],
          "text": "Lisinopril 10 mg oral tablet"
        },
        "text": {
          "status": "generated",
          "div": "<div xmlns=\"http://www.w3.org/1999/xhtml\">Lisinopril 10 mg oral tablet</div>"
        }
      }
    },
    {
      "fullUrl": "urn:uuid:e2ada2ff-5f0b-4a55-8470-c841bfc5880f",
      "resource": {
        "resourceType": "MedicationStatement",
        "id": "e2ada2ff-5f0b-4a55-8470-c841bfc5880f",
        "meta": {
          "profile": [
            "http://hl7.eu/fhir/eps/StructureDefinition/MedicationStatement-eu-eps"
          ]
        },
        "effectivePeriod": {
          "start": "2025-06-18"
        },
        "dosage": [
          {
            "doseAndRate": [
              {
                "doseQuantity": {
                  "value": 1,
                  "unit": "{tbl}",
                  "code": "{tbl}"
                }
              }
            ],
            "timing": {
              "repeat": {
                "frequency": 1,
                "period": 1,
                "periodUnit": "d"
              }
            },
            "text": "1 tablet (10 mg) by mouth once daily",
            "asNeededBoolean": false
          }
        ],
        "reasonCode": [
          {
            "coding": [
              {
                "code": "59621000",
                "system": "http://snomed.info/sct",
                "display": "Essential hypertension (disorder)"
              }
            ]
          }
        ],
        "text": {
          "status": "generated",
          "div": "<div xmlns=\"http://www.w3.org/1999/xhtml\"><table class=\"hl7__ips first25\"><tr><th>Medication</th><th>Since</th><th>Form</th><th>Dosage</th><th>Reason</th></tr><tr><td>Lisinopril 10 mg oral tablet</td><td><span class=\"nb\">2025-06-18</span></td><td>-</td><td>1 tablet (10 mg) by mouth once daily</td><td>Essential hypertension (disorder)</td></tr></table></div>"
        },
        "status": "active",
        "medicationReference": {
          "reference": "urn:uuid:3cff4b9b-030e-4e0d-97da-88df560ef1ff",
          "display": "Lisinopril 10 mg oral tablet"
        },
        "subject": {
          "reference": "urn:uuid:430d9c55-ab93-4845-8adc-dc58c90b9d13",
          "display": "Θεμιστοκλής Λιναρδάκη"
        }
      }
    },
    {
      "fullUrl": "urn:uuid:b30e8d49-d33b-4e32-b518-65a9a892f64e",
      "resource": {
        "resourceType": "Immunization",
        "id": "b30e8d49-d33b-4e32-b518-65a9a892f64e",
        "meta": {
          "profile": [
            "http://hl7.org/fhir/uv/ips/StructureDefinition/Immunization-uv-ips"
          ]
        },
        "vaccineCode": {
          "coding": [
            {
              "code": "1181000221105",
              "system": "http://snomed.info/sct",
              "display": "Vaccine product containing Influenza virus antigen"
            },
            {
              "code": "J07BB02",
              "system": "http://www.whocc.no/atc",
              "display": "Influenza, inactivated, split virus"
            }
          ],
          "text": "Influenza virus antigen only vaccine product"
        },
        "site": {
          "coding": [
            {
              "code": "244979005",
              "system": "http://snomed.info/sct",
              "display": "Entire muscle of upper arm"
            }
          ],
          "text": "Entire muscle of upper arm"
        },
        "route": {
          "coding": [
            {
              "code": "78421000",
              "system": "http://snomed.info/sct",
              "display": "Intramuscular route"
            }
          ],
          "text": "Intramuscular route"
        },
        "text": {
          "status": "generated",
          "div": "<div xmlns=\"http://www.w3.org/1999/xhtml\"><table class=\"hl7__ips\"><tr><td>Influenza virus antigen only vaccine product</td><td><span class=\"nb\">27-Nov-2024</span></td></tr></table></div>"
        },
        "status": "completed",
        "patient": {
          "reference": "urn:uuid:430d9c55-ab93-4845-8adc-dc58c90b9d13",
          "display": "Θεμιστοκλής Λιναρδάκη"
        },
        "occurrenceDateTime": "2024-11-27",
        "lotNumber": "BD-7drrv3",
        "expirationDate": "2025-09-29"
      }
    },
    {
      "fullUrl": "urn:uuid:f2202659-4b9d-4c79-a302-4b27387d9974",
      "resource": {
        "resourceType": "Immunization",
        "id": "f2202659-4b9d-4c79-a302-4b27387d9974",
        "meta": {
          "profile": [
            "http://hl7.org/fhir/uv/ips/StructureDefinition/Immunization-uv-ips"
          ]
        },
        "vaccineCode": {
          "coding": [
            {
              "code": "777725002",
              "system": "http://snomed.info/sct",
              "display": "Vaccine product containing only Clostridium tetani toxoid antigen adsorbed"
            },
            {
              "code": "J07AM51",
              "system": "http://www.whocc.no/atc",
              "display": "Diphtheria-tetanus vaccines, adult type"
            }
          ],
          "text": "Clostridium tetani toxoid antigen adsorbed only vaccine product"
        },
        "site": {
          "coding": [
            {
              "code": "244979005",
              "system": "http://snomed.info/sct",
              "display": "Entire muscle of upper arm"
            }
          ],
          "text": "Entire muscle of upper arm"
        },
        "route": {
          "coding": [
            {
              "code": "78421000",
              "system": "http://snomed.info/sct",
              "display": "Intramuscular route"
            }
          ],
          "text": "Intramuscular route"
        },
        "text": {
          "status": "generated",
          "div": "<div xmlns=\"http://www.w3.org/1999/xhtml\"><table class=\"hl7__ips\"><tr><td>Clostridium tetani toxoid antigen adsorbed only vaccine product</td><td><span class=\"nb\">22-May-2024</span></td></tr></table></div>"
        },
        "status": "completed",
        "patient": {
          "reference": "urn:uuid:430d9c55-ab93-4845-8adc-dc58c90b9d13",
          "display": "Θεμιστοκλής Λιναρδάκη"
        },
        "occurrenceDateTime": "2024-05-22",
        "lotNumber": "UR-xH4nyDH",
        "expirationDate": "2025-03-02"
      }
    },
    {
      "fullUrl": "urn:uuid:322294ce-8dc2-430a-81e5-cfd3aed636e8",
      "resource": {
        "resourceType": "Immunization",
        "id": "322294ce-8dc2-430a-81e5-cfd3aed636e8",
        "meta": {
          "profile": [
            "http://hl7.org/fhir/uv/ips/StructureDefinition/Immunization-uv-ips"
          ]
        },
        "vaccineCode": {
          "coding": [
            {
              "code": "2221000221107",
              "system": "http://snomed.info/sct",
              "display": "Live attenuated Varicella-zoster vaccine"
            },
            {
              "code": "J07BK02",
              "system": "http://www.whocc.no/atc",
              "display": "Varicella-zoster vaccines"
            }
          ],
          "text": "Live attenuated Human alphaherpesvirus 3 only vaccine product"
        },
        "site": {
          "coding": [
            {
              "code": "368208006",
              "system": "http://snomed.info/sct",
              "display": "Left upper arm structure"
            }
          ],
          "text": "Left upper arm structure"
        },
        "route": {
          "coding": [
            {
              "code": "34206005",
              "system": "http://snomed.info/sct",
              "display": "Subcutaneous route"
            }
          ],
          "text": "Subcutaneous route"
        },
        "text": {
          "status": "generated",
          "div": "<div xmlns=\"http://www.w3.org/1999/xhtml\"><table class=\"hl7__ips\"><tr><td>Live attenuated Human alphaherpesvirus 3 only vaccine product</td><td><span class=\"nb\">22-Nov-2023</span></td></tr></table></div>"
        },
        "status": "completed",
        "patient": {
          "reference": "urn:uuid:430d9c55-ab93-4845-8adc-dc58c90b9d13",
          "display": "Θεμιστοκλής Λιναρδάκη"
        },
        "occurrenceDateTime": "2023-11-22",
        "lotNumber": "HB-wvL7vP7",
        "expirationDate": "2024-09-21"
      }
    },
    {
      "fullUrl": "urn:uuid:579bd9fb-e923-4c31-8ca4-2fa664315bbc",
      "resource": {
        "resourceType": "Immunization",
        "id": "579bd9fb-e923-4c31-8ca4-2fa664315bbc",
        "meta": {
          "profile": [
            "http://hl7.org/fhir/uv/ips/StructureDefinition/Immunization-uv-ips"
          ]
        },
        "vaccineCode": {
          "coding": [
            {
              "code": "1119349007",
              "system": "http://snomed.info/sct",
              "display": "Vaccine product containing SARS-CoV-2 mRNA"
            },
            {
              "code": "J07BX03",
              "system": "http://www.whocc.no/atc",
              "display": "COVID-19 mRNA vaccines"
            }
          ],
          "text": "SARS-CoV-2 mRNA vaccine"
        },
        "site": {
          "coding": [
            {
              "code": "244979005",
              "system": "http://snomed.info/sct",
              "display": "Entire muscle of upper arm"
            }
          ],
          "text": "Entire muscle of upper arm"
        },
        "route": {
          "coding": [
            {
              "code": "78421000",
              "system": "http://snomed.info/sct",
              "display": "Intramuscular route"
            }
          ],
          "text": "Intramuscular route"
        },
        "text": {
          "status": "generated",
          "div": "<div xmlns=\"http://www.w3.org/1999/xhtml\"><table class=\"hl7__ips\"><tr><td>SARS-CoV-2 mRNA vaccine</td><td><span class=\"nb\">28-Apr-2021</span></td></tr></table></div>"
        },
        "status": "completed",
        "patient": {
          "reference": "urn:uuid:430d9c55-ab93-4845-8adc-dc58c90b9d13",
          "display": "Θεμιστοκλής Λιναρδάκη"
        },
        "occurrenceDateTime": "2021-04-28",
        "lotNumber": "SR-xaLAB3L",
        "expirationDate": "2022-02-07"
      }
    },
    {
      "fullUrl": "urn:uuid:969a56f7-2311-436d-bcdf-66e3122166ec",
      "resource": {
        "resourceType": "Procedure",
        "id": "969a56f7-2311-436d-bcdf-66e3122166ec",
        "meta": {
          "profile": [
            "http://hl7.org/fhir/uv/ips/StructureDefinition/Procedure-uv-ips"
          ]
        },
        "code": {
          "coding": [
            {
              "code": "430193006",
              "system": "http://snomed.info/sct",
              "display": "Medication Reconciliation (procedure)"
            }
          ],
          "text": "Medication reconciliation"
        },
        "text": {
          "status": "generated",
          "div": "<div xmlns=\"http://www.w3.org/1999/xhtml\"><table class=\"hl7__ips\"><tr><td>Medication reconciliation</td><td><span class=\"nb\">20-Dec-2023</span></td><td>-</td></tr></table></div>"
        },
        "status": "completed",
        "performedDateTime": "2023-12-20",
        "subject": {
          "reference": "urn:uuid:",
          "display": "Θεμιστοκλής Λιναρδάκη"
        }
      }
    },
    {
      "fullUrl": "urn:uuid:53f3b05d-c966-4f8d-b06d-a76b0f2857d6",
      "resource": {
        "resourceType": "Procedure",
        "id": "53f3b05d-c966-4f8d-b06d-a76b0f2857d6",
        "meta": {
          "profile": [
            "http://hl7.org/fhir/uv/ips/StructureDefinition/Procedure-uv-ips"
          ]
        },
        "code": {
          "coding": [
            {
              "code": "171207006",
              "system": "http://snomed.info/sct",
              "display": "Depression screening (procedure)"
            }
          ],
          "text": "Depression screening"
        },
        "text": {
          "status": "generated",
          "div": "<div xmlns=\"http://www.w3.org/1999/xhtml\"><table class=\"hl7__ips\"><tr><td>Depression screening</td><td><span class=\"nb\">13-Dec-2023</span></td><td>-</td></tr></table></div>"
        },
        "status": "completed",
        "performedDateTime": "2023-12-13",
        "subject": {
          "reference": "urn:uuid:",
          "display": "Θεμιστοκλής Λιναρδάκη"
        }
      }
    },
    {
      "fullUrl": "urn:uuid:d75c0e61-869d-4146-84c8-b57107bcaae0",
      "resource": {
        "resourceType": "Procedure",
        "id": "d75c0e61-869d-4146-84c8-b57107bcaae0",
        "meta": {
          "profile": [
            "http://hl7.org/fhir/uv/ips/StructureDefinition/Procedure-uv-ips"
          ]
        },
        "code": {
          "coding": [
            {
              "code": "710824005",
              "system": "http://snomed.info/sct",
              "display": "Assessment of health and social care needs (procedure)"
            }
          ],
          "text": "Assessment of health and social care needs"
        },
        "text": {
          "status": "generated",
          "div": "<div xmlns=\"http://www.w3.org/1999/xhtml\"><table class=\"hl7__ips\"><tr><td>Assessment of health and social care needs</td><td><span class=\"nb\">13-Dec-2023</span></td><td>-</td></tr></table></div>"
        },
        "status": "completed",
        "performedDateTime": "2023-12-13",
        "subject": {
          "reference": "urn:uuid:",
          "display": "Θεμιστοκλής Λιναρδάκη"
        }
      }
    },
    {
      "fullUrl": "urn:uuid:d9b34d0b-b580-4abf-915c-536aa9aba045",
      "resource": {
        "resourceType": "Procedure",
        "id": "d9b34d0b-b580-4abf-915c-536aa9aba045",
        "meta": {
          "profile": [
            "http://hl7.org/fhir/uv/ips/StructureDefinition/Procedure-uv-ips"
          ]
        },
        "code": {
          "coding": [
            {
              "code": "454711000124102",
              "system": "http://snomed.info/sct",
              "display": "Depression screening using Patient Health Questionnaire Two-Item score (procedure)"
            }
          ]
        },
        "text": {
          "status": "generated",
          "div": "<div xmlns=\"http://www.w3.org/1999/xhtml\"><table class=\"hl7__ips\"><tr><td>Depression screening using Patient Health Questionnaire Two-Item score (procedure)</td><td><span class=\"nb\">13-Dec-2023</span></td><td>-</td></tr></table></div>"
        },
        "status": "completed",
        "performedDateTime": "2023-12-13",
        "subject": {
          "reference": "urn:uuid:",
          "display": "Θεμιστοκλής Λιναρδάκη"
        }
      }
    },
    {
      "fullUrl": "urn:uuid:2e1165d5-7b1d-4dfa-90f4-62360ef9a2c5",
      "resource": {
        "resourceType": "Procedure",
        "id": "2e1165d5-7b1d-4dfa-90f4-62360ef9a2c5",
        "meta": {
          "profile": [
            "http://hl7.org/fhir/uv/ips/StructureDefinition/Procedure-uv-ips"
          ]
        },
        "code": {
          "coding": [
            {
              "code": "710841007",
              "system": "http://snomed.info/sct",
              "display": "Assessment of anxiety (procedure)"
            }
          ],
          "text": "Assessment of anxiety"
        },
        "text": {
          "status": "generated",
          "div": "<div xmlns=\"http://www.w3.org/1999/xhtml\"><table class=\"hl7__ips\"><tr><td>Assessment of anxiety</td><td><span class=\"nb\">03-Aug-2022</span></td><td>-</td></tr></table></div>"
        },
        "status": "completed",
        "performedDateTime": "2022-08-03",
        "subject": {
          "reference": "urn:uuid:",
          "display": "Θεμιστοκλής Λιναρδάκη"
        }
      }
    },
    {
      "fullUrl": "urn:uuid:1a8a6dba-669a-45f1-a70e-cfd03f40f986",
      "resource": {
        "resourceType": "Procedure",
        "id": "1a8a6dba-669a-45f1-a70e-cfd03f40f986",
        "meta": {
          "profile": [
            "http://hl7.org/fhir/uv/ips/StructureDefinition/Procedure-uv-ips"
          ]
        },
        "code": {
          "coding": [
            {
              "code": "713106006",
              "system": "http://snomed.info/sct",
              "display": "Screening for drug abuse (procedure)"
            }
          ],
          "text": "Screening for drug abuse"
        },
        "text": {
          "status": "generated",
          "div": "<div xmlns=\"http://www.w3.org/1999/xhtml\"><table class=\"hl7__ips\"><tr><td>Screening for drug abuse</td><td><span class=\"nb\">20-Mar-2019</span></td><td>-</td></tr></table></div>"
        },
        "status": "completed",
        "performedDateTime": "2019-03-20",
        "subject": {
          "reference": "urn:uuid:",
          "display": "Θεμιστοκλής Λιναρδάκη"
        }
      }
    },
    {
      "fullUrl": "urn:uuid:cf242298-9701-4a49-9d69-7611a8585ad6",
      "resource": {
        "resourceType": "Procedure",
        "id": "cf242298-9701-4a49-9d69-7611a8585ad6",
        "meta": {
          "profile": [
            "http://hl7.org/fhir/uv/ips/StructureDefinition/Procedure-uv-ips"
          ]
        },
        "code": {
          "coding": [
            {
              "code": "866148006",
              "system": "http://snomed.info/sct",
              "display": "Screening for domestic abuse (procedure)"
            }
          ],
          "text": "Screening for domestic abuse"
        },
        "text": {
          "status": "generated",
          "div": "<div xmlns=\"http://www.w3.org/1999/xhtml\"><table class=\"hl7__ips\"><tr><td>Screening for domestic abuse</td><td><span class=\"nb\">20-Mar-2019</span></td><td>-</td></tr></table></div>"
        },
        "status": "completed",
        "performedDateTime": "2019-03-20",
        "subject": {
          "reference": "urn:uuid:",
          "display": "Θεμιστοκλής Λιναρδάκη"
        }
      }
    },
    {
      "fullUrl": "urn:uuid:9adb57ee-3278-4afc-957f-1a3a9ce8493d",
      "resource": {
        "resourceType": "Procedure",
        "id": "9adb57ee-3278-4afc-957f-1a3a9ce8493d",
        "meta": {
          "profile": [
            "http://hl7.org/fhir/uv/ips/StructureDefinition/Procedure-uv-ips"
          ]
        },
        "code": {
          "coding": [
            {
              "code": "428211000124100",
              "system": "http://snomed.info/sct",
              "display": "Assessment of substance use (procedure)"
            }
          ],
          "text": "Assessment of substance use"
        },
        "text": {
          "status": "generated",
          "div": "<div xmlns=\"http://www.w3.org/1999/xhtml\"><table class=\"hl7__ips\"><tr><td>Assessment of substance use</td><td><span class=\"nb\">20-Mar-2019</span></td><td>-</td></tr></table></div>"
        },
        "status": "completed",
        "performedDateTime": "2019-03-20",
        "subject": {
          "reference": "urn:uuid:",
          "display": "Θεμιστοκλής Λιναρδάκη"
        }
      }
    },
    {
      "fullUrl": "urn:uuid:0b1d5d8b-a87c-4308-bc85-810dae7a622b",
      "resource": {
        "resourceType": "Procedure",
        "id": "0b1d5d8b-a87c-4308-bc85-810dae7a622b",
        "meta": {
          "profile": [
            "http://hl7.org/fhir/uv/ips/StructureDefinition/Procedure-uv-ips"
          ]
        },
        "code": {
          "coding": [
            {
              "code": "715252007",
              "system": "http://snomed.info/sct",
              "display": "Depression screening using Patient Health Questionnaire Nine Item score (procedure)"
            }
          ],
          "text": "Depression screening using PHQ-9 (Patient Health Questionnaire 9) score"
        },
        "text": {
          "status": "generated",
          "div": "<div xmlns=\"http://www.w3.org/1999/xhtml\"><table class=\"hl7__ips\"><tr><td>Depression screening using PHQ-9 (Patient Health Questionnaire 9) score</td><td><span class=\"nb\">13-Feb-2019</span></td><td>-</td></tr></table></div>"
        },
        "status": "completed",
        "performedDateTime": "2019-02-13",
        "subject": {
          "reference": "urn:uuid:",
          "display": "Θεμιστοκλής Λιναρδάκη"
        }
      }
    },
    {
      "fullUrl": "urn:uuid:268dd0f3-1725-49b5-bd48-f507af2dd026",
      "resource": {
        "resourceType": "AllergyIntolerance",
        "id": "268dd0f3-1725-49b5-bd48-f507af2dd026",
        "meta": {
          "profile": [
            "http://hl7.eu/fhir/eps/StructureDefinition/allergyIntolerance-eu-eps"
          ]
        },
        "code": {
          "text": ""
        },
        "clinicalStatus": {
          "coding": [
            {
              "code": "active",
              "system": "http://terminology.hl7.org/CodeSystem/allergyintolerance-clinical"
            }
          ]
        },
        "text": {
          "status": "generated",
          "div": "<div xmlns=\"http://www.w3.org/1999/xhtml\"><table class=\"hl7__ips\"><tr><th>Allergy/Intolerance</th><th>Onset Date</th><th>Status</th><th>Type</th><th>Reaction</th></tr><tr><td></td><td>?</td><td>active</td><td>?</td><td></td></tr></table></div>"
        },
        "verificationStatus": {
          "coding": [
            {
              "code": "confirmed",
              "system": "http://terminology.hl7.org/CodeSystem/allergyintolerance-verification"
            }
          ]
        },
        "patient": {
          "reference": "urn:uuid:430d9c55-ab93-4845-8adc-dc58c90b9d13",
          "display": "Θεμιστοκλής Λιναρδάκη"
        },
        "_onsetDateTime": {
          "extension": [
            {
              "url": "http://hl7.org/fhir/StructureDefinition/data-absent-reason",
              "valueCode": "unknown"
            }
          ]
        }
      }
    },
    {
      "fullUrl": "urn:uuid:0b557dc2-7f0d-4c78-90eb-c9143126e25a",
      "resource": {
        "resourceType": "CarePlan",
        "id": "0b557dc2-7f0d-4c78-90eb-c9143126e25a",
        "category": [
          {
            "coding": [
              {
                "code": "assess-plan",
                "system": "http://terminology.hl7.org/CodeSystem/care-plan-category",
                "display": "Assessment and Plan"
              }
            ]
          }
        ],
        "activity": [
          {
            "detail": {
              "code": {
                "coding": [
                  {
                    "code": "443402002",
                    "system": "http://snomed.info/sct",
                    "display": "Lifestyle education regarding hypertension (procedure)"
                  }
                ]
              },
              "reasonCode": [
                {
                  "coding": [
                    {
                      "code": "59621000",
                      "system": "http://snomed.info/sct",
                      "display": "Essential hypertension (disorder)"
                    }
                  ]
                }
              ],
              "status": "unknown",
              "description": "Lifestyle education regarding hypertension",
              "kind": "Appointment"
            }
          }
        ],
        "period": {
          "start": "1998-07-01"
        },
        "goal": [
          {
            "reference": "urn:uuid:8cdd73d9-5e8b-4f82-960a-8611ea0208cb"
          },
          {
            "reference": "urn:uuid:f3f40933-6a93-4841-9358-7c3d2cde62a4"
          },
          {
            "reference": "urn:uuid:43d7a178-73ec-4c25-8f82-7f568b6f7b50"
          },
          {
            "reference": "urn:uuid:4f63b0d1-7eec-4581-b0d2-a735f91c1da4"
          }
        ],
        "text": {
          "status": "generated",
          "div": "<div xmlns=\"http://www.w3.org/1999/xhtml\"><table class=\"hl7__ips first25\"><tr><th>Active Planned Care / Goals</th><th>Start Date</th><th>Reason</th></tr><tr><td>Lifestyle education regarding hypertension</td><td><span class=\"nb\">01-Jul-1998</span></td><td>Essential hypertension (disorder)</td></tr><tr><td><ul><li>Maintain blood pressure below 130/80 mmHg to reduce risk of cardiovascular and renal complications.</li><li>Achieve at least 5% reduction in body weight to improve blood pressure control.</li><li>Limit sodium intake to less than 2.3 grams per day to support blood pressure management.</li><li>Engage in at least 150 minutes per week of moderate-intensity aerobic physical activity.</li></ul></td><td></td><td></td></tr></table></div>"
        },
        "status": "active",
        "intent": "plan",
        "subject": {
          "reference": "urn:uuid:430d9c55-ab93-4845-8adc-dc58c90b9d13",
          "display": "Θεμιστοκλής Λιναρδάκη"
        }
      }
    },
    {
      "fullUrl": "urn:uuid:6dab3610-82be-4568-9b05-3fe152ae2a44",
      "resource": {
        "resourceType": "CarePlan",
        "id": "6dab3610-82be-4568-9b05-3fe152ae2a44",
        "category": [
          {
            "coding": [
              {
                "code": "assess-plan",
                "system": "http://terminology.hl7.org/CodeSystem/care-plan-category",
                "display": "Assessment and Plan"
              }
            ]
          }
        ],
        "activity": [
          {
            "detail": {
              "code": {
                "coding": [
                  {
                    "code": "698360004",
                    "system": "http://snomed.info/sct",
                    "display": "Diabetes self management plan (qualifier value)"
                  }
                ]
              },
              "reasonCode": [
                {
                  "coding": [
                    {
                      "code": "15777000",
                      "system": "http://snomed.info/sct",
                      "display": "Prediabetes"
                    }
                  ]
                }
              ],
              "status": "unknown",
              "description": "Diabetes self management plan",
              "kind": "Appointment"
            }
          }
        ],
        "period": {
          "start": "1994-01-26"
        },
        "goal": [
          {
            "reference": "urn:uuid:1383fad9-c24f-4f3a-bc25-c302772be3e2"
          },
          {
            "reference": "urn:uuid:e125adb2-83fa-4a76-b022-de3b01a3173d"
          },
          {
            "reference": "urn:uuid:b32c2799-3792-4b71-897c-1a5b4ff44dc3"
          },
          {
            "reference": "urn:uuid:1b037a6a-4d0e-4746-ac8f-c89b8b0069ea"
          },
          {
            "reference": "urn:uuid:842d11af-6dca-4760-9ed2-c703fceb02c3"
          }
        ],
        "text": {
          "status": "generated",
          "div": "<div xmlns=\"http://www.w3.org/1999/xhtml\"><table class=\"hl7__ips first25\"><tr><th>Active Planned Care / Goals</th><th>Start Date</th><th>Reason</th></tr><tr><td>Diabetes self management plan</td><td><span class=\"nb\">26-Jan-1994</span></td><td>Prediabetes</td></tr><tr><td><ul><li>Patient will participate in a diabetes self-management program to improve knowledge and skills for prediabetes management.</li><li>Patient will achieve a 5% reduction in baseline body weight to reduce risk of progression to diabetes.</li><li>Patient will maintain hemoglobin A1c below 6.5% to prevent progression to diabetes.</li><li>Patient will engage in at least 150 minutes per week of moderate-intensity physical activity.</li><li>Patient will follow a diet low in refined carbohydrates and saturated fats to support glycemic control.</li></ul></td><td></td><td></td></tr></table></div>"
        },
        "status": "active",
        "intent": "plan",
        "subject": {
          "reference": "urn:uuid:430d9c55-ab93-4845-8adc-dc58c90b9d13",
          "display": "Θεμιστοκλής Λιναρδάκη"
        }
      }
    },
    {
      "fullUrl": "urn:uuid:87a7df0f-7344-4c83-8429-61e8cf5c369f",
      "resource": {
        "resourceType": "Observation",
        "id": "87a7df0f-7344-4c83-8429-61e8cf5c369f",
        "meta": {
          "profile": [
            "http://hl7.org/fhir/StructureDefinition/vitalsigns"
          ]
        },
        "category": [
          {
            "coding": [
              {
                "system": "http://terminology.hl7.org/CodeSystem/observation-category",
                "code": "vital-signs",
                "display": "Vital Signs"
              }
            ]
          }
        ],
        "valueQuantity": {
          "value": 187.3,
          "code": "cm",
          "unit": "cm"
        },
        "text": {
          "status": "generated",
          "div": "<div xmlns=\"http://www.w3.org/1999/xhtml\"><table class=\"hl7__ips\"><tr><th>Vital Sign</th><th>Date</th><th>Measurement</th></tr><tr><td>Body Height</td><td>18-Jun-2025</td><td>187.3 cm</td></tr></table></div>"
        },
        "status": "final",
        "code": {
          "coding": [
            {
              "code": "$8302-2",
              "system": "http://loinc.org",
              "display": "Body Height"
            }
          ]
        },
        "subject": {
          "reference": "urn:uuid:430d9c55-ab93-4845-8adc-dc58c90b9d13",
          "display": "Θεμιστοκλής Λιναρδάκη"
        },
        "effectiveDateTime": "2025-06-18"
      }
    },
    {
      "fullUrl": "urn:uuid:46a56b0a-f143-4cfb-ab66-1a42fb4a0593",
      "resource": {
        "resourceType": "Observation",
        "id": "46a56b0a-f143-4cfb-ab66-1a42fb4a0593",
        "meta": {
          "profile": [
            "http://hl7.org/fhir/StructureDefinition/vitalsigns"
          ]
        },
        "category": [
          {
            "coding": [
              {
                "system": "http://terminology.hl7.org/CodeSystem/observation-category",
                "code": "vital-signs",
                "display": "Vital Signs"
              }
            ]
          }
        ],
        "valueQuantity": {
          "value": 0,
          "code": "{score}",
          "unit": "{score}"
        },
        "text": {
          "status": "generated",
          "div": "<div xmlns=\"http://www.w3.org/1999/xhtml\"><table class=\"hl7__ips\"><tr><th>Vital Sign</th><th>Date</th><th>Measurement</th></tr><tr><td>Pain severity - 0-10 verbal numeric rating [Score] - Reported</td><td>18-Jun-2025</td><td>0 {score}</td></tr></table></div>"
        },
        "status": "final",
        "code": {
          "coding": [
            {
              "code": "$72514-3",
              "system": "http://loinc.org",
              "display": "Pain severity - 0-10 verbal numeric rating [Score] - Reported"
            }
          ]
        },
        "subject": {
          "reference": "urn:uuid:430d9c55-ab93-4845-8adc-dc58c90b9d13",
          "display": "Θεμιστοκλής Λιναρδάκη"
        },
        "effectiveDateTime": "2025-06-18"
      }
    },
    {
      "fullUrl": "urn:uuid:58de3d17-cd09-45ac-9ddb-df6329fc9dfd",
      "resource": {
        "resourceType": "Observation",
        "id": "58de3d17-cd09-45ac-9ddb-df6329fc9dfd",
        "meta": {
          "profile": [
            "http://hl7.org/fhir/StructureDefinition/vitalsigns"
          ]
        },
        "category": [
          {
            "coding": [
              {
                "system": "http://terminology.hl7.org/CodeSystem/observation-category",
                "code": "vital-signs",
                "display": "Vital Signs"
              }
            ]
          }
        ],
        "valueQuantity": {
          "value": 101.8,
          "code": "kg",
          "unit": "kg"
        },
        "text": {
          "status": "generated",
          "div": "<div xmlns=\"http://www.w3.org/1999/xhtml\"><table class=\"hl7__ips\"><tr><th>Vital Sign</th><th>Date</th><th>Measurement</th></tr><tr><td>Body Weight</td><td>18-Jun-2025</td><td>101.8 kg</td></tr></table></div>"
        },
        "status": "final",
        "code": {
          "coding": [
            {
              "code": "$29463-7",
              "system": "http://loinc.org",
              "display": "Body Weight"
            }
          ]
        },
        "subject": {
          "reference": "urn:uuid:430d9c55-ab93-4845-8adc-dc58c90b9d13",
          "display": "Θεμιστοκλής Λιναρδάκη"
        },
        "effectiveDateTime": "2025-06-18"
      }
    },
    {
      "fullUrl": "urn:uuid:a61945b7-4710-4d86-bddd-64f60e423c87",
      "resource": {
        "resourceType": "Observation",
        "id": "a61945b7-4710-4d86-bddd-64f60e423c87",
        "meta": {
          "profile": [
            "http://hl7.org/fhir/StructureDefinition/vitalsigns"
          ]
        },
        "category": [
          {
            "coding": [
              {
                "system": "http://terminology.hl7.org/CodeSystem/observation-category",
                "code": "vital-signs",
                "display": "Vital Signs"
              }
            ]
          }
        ],
        "valueQuantity": {
          "value": 29,
          "code": "kg/m2",
          "unit": "kg/m2"
        },
        "text": {
          "status": "generated",
          "div": "<div xmlns=\"http://www.w3.org/1999/xhtml\"><table class=\"hl7__ips\"><tr><th>Vital Sign</th><th>Date</th><th>Measurement</th></tr><tr><td>Body mass index (BMI) [Ratio]</td><td>18-Jun-2025</td><td>29 kg/m2</td></tr></table></div>"
        },
        "status": "final",
        "code": {
          "coding": [
            {
              "code": "$39156-5",
              "system": "http://loinc.org",
              "display": "Body mass index (BMI) [Ratio]"
            }
          ]
        },
        "subject": {
          "reference": "urn:uuid:430d9c55-ab93-4845-8adc-dc58c90b9d13",
          "display": "Θεμιστοκλής Λιναρδάκη"
        },
        "effectiveDateTime": "2025-06-18"
      }
    },
    {
      "fullUrl": "urn:uuid:eaac3a46-ac73-45ce-bcf0-abce0a8da6c6",
      "resource": {
        "resourceType": "Observation",
        "id": "eaac3a46-ac73-45ce-bcf0-abce0a8da6c6",
        "meta": {
          "profile": [
            "http://hl7.org/fhir/StructureDefinition/vitalsigns"
          ]
        },
        "category": [
          {
            "coding": [
              {
                "system": "http://terminology.hl7.org/CodeSystem/observation-category",
                "code": "vital-signs",
                "display": "Vital Signs"
              }
            ]
          }
        ],
        "valueQuantity": {
          "value": 78,
          "code": "mm[Hg]",
          "unit": "mm[Hg]"
        },
        "text": {
          "status": "generated",
          "div": "<div xmlns=\"http://www.w3.org/1999/xhtml\"><table class=\"hl7__ips\"><tr><th>Vital Sign</th><th>Date</th><th>Measurement</th></tr><tr><td>Diastolic Blood Pressure</td><td>18-Jun-2025</td><td>78 mm[Hg]</td></tr></table></div>"
        },
        "status": "final",
        "code": {
          "coding": [
            {
              "code": "$8462-4",
              "system": "http://loinc.org",
              "display": "Diastolic Blood Pressure"
            }
          ]
        },
        "subject": {
          "reference": "urn:uuid:430d9c55-ab93-4845-8adc-dc58c90b9d13",
          "display": "Θεμιστοκλής Λιναρδάκη"
        },
        "effectiveDateTime": "2025-06-18"
      }
    },
    {
      "fullUrl": "urn:uuid:bba5c8b7-21a4-4032-895a-e8c891877a3f",
      "resource": {
        "resourceType": "Observation",
        "id": "bba5c8b7-21a4-4032-895a-e8c891877a3f",
        "meta": {
          "profile": [
            "http://hl7.org/fhir/StructureDefinition/vitalsigns"
          ]
        },
        "category": [
          {
            "coding": [
              {
                "system": "http://terminology.hl7.org/CodeSystem/observation-category",
                "code": "vital-signs",
                "display": "Vital Signs"
              }
            ]
          }
        ],
        "valueQuantity": {
          "value": 102,
          "code": "mm[Hg]",
          "unit": "mm[Hg]"
        },
        "text": {
          "status": "generated",
          "div": "<div xmlns=\"http://www.w3.org/1999/xhtml\"><table class=\"hl7__ips\"><tr><th>Vital Sign</th><th>Date</th><th>Measurement</th></tr><tr><td>Systolic Blood Pressure</td><td>18-Jun-2025</td><td>102 mm[Hg]</td></tr></table></div>"
        },
        "status": "final",
        "code": {
          "coding": [
            {
              "code": "$8480-6",
              "system": "http://loinc.org",
              "display": "Systolic Blood Pressure"
            }
          ]
        },
        "subject": {
          "reference": "urn:uuid:430d9c55-ab93-4845-8adc-dc58c90b9d13",
          "display": "Θεμιστοκλής Λιναρδάκη"
        },
        "effectiveDateTime": "2025-06-18"
      }
    },
    {
      "fullUrl": "urn:uuid:0621cd74-78ad-4df9-9a50-fa431d3e0bf3",
      "resource": {
        "resourceType": "Observation",
        "id": "0621cd74-78ad-4df9-9a50-fa431d3e0bf3",
        "meta": {
          "profile": [
            "http://hl7.org/fhir/StructureDefinition/vitalsigns"
          ]
        },
        "category": [
          {
            "coding": [
              {
                "system": "http://terminology.hl7.org/CodeSystem/observation-category",
                "code": "vital-signs",
                "display": "Vital Signs"
              }
            ]
          }
        ],
        "valueQuantity": {
          "value": 95,
          "code": "/min",
          "unit": "/min"
        },
        "text": {
          "status": "generated",
          "div": "<div xmlns=\"http://www.w3.org/1999/xhtml\"><table class=\"hl7__ips\"><tr><th>Vital Sign</th><th>Date</th><th>Measurement</th></tr><tr><td>Heart rate</td><td>18-Jun-2025</td><td>95 /min</td></tr></table></div>"
        },
        "status": "final",
        "code": {
          "coding": [
            {
              "code": "$8867-4",
              "system": "http://loinc.org",
              "display": "Heart rate"
            }
          ]
        },
        "subject": {
          "reference": "urn:uuid:430d9c55-ab93-4845-8adc-dc58c90b9d13",
          "display": "Θεμιστοκλής Λιναρδάκη"
        },
        "effectiveDateTime": "2025-06-18"
      }
    },
    {
      "fullUrl": "urn:uuid:56c21a7c-9465-4803-8c64-b5107b31a743",
      "resource": {
        "resourceType": "Observation",
        "id": "56c21a7c-9465-4803-8c64-b5107b31a743",
        "meta": {
          "profile": [
            "http://hl7.org/fhir/StructureDefinition/vitalsigns"
          ]
        },
        "category": [
          {
            "coding": [
              {
                "system": "http://terminology.hl7.org/CodeSystem/observation-category",
                "code": "vital-signs",
                "display": "Vital Signs"
              }
            ]
          }
        ],
        "valueQuantity": {
          "value": 12,
          "code": "/min",
          "unit": "/min"
        },
        "text": {
          "status": "generated",
          "div": "<div xmlns=\"http://www.w3.org/1999/xhtml\"><table class=\"hl7__ips\"><tr><th>Vital Sign</th><th>Date</th><th>Measurement</th></tr><tr><td>Respiratory rate</td><td>18-Jun-2025</td><td>12 /min</td></tr></table></div>"
        },
        "status": "final",
        "code": {
          "coding": [
            {
              "code": "$9279-1",
              "system": "http://loinc.org",
              "display": "Respiratory rate"
            }
          ]
        },
        "subject": {
          "reference": "urn:uuid:430d9c55-ab93-4845-8adc-dc58c90b9d13",
          "display": "Θεμιστοκλής Λιναρδάκη"
        },
        "effectiveDateTime": "2025-06-18"
      }
    },
    {
      "fullUrl": "urn:uuid:4454e867-40a3-4071-b46f-9ad0cc4eae1f",
      "resource": {
        "resourceType": "Observation",
        "id": "4454e867-40a3-4071-b46f-9ad0cc4eae1f",
        "meta": {
          "profile": [
            "http://hl7.org/fhir/StructureDefinition/vitalsigns"
          ]
        },
        "category": [
          {
            "coding": [
              {
                "system": "http://terminology.hl7.org/CodeSystem/observation-category",
                "code": "vital-signs",
                "display": "Vital Signs"
              }
            ]
          }
        ],
        "valueQuantity": {
          "value": 187.3,
          "code": "cm",
          "unit": "cm"
        },
        "text": {
          "status": "generated",
          "div": "<div xmlns=\"http://www.w3.org/1999/xhtml\"><table class=\"hl7__ips\"><tr><th>Vital Sign</th><th>Date</th><th>Measurement</th></tr><tr><td>Body Height</td><td>23-Apr-2025</td><td>187.3 cm</td></tr></table></div>"
        },
        "status": "final",
        "code": {
          "coding": [
            {
              "code": "$8302-2",
              "system": "http://loinc.org",
              "display": "Body Height"
            }
          ]
        },
        "subject": {
          "reference": "urn:uuid:430d9c55-ab93-4845-8adc-dc58c90b9d13",
          "display": "Θεμιστοκλής Λιναρδάκη"
        },
        "effectiveDateTime": "2025-04-23"
      }
    },
    {
      "fullUrl": "urn:uuid:446db8e9-af5f-498e-af92-48e5d8b4bba7",
      "resource": {
        "resourceType": "Observation",
        "id": "446db8e9-af5f-498e-af92-48e5d8b4bba7",
        "meta": {
          "profile": [
            "http://hl7.org/fhir/StructureDefinition/vitalsigns"
          ]
        },
        "category": [
          {
            "coding": [
              {
                "system": "http://terminology.hl7.org/CodeSystem/observation-category",
                "code": "vital-signs",
                "display": "Vital Signs"
              }
            ]
          }
        ],
        "valueQuantity": {
          "value": 3,
          "code": "{score}",
          "unit": "{score}"
        },
        "text": {
          "status": "generated",
          "div": "<div xmlns=\"http://www.w3.org/1999/xhtml\"><table class=\"hl7__ips\"><tr><th>Vital Sign</th><th>Date</th><th>Measurement</th></tr><tr><td>Pain severity - 0-10 verbal numeric rating [Score] - Reported</td><td>23-Apr-2025</td><td>3 {score}</td></tr></table></div>"
        },
        "status": "final",
        "code": {
          "coding": [
            {
              "code": "$72514-3",
              "system": "http://loinc.org",
              "display": "Pain severity - 0-10 verbal numeric rating [Score] - Reported"
            }
          ]
        },
        "subject": {
          "reference": "urn:uuid:430d9c55-ab93-4845-8adc-dc58c90b9d13",
          "display": "Θεμιστοκλής Λιναρδάκη"
        },
        "effectiveDateTime": "2025-04-23"
      }
    },
    {
      "fullUrl": "urn:uuid:59d03ce8-ce75-434e-9f31-fe32dd701f3a",
      "resource": {
        "resourceType": "Observation",
        "id": "59d03ce8-ce75-434e-9f31-fe32dd701f3a",
        "meta": {
          "profile": [
            "http://hl7.org/fhir/StructureDefinition/vitalsigns"
          ]
        },
        "category": [
          {
            "coding": [
              {
                "system": "http://terminology.hl7.org/CodeSystem/observation-category",
                "code": "vital-signs",
                "display": "Vital Signs"
              }
            ]
          }
        ],
        "valueQuantity": {
          "value": 101.5,
          "code": "kg",
          "unit": "kg"
        },
        "text": {
          "status": "generated",
          "div": "<div xmlns=\"http://www.w3.org/1999/xhtml\"><table class=\"hl7__ips\"><tr><th>Vital Sign</th><th>Date</th><th>Measurement</th></tr><tr><td>Body Weight</td><td>23-Apr-2025</td><td>101.5 kg</td></tr></table></div>"
        },
        "status": "final",
        "code": {
          "coding": [
            {
              "code": "$29463-7",
              "system": "http://loinc.org",
              "display": "Body Weight"
            }
          ]
        },
        "subject": {
          "reference": "urn:uuid:430d9c55-ab93-4845-8adc-dc58c90b9d13",
          "display": "Θεμιστοκλής Λιναρδάκη"
        },
        "effectiveDateTime": "2025-04-23"
      }
    },
    {
      "fullUrl": "urn:uuid:e2cee620-fd68-46aa-8122-29c0d56a757b",
      "resource": {
        "resourceType": "Observation",
        "id": "e2cee620-fd68-46aa-8122-29c0d56a757b",
        "meta": {
          "profile": [
            "http://hl7.org/fhir/StructureDefinition/vitalsigns"
          ]
        },
        "category": [
          {
            "coding": [
              {
                "system": "http://terminology.hl7.org/CodeSystem/observation-category",
                "code": "vital-signs",
                "display": "Vital Signs"
              }
            ]
          }
        ],
        "valueQuantity": {
          "value": 28.9,
          "code": "kg/m2",
          "unit": "kg/m2"
        },
        "text": {
          "status": "generated",
          "div": "<div xmlns=\"http://www.w3.org/1999/xhtml\"><table class=\"hl7__ips\"><tr><th>Vital Sign</th><th>Date</th><th>Measurement</th></tr><tr><td>Body mass index (BMI) [Ratio]</td><td>23-Apr-2025</td><td>28.9 kg/m2</td></tr></table></div>"
        },
        "status": "final",
        "code": {
          "coding": [
            {
              "code": "$39156-5",
              "system": "http://loinc.org",
              "display": "Body mass index (BMI) [Ratio]"
            }
          ]
        },
        "subject": {
          "reference": "urn:uuid:430d9c55-ab93-4845-8adc-dc58c90b9d13",
          "display": "Θεμιστοκλής Λιναρδάκη"
        },
        "effectiveDateTime": "2025-04-23"
      }
    },
    {
      "fullUrl": "urn:uuid:176abccf-a12c-4ef0-be99-4fa94a7d84ac",
      "resource": {
        "resourceType": "Observation",
        "id": "176abccf-a12c-4ef0-be99-4fa94a7d84ac",
        "meta": {
          "profile": [
            "http://hl7.org/fhir/StructureDefinition/vitalsigns"
          ]
        },
        "category": [
          {
            "coding": [
              {
                "system": "http://terminology.hl7.org/CodeSystem/observation-category",
                "code": "vital-signs",
                "display": "Vital Signs"
              }
            ]
          }
        ],
        "valueQuantity": {
          "value": 82,
          "code": "mm[Hg]",
          "unit": "mm[Hg]"
        },
        "text": {
          "status": "generated",
          "div": "<div xmlns=\"http://www.w3.org/1999/xhtml\"><table class=\"hl7__ips\"><tr><th>Vital Sign</th><th>Date</th><th>Measurement</th></tr><tr><td>Diastolic Blood Pressure</td><td>23-Apr-2025</td><td>82 mm[Hg]</td></tr></table></div>"
        },
        "status": "final",
        "code": {
          "coding": [
            {
              "code": "$8462-4",
              "system": "http://loinc.org",
              "display": "Diastolic Blood Pressure"
            }
          ]
        },
        "subject": {
          "reference": "urn:uuid:430d9c55-ab93-4845-8adc-dc58c90b9d13",
          "display": "Θεμιστοκλής Λιναρδάκη"
        },
        "effectiveDateTime": "2025-04-23"
      }
    },
    {
      "fullUrl": "urn:uuid:0f692ff3-893b-4d79-8b7d-e7c6e4c50d8c",
      "resource": {
        "resourceType": "Observation",
        "id": "0f692ff3-893b-4d79-8b7d-e7c6e4c50d8c",
        "meta": {
          "profile": [
            "http://hl7.org/fhir/StructureDefinition/vitalsigns"
          ]
        },
        "category": [
          {
            "coding": [
              {
                "system": "http://terminology.hl7.org/CodeSystem/observation-category",
                "code": "vital-signs",
                "display": "Vital Signs"
              }
            ]
          }
        ],
        "valueQuantity": {
          "value": 95,
          "code": "mm[Hg]",
          "unit": "mm[Hg]"
        },
        "text": {
          "status": "generated",
          "div": "<div xmlns=\"http://www.w3.org/1999/xhtml\"><table class=\"hl7__ips\"><tr><th>Vital Sign</th><th>Date</th><th>Measurement</th></tr><tr><td>Systolic Blood Pressure</td><td>23-Apr-2025</td><td>95 mm[Hg]</td></tr></table></div>"
        },
        "status": "final",
        "code": {
          "coding": [
            {
              "code": "$8480-6",
              "system": "http://loinc.org",
              "display": "Systolic Blood Pressure"
            }
          ]
        },
        "subject": {
          "reference": "urn:uuid:430d9c55-ab93-4845-8adc-dc58c90b9d13",
          "display": "Θεμιστοκλής Λιναρδάκη"
        },
        "effectiveDateTime": "2025-04-23"
      }
    },
    {
      "fullUrl": "urn:uuid:12f4ba3b-88c9-4f10-826e-c710142e2e70",
      "resource": {
        "resourceType": "Observation",
        "id": "12f4ba3b-88c9-4f10-826e-c710142e2e70",
        "meta": {
          "profile": [
            "http://hl7.org/fhir/StructureDefinition/vitalsigns"
          ]
        },
        "category": [
          {
            "coding": [
              {
                "system": "http://terminology.hl7.org/CodeSystem/observation-category",
                "code": "vital-signs",
                "display": "Vital Signs"
              }
            ]
          }
        ],
        "valueQuantity": {
          "value": 94,
          "code": "/min",
          "unit": "/min"
        },
        "text": {
          "status": "generated",
          "div": "<div xmlns=\"http://www.w3.org/1999/xhtml\"><table class=\"hl7__ips\"><tr><th>Vital Sign</th><th>Date</th><th>Measurement</th></tr><tr><td>Heart rate</td><td>23-Apr-2025</td><td>94 /min</td></tr></table></div>"
        },
        "status": "final",
        "code": {
          "coding": [
            {
              "code": "$8867-4",
              "system": "http://loinc.org",
              "display": "Heart rate"
            }
          ]
        },
        "subject": {
          "reference": "urn:uuid:430d9c55-ab93-4845-8adc-dc58c90b9d13",
          "display": "Θεμιστοκλής Λιναρδάκη"
        },
        "effectiveDateTime": "2025-04-23"
      }
    },
    {
      "fullUrl": "urn:uuid:a34fca39-aeb6-41ce-adee-1b24000bb77a",
      "resource": {
        "resourceType": "Observation",
        "id": "a34fca39-aeb6-41ce-adee-1b24000bb77a",
        "meta": {
          "profile": [
            "http://hl7.org/fhir/StructureDefinition/vitalsigns"
          ]
        },
        "category": [
          {
            "coding": [
              {
                "system": "http://terminology.hl7.org/CodeSystem/observation-category",
                "code": "vital-signs",
                "display": "Vital Signs"
              }
            ]
          }
        ],
        "valueQuantity": {
          "value": 15,
          "code": "/min",
          "unit": "/min"
        },
        "text": {
          "status": "generated",
          "div": "<div xmlns=\"http://www.w3.org/1999/xhtml\"><table class=\"hl7__ips\"><tr><th>Vital Sign</th><th>Date</th><th>Measurement</th></tr><tr><td>Respiratory rate</td><td>23-Apr-2025</td><td>15 /min</td></tr></table></div>"
        },
        "status": "final",
        "code": {
          "coding": [
            {
              "code": "$9279-1",
              "system": "http://loinc.org",
              "display": "Respiratory rate"
            }
          ]
        },
        "subject": {
          "reference": "urn:uuid:430d9c55-ab93-4845-8adc-dc58c90b9d13",
          "display": "Θεμιστοκλής Λιναρδάκη"
        },
        "effectiveDateTime": "2025-04-23"
      }
    },
    {
      "fullUrl": "urn:uuid:a1126f69-7369-4191-a77f-ca11decad579",
      "resource": {
        "resourceType": "Observation",
        "id": "a1126f69-7369-4191-a77f-ca11decad579",
        "meta": {
          "profile": [
            "http://hl7.eu/fhir/laboratory/StructureDefinition/Observation-resultslab-eu-lab"
          ]
        },
        "performer": [
          {
            "display": "The Central European Lab"
          }
        ],
        "category": [
          {
            "coding": [
              {
                "system": "http://terminology.hl7.org/CodeSystem/observation-category",
                "code": "laboratory"
              }
            ]
          }
        ],
        "code": {
          "coding": [
            {
              "code": "2345-7",
              "system": "http://loinc.org",
              "display": "Glucose [Mass/volume] in Serum or Plasma"
            }
          ],
          "text": "Glucose [Mass/volume] in Serum or Plasma"
        },
        "valueQuantity": {
          "system": "http://unitsofmeasure.org",
          "value": 68.6,
          "unit": "mg/dL",
          "code": "mg/dL"
        },
        "referenceRange": [
          {
            "low": {
              "value": 70,
              "code": "mg/dL",
              "system": "http://unitsofmeasure.org"
            }
          },
          {
            "high": {
              "value": 140,
              "code": "mg/dL",
              "system": "http://unitsofmeasure.org"
            }
          }
        ],
        "interpretation": [
          {
            "coding": [
              {
                "code": "L",
                "system": "http://terminology.hl7.org/CodeSystem/v3-ObservationInterpretation",
                "display": "Low"
              }
            ]
          }
        ],
        "text": {
          "status": "generated",
          "div": "<div xmlns=\"http://www.w3.org/1999/xhtml\"><table class=\"hl7__eu__lab__report\"><tr><th>Test</th><th>18-Jun-2025</th><th>Reference&#xA0;Range</th><th>Unit</th></tr><tr><td>Glucose [Mass/volume] in Serum or Plasma</td><td>68.6</td><td>70 - 140</td><td>L</td><td>mg/dL</td></tr></table></div>"
        },
        "status": "final",
        "subject": {
          "reference": "urn:uuid:430d9c55-ab93-4845-8adc-dc58c90b9d13",
          "display": "Θεμιστοκλής Λιναρδάκη"
        },
        "effectiveDateTime": "2025-06-18T06:16:00Z"
      }
    },
    {
      "fullUrl": "urn:uuid:121f134a-550d-4e81-a2d8-19b3d3019d9d",
      "resource": {
        "resourceType": "Observation",
        "id": "121f134a-550d-4e81-a2d8-19b3d3019d9d",
        "meta": {
          "profile": [
            "http://hl7.eu/fhir/laboratory/StructureDefinition/Observation-resultslab-eu-lab"
          ]
        },
        "performer": [
          {
            "display": "The Central European Lab"
          }
        ],
        "category": [
          {
            "coding": [
              {
                "system": "http://terminology.hl7.org/CodeSystem/observation-category",
                "code": "laboratory"
              }
            ]
          }
        ],
        "code": {
          "coding": [
            {
              "code": "3094-0",
              "system": "http://loinc.org",
              "display": "Urea nitrogen [Mass/volume] in Serum or Plasma"
            }
          ],
          "text": "Urea nitrogen [Mass/volume] in Serum or Plasma"
        },
        "valueQuantity": {
          "system": "http://unitsofmeasure.org",
          "value": 19.4,
          "unit": "mg/dL",
          "code": "mg/dL"
        },
        "referenceRange": [
          {
            "low": {
              "value": 7,
              "code": "mg/dL",
              "system": "http://unitsofmeasure.org"
            }
          },
          {
            "high": {
              "value": 20,
              "code": "mg/dL",
              "system": "http://unitsofmeasure.org"
            }
          }
        ],
        "text": {
          "status": "generated",
          "div": "<div xmlns=\"http://www.w3.org/1999/xhtml\"><table class=\"hl7__eu__lab__report\"><tr><th>Test</th><th>18-Jun-2025</th><th>Reference&#xA0;Range</th><th>Unit</th></tr><tr><td>Urea nitrogen [Mass/volume] in Serum or Plasma</td><td>19.4</td><td>7 - 20</td><td></td><td>mg/dL</td></tr></table></div>"
        },
        "status": "final",
        "subject": {
          "reference": "urn:uuid:430d9c55-ab93-4845-8adc-dc58c90b9d13",
          "display": "Θεμιστοκλής Λιναρδάκη"
        },
        "effectiveDateTime": "2025-06-18T06:16:00Z"
      }
    },
    {
      "fullUrl": "urn:uuid:3a6aabef-292c-4f9b-bb45-b25cbd2e56f9",
      "resource": {
        "resourceType": "Observation",
        "id": "3a6aabef-292c-4f9b-bb45-b25cbd2e56f9",
        "meta": {
          "profile": [
            "http://hl7.eu/fhir/laboratory/StructureDefinition/Observation-resultslab-eu-lab"
          ]
        },
        "performer": [
          {
            "display": "The Central European Lab"
          }
        ],
        "category": [
          {
            "coding": [
              {
                "system": "http://terminology.hl7.org/CodeSystem/observation-category",
                "code": "laboratory"
              }
            ]
          }
        ],
        "code": {
          "coding": [
            {
              "code": "2160-0",
              "system": "http://loinc.org",
              "display": "Creatinine [Mass/volume] in Serum or Plasma"
            }
          ],
          "text": "Creatinine [Mass/volume] in Serum or Plasma"
        },
        "valueQuantity": {
          "system": "http://unitsofmeasure.org",
          "value": 2,
          "unit": "mg/dL",
          "code": "mg/dL"
        },
        "referenceRange": [
          {
            "low": {
              "value": 0.9,
              "code": "mg/dL",
              "system": "http://unitsofmeasure.org"
            }
          },
          {
            "high": {
              "value": 1.3,
              "code": "mg/dL",
              "system": "http://unitsofmeasure.org"
            }
          }
        ],
        "interpretation": [
          {
            "coding": [
              {
                "code": "H",
                "system": "http://terminology.hl7.org/CodeSystem/v3-ObservationInterpretation",
                "display": "High"
              }
            ]
          }
        ],
        "text": {
          "status": "generated",
          "div": "<div xmlns=\"http://www.w3.org/1999/xhtml\"><table class=\"hl7__eu__lab__report\"><tr><th>Test</th><th>18-Jun-2025</th><th>Reference&#xA0;Range</th><th>Unit</th></tr><tr><td>Creatinine [Mass/volume] in Serum or Plasma</td><td>2.0</td><td>0.9 - 1.3</td><td>H</td><td>mg/dL</td></tr></table></div>"
        },
        "status": "final",
        "subject": {
          "reference": "urn:uuid:430d9c55-ab93-4845-8adc-dc58c90b9d13",
          "display": "Θεμιστοκλής Λιναρδάκη"
        },
        "effectiveDateTime": "2025-06-18T06:16:00Z"
      }
    },
    {
      "fullUrl": "urn:uuid:8f2d05f9-c9e5-4574-9c2d-ef0b1f939532",
      "resource": {
        "resourceType": "Observation",
        "id": "8f2d05f9-c9e5-4574-9c2d-ef0b1f939532",
        "meta": {
          "profile": [
            "http://hl7.eu/fhir/laboratory/StructureDefinition/Observation-resultslab-eu-lab"
          ]
        },
        "performer": [
          {
            "display": "The Central European Lab"
          }
        ],
        "category": [
          {
            "coding": [
              {
                "system": "http://terminology.hl7.org/CodeSystem/observation-category",
                "code": "laboratory"
              }
            ]
          }
        ],
        "code": {
          "coding": [
            {
              "code": "17861-6",
              "system": "http://loinc.org",
              "display": "Calcium [Mass/volume] in Serum or Plasma"
            }
          ],
          "text": "Calcium [Mass/volume] in Serum or Plasma"
        },
        "valueQuantity": {
          "system": "http://unitsofmeasure.org",
          "value": 10.2,
          "unit": "mg/dL",
          "code": "mg/dL"
        },
        "referenceRange": [
          {
            "low": {
              "value": 8.5,
              "code": "mg/dL",
              "system": "http://unitsofmeasure.org"
            }
          },
          {
            "high": {
              "value": 10.5,
              "code": "mg/dL",
              "system": "http://unitsofmeasure.org"
            }
          }
        ],
        "text": {
          "status": "generated",
          "div": "<div xmlns=\"http://www.w3.org/1999/xhtml\"><table class=\"hl7__eu__lab__report\"><tr><th>Test</th><th>18-Jun-2025</th><th>Reference&#xA0;Range</th><th>Unit</th></tr><tr><td>Calcium [Mass/volume] in Serum or Plasma</td><td>10.2</td><td>8.5 - 10.5</td><td></td><td>mg/dL</td></tr></table></div>"
        },
        "status": "final",
        "subject": {
          "reference": "urn:uuid:430d9c55-ab93-4845-8adc-dc58c90b9d13",
          "display": "Θεμιστοκλής Λιναρδάκη"
        },
        "effectiveDateTime": "2025-06-18T06:16:00Z"
      }
    },
    {
      "fullUrl": "urn:uuid:2a0db867-dcff-49c3-b274-8777faa8c7c2",
      "resource": {
        "resourceType": "Observation",
        "id": "2a0db867-dcff-49c3-b274-8777faa8c7c2",
        "meta": {
          "profile": [
            "http://hl7.eu/fhir/laboratory/StructureDefinition/Observation-resultslab-eu-lab"
          ]
        },
        "performer": [
          {
            "display": "The Central European Lab"
          }
        ],
        "category": [
          {
            "coding": [
              {
                "system": "http://terminology.hl7.org/CodeSystem/observation-category",
                "code": "laboratory"
              }
            ]
          }
        ],
        "code": {
          "coding": [
            {
              "code": "2951-2",
              "system": "http://loinc.org",
              "display": "Sodium [Moles/volume] in Serum or Plasma"
            }
          ],
          "text": "Sodium [Moles/volume] in Serum or Plasma"
        },
        "valueQuantity": {
          "system": "http://unitsofmeasure.org",
          "value": 137.6,
          "unit": "mmol/L",
          "code": "mmol/L"
        },
        "referenceRange": [
          {
            "low": {
              "value": 135,
              "code": "mmol/L",
              "system": "http://unitsofmeasure.org"
            }
          },
          {
            "high": {
              "value": 145,
              "code": "mmol/L",
              "system": "http://unitsofmeasure.org"
            }
          }
        ],
        "text": {
          "status": "generated",
          "div": "<div xmlns=\"http://www.w3.org/1999/xhtml\"><table class=\"hl7__eu__lab__report\"><tr><th>Test</th><th>18-Jun-2025</th><th>Reference&#xA0;Range</th><th>Unit</th></tr><tr><td>Sodium [Moles/volume] in Serum or Plasma</td><td>137.6</td><td>135 - 145</td><td></td><td>mmol/L</td></tr></table></div>"
        },
        "status": "final",
        "subject": {
          "reference": "urn:uuid:430d9c55-ab93-4845-8adc-dc58c90b9d13",
          "display": "Θεμιστοκλής Λιναρδάκη"
        },
        "effectiveDateTime": "2025-06-18T06:16:00Z"
      }
    },
    {
      "fullUrl": "urn:uuid:5b9a8b78-6a24-4e9b-8e5a-f486ca122344",
      "resource": {
        "resourceType": "Observation",
        "id": "5b9a8b78-6a24-4e9b-8e5a-f486ca122344",
        "meta": {
          "profile": [
            "http://hl7.eu/fhir/laboratory/StructureDefinition/Observation-resultslab-eu-lab"
          ]
        },
        "performer": [
          {
            "display": "The Central European Lab"
          }
        ],
        "category": [
          {
            "coding": [
              {
                "system": "http://terminology.hl7.org/CodeSystem/observation-category",
                "code": "laboratory"
              }
            ]
          }
        ],
        "code": {
          "coding": [
            {
              "code": "2823-3",
              "system": "http://loinc.org",
              "display": "Potassium [Moles/volume] in Serum or Plasma"
            }
          ],
          "text": "Potassium [Moles/volume] in Serum or Plasma"
        },
        "valueQuantity": {
          "system": "http://unitsofmeasure.org",
          "value": 4.1,
          "unit": "mmol/L",
          "code": "mmol/L"
        },
        "referenceRange": [
          {
            "low": {
              "value": 3.5,
              "code": "mmol/L",
              "system": "http://unitsofmeasure.org"
            }
          },
          {
            "high": {
              "value": 5,
              "code": "mmol/L",
              "system": "http://unitsofmeasure.org"
            }
          }
        ],
        "text": {
          "status": "generated",
          "div": "<div xmlns=\"http://www.w3.org/1999/xhtml\"><table class=\"hl7__eu__lab__report\"><tr><th>Test</th><th>18-Jun-2025</th><th>Reference&#xA0;Range</th><th>Unit</th></tr><tr><td>Potassium [Moles/volume] in Serum or Plasma</td><td>4.1</td><td>3.5 - 5</td><td></td><td>mmol/L</td></tr></table></div>"
        },
        "status": "final",
        "subject": {
          "reference": "urn:uuid:430d9c55-ab93-4845-8adc-dc58c90b9d13",
          "display": "Θεμιστοκλής Λιναρδάκη"
        },
        "effectiveDateTime": "2025-06-18T06:16:00Z"
      }
    },
    {
      "fullUrl": "urn:uuid:aea654c1-ca0c-473f-a0bd-aa77d3ff3289",
      "resource": {
        "resourceType": "Observation",
        "id": "aea654c1-ca0c-473f-a0bd-aa77d3ff3289",
        "meta": {
          "profile": [
            "http://hl7.eu/fhir/laboratory/StructureDefinition/Observation-resultslab-eu-lab"
          ]
        },
        "performer": [
          {
            "display": "The Central European Lab"
          }
        ],
        "category": [
          {
            "coding": [
              {
                "system": "http://terminology.hl7.org/CodeSystem/observation-category",
                "code": "laboratory"
              }
            ]
          }
        ],
        "code": {
          "coding": [
            {
              "code": "2075-0",
              "system": "http://loinc.org",
              "display": "Chloride [Moles/volume] in Serum or Plasma"
            }
          ],
          "text": "Chloride [Moles/volume] in Serum or Plasma"
        },
        "valueQuantity": {
          "system": "http://unitsofmeasure.org",
          "value": 109.1,
          "unit": "mmol/L",
          "code": "mmol/L"
        },
        "referenceRange": [
          {
            "low": {
              "value": 98,
              "code": "mmol/L",
              "system": "http://unitsofmeasure.org"
            }
          },
          {
            "high": {
              "value": 108,
              "code": "mmol/L",
              "system": "http://unitsofmeasure.org"
            }
          }
        ],
        "interpretation": [
          {
            "coding": [
              {
                "code": "H",
                "system": "http://terminology.hl7.org/CodeSystem/v3-ObservationInterpretation",
                "display": "High"
              }
            ]
          }
        ],
        "text": {
          "status": "generated",
          "div": "<div xmlns=\"http://www.w3.org/1999/xhtml\"><table class=\"hl7__eu__lab__report\"><tr><th>Test</th><th>18-Jun-2025</th><th>Reference&#xA0;Range</th><th>Unit</th></tr><tr><td>Chloride [Moles/volume] in Serum or Plasma</td><td>109.1</td><td>98 - 108</td><td>H</td><td>mmol/L</td></tr></table></div>"
        },
        "status": "final",
        "subject": {
          "reference": "urn:uuid:430d9c55-ab93-4845-8adc-dc58c90b9d13",
          "display": "Θεμιστοκλής Λιναρδάκη"
        },
        "effectiveDateTime": "2025-06-18T06:16:00Z"
      }
    },
    {
      "fullUrl": "urn:uuid:87e54a5b-367a-416e-a7be-20c117ffa758",
      "resource": {
        "resourceType": "Observation",
        "id": "87e54a5b-367a-416e-a7be-20c117ffa758",
        "meta": {
          "profile": [
            "http://hl7.eu/fhir/laboratory/StructureDefinition/Observation-resultslab-eu-lab"
          ]
        },
        "performer": [
          {
            "display": "The Central European Lab"
          }
        ],
        "category": [
          {
            "coding": [
              {
                "system": "http://terminology.hl7.org/CodeSystem/observation-category",
                "code": "laboratory"
              }
            ]
          }
        ],
        "code": {
          "coding": [
            {
              "code": "2028-9",
              "system": "http://loinc.org",
              "display": "Carbon dioxide, total [Moles/volume] in Serum or Plasma"
            }
          ],
          "text": "Carbon dioxide, total [Moles/volume] in Serum or Plasma"
        },
        "valueQuantity": {
          "system": "http://unitsofmeasure.org",
          "value": 21.8,
          "unit": "mmol/L",
          "code": "mmol/L"
        },
        "referenceRange": [
          {
            "low": {
              "value": 22,
              "code": "mmol/L",
              "system": "http://unitsofmeasure.org"
            }
          },
          {
            "high": {
              "value": 29,
              "code": "mmol/L",
              "system": "http://unitsofmeasure.org"
            }
          }
        ],
        "interpretation": [
          {
            "coding": [
              {
                "code": "L",
                "system": "http://terminology.hl7.org/CodeSystem/v3-ObservationInterpretation",
                "display": "Low"
              }
            ]
          }
        ],
        "text": {
          "status": "generated",
          "div": "<div xmlns=\"http://www.w3.org/1999/xhtml\"><table class=\"hl7__eu__lab__report\"><tr><th>Test</th><th>18-Jun-2025</th><th>Reference&#xA0;Range</th><th>Unit</th></tr><tr><td>Carbon dioxide, total [Moles/volume] in Serum or Plasma</td><td>21.8</td><td>22 - 29</td><td>L</td><td>mmol/L</td></tr></table></div>"
        },
        "status": "final",
        "subject": {
          "reference": "urn:uuid:430d9c55-ab93-4845-8adc-dc58c90b9d13",
          "display": "Θεμιστοκλής Λιναρδάκη"
        },
        "effectiveDateTime": "2025-06-18T06:16:00Z"
      }
    },
    {
      "fullUrl": "urn:uuid:c7957e29-90aa-4210-9294-38677a4c7867",
      "resource": {
        "resourceType": "Observation",
        "id": "c7957e29-90aa-4210-9294-38677a4c7867",
        "meta": {
          "profile": [
            "http://hl7.eu/fhir/laboratory/StructureDefinition/Observation-resultslab-eu-lab"
          ]
        },
        "performer": [
          {
            "display": "The Central European Lab"
          }
        ],
        "category": [
          {
            "coding": [
              {
                "system": "http://terminology.hl7.org/CodeSystem/observation-category",
                "code": "laboratory"
              }
            ]
          }
        ],
        "code": {
          "coding": [
            {
              "code": "5767-9",
              "system": "http://loinc.org",
              "display": "Appearance of Urine"
            }
          ],
          "text": "Appearance of Urine"
        },
        "text": {
          "status": "generated",
          "div": "<div xmlns=\"http://www.w3.org/1999/xhtml\"><table class=\"hl7__eu__lab__report\"><tr><th>Test</th><th>18-Jun-2025</th><th>Reference&#xA0;Range</th><th>Unit</th></tr><tr><td>Appearance of Urine</td></tr></table></div>"
        },
        "status": "final",
        "subject": {
          "reference": "urn:uuid:430d9c55-ab93-4845-8adc-dc58c90b9d13",
          "display": "Θεμιστοκλής Λιναρδάκη"
        },
        "effectiveDateTime": "2025-06-18T06:16:00Z"
      }
    },
    {
      "fullUrl": "urn:uuid:87a796bc-6483-4194-b9da-4166ab9375c1",
      "resource": {
        "resourceType": "Observation",
        "id": "87a796bc-6483-4194-b9da-4166ab9375c1",
        "meta": {
          "profile": [
            "http://hl7.eu/fhir/laboratory/StructureDefinition/Observation-resultslab-eu-lab"
          ]
        },
        "performer": [
          {
            "display": "The Central European Lab"
          }
        ],
        "category": [
          {
            "coding": [
              {
                "system": "http://terminology.hl7.org/CodeSystem/observation-category",
                "code": "laboratory"
              }
            ]
          }
        ],
        "code": {
          "coding": [
            {
              "code": "34533-0",
              "system": "http://loinc.org",
              "display": "Odor of Urine"
            }
          ],
          "text": "Odor of Urine"
        },
        "text": {
          "status": "generated",
          "div": "<div xmlns=\"http://www.w3.org/1999/xhtml\"><table class=\"hl7__eu__lab__report\"><tr><th>Test</th><th>18-Jun-2025</th><th>Reference&#xA0;Range</th><th>Unit</th></tr><tr><td>Odor of Urine</td></tr></table></div>"
        },
        "status": "final",
        "subject": {
          "reference": "urn:uuid:430d9c55-ab93-4845-8adc-dc58c90b9d13",
          "display": "Θεμιστοκλής Λιναρδάκη"
        },
        "effectiveDateTime": "2025-06-18T06:16:00Z"
      }
    },
    {
      "fullUrl": "urn:uuid:febf72a3-0afb-484f-a07a-8b8b8f40d063",
      "resource": {
        "resourceType": "Observation",
        "id": "febf72a3-0afb-484f-a07a-8b8b8f40d063",
        "meta": {
          "profile": [
            "http://hl7.eu/fhir/laboratory/StructureDefinition/Observation-resultslab-eu-lab"
          ]
        },
        "performer": [
          {
            "display": "The Central European Lab"
          }
        ],
        "category": [
          {
            "coding": [
              {
                "system": "http://terminology.hl7.org/CodeSystem/observation-category",
                "code": "laboratory"
              }
            ]
          }
        ],
        "code": {
          "coding": [
            {
              "code": "32167-9",
              "system": "http://loinc.org",
              "display": "Clarity of Urine"
            }
          ],
          "text": "Clarity of Urine"
        },
        "text": {
          "status": "generated",
          "div": "<div xmlns=\"http://www.w3.org/1999/xhtml\"><table class=\"hl7__eu__lab__report\"><tr><th>Test</th><th>18-Jun-2025</th><th>Reference&#xA0;Range</th><th>Unit</th></tr><tr><td>Clarity of Urine</td></tr></table></div>"
        },
        "status": "final",
        "subject": {
          "reference": "urn:uuid:430d9c55-ab93-4845-8adc-dc58c90b9d13",
          "display": "Θεμιστοκλής Λιναρδάκη"
        },
        "effectiveDateTime": "2025-06-18T06:16:00Z"
      }
    },
    {
      "fullUrl": "urn:uuid:a0a4ae84-91b4-42a1-a2c2-d9bff49644b3",
      "resource": {
        "resourceType": "Observation",
        "id": "a0a4ae84-91b4-42a1-a2c2-d9bff49644b3",
        "meta": {
          "profile": [
            "http://hl7.eu/fhir/laboratory/StructureDefinition/Observation-resultslab-eu-lab"
          ]
        },
        "performer": [
          {
            "display": "The Central European Lab"
          }
        ],
        "category": [
          {
            "coding": [
              {
                "system": "http://terminology.hl7.org/CodeSystem/observation-category",
                "code": "laboratory"
              }
            ]
          }
        ],
        "code": {
          "coding": [
            {
              "code": "5778-6",
              "system": "http://loinc.org",
              "display": "Color of Urine"
            }
          ],
          "text": "Color of Urine"
        },
        "text": {
          "status": "generated",
          "div": "<div xmlns=\"http://www.w3.org/1999/xhtml\"><table class=\"hl7__eu__lab__report\"><tr><th>Test</th><th>18-Jun-2025</th><th>Reference&#xA0;Range</th><th>Unit</th></tr><tr><td>Color of Urine</td></tr></table></div>"
        },
        "status": "final",
        "subject": {
          "reference": "urn:uuid:430d9c55-ab93-4845-8adc-dc58c90b9d13",
          "display": "Θεμιστοκλής Λιναρδάκη"
        },
        "effectiveDateTime": "2025-06-18T06:16:00Z"
      }
    },
    {
      "fullUrl": "urn:uuid:373d3596-002d-491e-95a9-21138ee01463",
      "resource": {
        "resourceType": "Observation",
        "id": "373d3596-002d-491e-95a9-21138ee01463",
        "meta": {
          "profile": [
            "http://hl7.eu/fhir/laboratory/StructureDefinition/Observation-resultslab-eu-lab"
          ]
        },
        "performer": [
          {
            "display": "The Central European Lab"
          }
        ],
        "category": [
          {
            "coding": [
              {
                "system": "http://terminology.hl7.org/CodeSystem/observation-category",
                "code": "laboratory"
              }
            ]
          }
        ],
        "code": {
          "coding": [
            {
              "code": "5792-7",
              "system": "http://loinc.org",
              "display": "Glucose [Mass/volume] in Urine by Test strip"
            }
          ],
          "text": "Glucose [Mass/volume] in Urine by Test strip"
        },
        "valueQuantity": {
          "system": "http://unitsofmeasure.org",
          "value": 2.3,
          "unit": "mg/dL",
          "code": "mg/dL"
        },
        "referenceRange": [
          {
            "low": {
              "value": 0,
              "code": "mg/dL",
              "system": "http://unitsofmeasure.org"
            }
          },
          {
            "high": {
              "value": 0.8,
              "code": "mg/dL",
              "system": "http://unitsofmeasure.org"
            }
          }
        ],
        "interpretation": [
          {
            "coding": [
              {
                "code": "H",
                "system": "http://terminology.hl7.org/CodeSystem/v3-ObservationInterpretation",
                "display": "High"
              }
            ]
          }
        ],
        "text": {
          "status": "generated",
          "div": "<div xmlns=\"http://www.w3.org/1999/xhtml\"><table class=\"hl7__eu__lab__report\"><tr><th>Test</th><th>18-Jun-2025</th><th>Reference&#xA0;Range</th><th>Unit</th></tr><tr><td>Glucose [Mass/volume] in Urine by Test strip</td><td>2.3</td><td>0 - 0.8</td><td>H</td><td>mg/dL</td></tr></table></div>"
        },
        "status": "final",
        "subject": {
          "reference": "urn:uuid:430d9c55-ab93-4845-8adc-dc58c90b9d13",
          "display": "Θεμιστοκλής Λιναρδάκη"
        },
        "effectiveDateTime": "2025-06-18T06:16:00Z"
      }
    },
    {
      "fullUrl": "urn:uuid:e067647c-e132-4ee2-b03b-f6c1facab525",
      "resource": {
        "resourceType": "Observation",
        "id": "e067647c-e132-4ee2-b03b-f6c1facab525",
        "meta": {
          "profile": [
            "http://hl7.eu/fhir/laboratory/StructureDefinition/Observation-resultslab-eu-lab"
          ]
        },
        "performer": [
          {
            "display": "The Central European Lab"
          }
        ],
        "category": [
          {
            "coding": [
              {
                "system": "http://terminology.hl7.org/CodeSystem/observation-category",
                "code": "laboratory"
              }
            ]
          }
        ],
        "code": {
          "coding": [
            {
              "code": "25428-4",
              "system": "http://loinc.org",
              "display": "Glucose [Presence] in Urine by Test strip"
            }
          ],
          "text": "Glucose [Presence] in Urine by Test strip"
        },
        "text": {
          "status": "generated",
          "div": "<div xmlns=\"http://www.w3.org/1999/xhtml\"><table class=\"hl7__eu__lab__report\"><tr><th>Test</th><th>18-Jun-2025</th><th>Reference&#xA0;Range</th><th>Unit</th></tr><tr><td>Glucose [Presence] in Urine by Test strip</td></tr></table></div>"
        },
        "status": "final",
        "subject": {
          "reference": "urn:uuid:430d9c55-ab93-4845-8adc-dc58c90b9d13",
          "display": "Θεμιστοκλής Λιναρδάκη"
        },
        "effectiveDateTime": "2025-06-18T06:16:00Z"
      }
    },
    {
      "fullUrl": "urn:uuid:fc128aa4-6417-4674-9189-7a15c96503aa",
      "resource": {
        "resourceType": "Observation",
        "id": "fc128aa4-6417-4674-9189-7a15c96503aa",
        "meta": {
          "profile": [
            "http://hl7.eu/fhir/laboratory/StructureDefinition/Observation-resultslab-eu-lab"
          ]
        },
        "performer": [
          {
            "display": "The Central European Lab"
          }
        ],
        "category": [
          {
            "coding": [
              {
                "system": "http://terminology.hl7.org/CodeSystem/observation-category",
                "code": "laboratory"
              }
            ]
          }
        ],
        "code": {
          "coding": [
            {
              "code": "20505-4",
              "system": "http://loinc.org",
              "display": "Bilirubin.total [Mass/volume] in Urine by Test strip"
            }
          ],
          "text": "Bilirubin.total [Mass/volume] in Urine by Test strip"
        },
        "valueQuantity": {
          "system": "http://unitsofmeasure.org",
          "value": 0.3,
          "unit": "mg/dL",
          "code": "mg/dL"
        },
        "referenceRange": [
          {
            "low": {
              "value": 0.2,
              "code": "mg/dL",
              "system": "http://unitsofmeasure.org"
            }
          },
          {
            "high": {
              "value": 1,
              "code": "mg/dL",
              "system": "http://unitsofmeasure.org"
            }
          }
        ],
        "text": {
          "status": "generated",
          "div": "<div xmlns=\"http://www.w3.org/1999/xhtml\"><table class=\"hl7__eu__lab__report\"><tr><th>Test</th><th>18-Jun-2025</th><th>Reference&#xA0;Range</th><th>Unit</th></tr><tr><td>Bilirubin.total [Mass/volume] in Urine by Test strip</td><td>0.3</td><td>0.2 - 1</td><td></td><td>mg/dL</td></tr></table></div>"
        },
        "status": "final",
        "subject": {
          "reference": "urn:uuid:430d9c55-ab93-4845-8adc-dc58c90b9d13",
          "display": "Θεμιστοκλής Λιναρδάκη"
        },
        "effectiveDateTime": "2025-06-18T06:16:00Z"
      }
    },
    {
      "fullUrl": "urn:uuid:b5f87fe4-2438-417f-b057-c98a2f22e3bc",
      "resource": {
        "resourceType": "Observation",
        "id": "b5f87fe4-2438-417f-b057-c98a2f22e3bc",
        "meta": {
          "profile": [
            "http://hl7.eu/fhir/laboratory/StructureDefinition/Observation-resultslab-eu-lab"
          ]
        },
        "performer": [
          {
            "display": "The Central European Lab"
          }
        ],
        "category": [
          {
            "coding": [
              {
                "system": "http://terminology.hl7.org/CodeSystem/observation-category",
                "code": "laboratory"
              }
            ]
          }
        ],
        "code": {
          "coding": [
            {
              "code": "5770-3",
              "system": "http://loinc.org",
              "display": "Bilirubin.total [Presence] in Urine by Test strip"
            }
          ],
          "text": "Bilirubin.total [Presence] in Urine by Test strip"
        },
        "text": {
          "status": "generated",
          "div": "<div xmlns=\"http://www.w3.org/1999/xhtml\"><table class=\"hl7__eu__lab__report\"><tr><th>Test</th><th>18-Jun-2025</th><th>Reference&#xA0;Range</th><th>Unit</th></tr><tr><td>Bilirubin.total [Presence] in Urine by Test strip</td></tr></table></div>"
        },
        "status": "final",
        "subject": {
          "reference": "urn:uuid:430d9c55-ab93-4845-8adc-dc58c90b9d13",
          "display": "Θεμιστοκλής Λιναρδάκη"
        },
        "effectiveDateTime": "2025-06-18T06:16:00Z"
      }
    },
    {
      "fullUrl": "urn:uuid:5c6d374f-a704-4496-abc0-22d9497f43af",
      "resource": {
        "resourceType": "Observation",
        "id": "5c6d374f-a704-4496-abc0-22d9497f43af",
        "meta": {
          "profile": [
            "http://hl7.eu/fhir/laboratory/StructureDefinition/Observation-resultslab-eu-lab"
          ]
        },
        "performer": [
          {
            "display": "The Central European Lab"
          }
        ],
        "category": [
          {
            "coding": [
              {
                "system": "http://terminology.hl7.org/CodeSystem/observation-category",
                "code": "laboratory"
              }
            ]
          }
        ],
        "code": {
          "coding": [
            {
              "code": "5797-6",
              "system": "http://loinc.org",
              "display": "Ketones [Mass/volume] in Urine by Test strip"
            }
          ],
          "text": "Ketones [Mass/volume] in Urine by Test strip"
        },
        "valueQuantity": {
          "system": "http://unitsofmeasure.org",
          "value": 16.5,
          "unit": "mg/dL",
          "code": "mg/dL"
        },
        "referenceRange": [
          {
            "low": {
              "value": 0,
              "code": "mg/dL",
              "system": "http://unitsofmeasure.org"
            }
          },
          {
            "high": {
              "value": 5,
              "code": "mg/dL",
              "system": "http://unitsofmeasure.org"
            }
          }
        ],
        "interpretation": [
          {
            "coding": [
              {
                "code": "H",
                "system": "http://terminology.hl7.org/CodeSystem/v3-ObservationInterpretation",
                "display": "High"
              }
            ]
          }
        ],
        "text": {
          "status": "generated",
          "div": "<div xmlns=\"http://www.w3.org/1999/xhtml\"><table class=\"hl7__eu__lab__report\"><tr><th>Test</th><th>18-Jun-2025</th><th>Reference&#xA0;Range</th><th>Unit</th></tr><tr><td>Ketones [Mass/volume] in Urine by Test strip</td><td>16.5</td><td>0 - 5</td><td>H</td><td>mg/dL</td></tr></table></div>"
        },
        "status": "final",
        "subject": {
          "reference": "urn:uuid:430d9c55-ab93-4845-8adc-dc58c90b9d13",
          "display": "Θεμιστοκλής Λιναρδάκη"
        },
        "effectiveDateTime": "2025-06-18T06:16:00Z"
      }
    },
    {
      "fullUrl": "urn:uuid:0e4050f2-aa39-4b9c-a60c-df42811e011d",
      "resource": {
        "resourceType": "Observation",
        "id": "0e4050f2-aa39-4b9c-a60c-df42811e011d",
        "meta": {
          "profile": [
            "http://hl7.eu/fhir/laboratory/StructureDefinition/Observation-resultslab-eu-lab"
          ]
        },
        "performer": [
          {
            "display": "The Central European Lab"
          }
        ],
        "category": [
          {
            "coding": [
              {
                "system": "http://terminology.hl7.org/CodeSystem/observation-category",
                "code": "laboratory"
              }
            ]
          }
        ],
        "code": {
          "coding": [
            {
              "code": "2514-8",
              "system": "http://loinc.org",
              "display": "Ketones [Presence] in Urine by Test strip"
            }
          ],
          "text": "Ketones [Presence] in Urine by Test strip"
        },
        "text": {
          "status": "generated",
          "div": "<div xmlns=\"http://www.w3.org/1999/xhtml\"><table class=\"hl7__eu__lab__report\"><tr><th>Test</th><th>18-Jun-2025</th><th>Reference&#xA0;Range</th><th>Unit</th></tr><tr><td>Ketones [Presence] in Urine by Test strip</td></tr></table></div>"
        },
        "status": "final",
        "subject": {
          "reference": "urn:uuid:430d9c55-ab93-4845-8adc-dc58c90b9d13",
          "display": "Θεμιστοκλής Λιναρδάκη"
        },
        "effectiveDateTime": "2025-06-18T06:16:00Z"
      }
    },
    {
      "fullUrl": "urn:uuid:5ec3b65d-bd0e-4cfe-984d-f668a4a24883",
      "resource": {
        "resourceType": "Observation",
        "id": "5ec3b65d-bd0e-4cfe-984d-f668a4a24883",
        "meta": {
          "profile": [
            "http://hl7.eu/fhir/laboratory/StructureDefinition/Observation-resultslab-eu-lab"
          ]
        },
        "performer": [
          {
            "display": "The Central European Lab"
          }
        ],
        "category": [
          {
            "coding": [
              {
                "system": "http://terminology.hl7.org/CodeSystem/observation-category",
                "code": "laboratory"
              }
            ]
          }
        ],
        "code": {
          "coding": [
            {
              "code": "5811-5",
              "system": "http://loinc.org",
              "display": "Specific gravity of Urine by Test strip"
            }
          ],
          "text": "Specific gravity of Urine by Test strip"
        },
        "valueQuantity": {
          "system": "http://unitsofmeasure.org",
          "value": 1,
          "unit": "{nominal}",
          "code": "{nominal}"
        },
        "referenceRange": [
          {
            "low": {
              "value": 1.005,
              "code": "g/mL",
              "system": "http://unitsofmeasure.org"
            }
          },
          {
            "high": {
              "value": 1.03,
              "code": "g/mL",
              "system": "http://unitsofmeasure.org"
            }
          }
        ],
        "interpretation": [
          {
            "coding": [
              {
                "code": "L",
                "system": "http://terminology.hl7.org/CodeSystem/v3-ObservationInterpretation",
                "display": "Low"
              }
            ]
          }
        ],
        "text": {
          "status": "generated",
          "div": "<div xmlns=\"http://www.w3.org/1999/xhtml\"><table class=\"hl7__eu__lab__report\"><tr><th>Test</th><th>18-Jun-2025</th><th>Reference&#xA0;Range</th><th>Unit</th></tr><tr><td>Specific gravity of Urine by Test strip</td><td>1.0</td><td>1.005 - 1.03</td><td>L</td><td>{nominal}</td></tr></table></div>"
        },
        "status": "final",
        "subject": {
          "reference": "urn:uuid:430d9c55-ab93-4845-8adc-dc58c90b9d13",
          "display": "Θεμιστοκλής Λιναρδάκη"
        },
        "effectiveDateTime": "2025-06-18T06:16:00Z"
      }
    },
    {
      "fullUrl": "urn:uuid:45740288-8e85-4aab-a0fc-95c1d37b450a",
      "resource": {
        "resourceType": "Observation",
        "id": "45740288-8e85-4aab-a0fc-95c1d37b450a",
        "meta": {
          "profile": [
            "http://hl7.eu/fhir/laboratory/StructureDefinition/Observation-resultslab-eu-lab"
          ]
        },
        "performer": [
          {
            "display": "The Central European Lab"
          }
        ],
        "category": [
          {
            "coding": [
              {
                "system": "http://terminology.hl7.org/CodeSystem/observation-category",
                "code": "laboratory"
              }
            ]
          }
        ],
        "code": {
          "coding": [
            {
              "code": "5803-2",
              "system": "http://loinc.org",
              "display": "pH of Urine by Test strip"
            }
          ],
          "text": "pH of Urine by Test strip"
        },
        "valueQuantity": {
          "system": "http://unitsofmeasure.org",
          "value": 6.6,
          "unit": "pH",
          "code": "pH"
        },
        "referenceRange": [
          {
            "low": {
              "value": 4.6,
              "code": "pH",
              "system": "http://unitsofmeasure.org"
            }
          },
          {
            "high": {
              "value": 7,
              "code": "pH",
              "system": "http://unitsofmeasure.org"
            }
          }
        ],
        "text": {
          "status": "generated",
          "div": "<div xmlns=\"http://www.w3.org/1999/xhtml\"><table class=\"hl7__eu__lab__report\"><tr><th>Test</th><th>18-Jun-2025</th><th>Reference&#xA0;Range</th><th>Unit</th></tr><tr><td>pH of Urine by Test strip</td><td>6.6</td><td>4.6 - 7</td><td></td><td>pH</td></tr></table></div>"
        },
        "status": "final",
        "subject": {
          "reference": "urn:uuid:430d9c55-ab93-4845-8adc-dc58c90b9d13",
          "display": "Θεμιστοκλής Λιναρδάκη"
        },
        "effectiveDateTime": "2025-06-18T06:16:00Z"
      }
    },
    {
      "fullUrl": "urn:uuid:94267860-e3c3-40a5-b06d-e804be8c57f0",
      "resource": {
        "resourceType": "Observation",
        "id": "94267860-e3c3-40a5-b06d-e804be8c57f0",
        "meta": {
          "profile": [
            "http://hl7.eu/fhir/laboratory/StructureDefinition/Observation-resultslab-eu-lab"
          ]
        },
        "performer": [
          {
            "display": "The Central European Lab"
          }
        ],
        "category": [
          {
            "coding": [
              {
                "system": "http://terminology.hl7.org/CodeSystem/observation-category",
                "code": "laboratory"
              }
            ]
          }
        ],
        "code": {
          "coding": [
            {
              "code": "5804-0",
              "system": "http://loinc.org",
              "display": "Protein [Mass/volume] in Urine by Test strip"
            }
          ],
          "text": "Protein [Mass/volume] in Urine by Test strip"
        },
        "valueQuantity": {
          "system": "http://unitsofmeasure.org",
          "value": 243.1,
          "unit": "mg/dL",
          "code": "mg/dL"
        },
        "referenceRange": [
          {
            "low": {
              "value": 0,
              "code": "mg/dL",
              "system": "http://unitsofmeasure.org"
            }
          },
          {
            "high": {
              "value": 150,
              "code": "mg/dL",
              "system": "http://unitsofmeasure.org"
            }
          }
        ],
        "interpretation": [
          {
            "coding": [
              {
                "code": "H",
                "system": "http://terminology.hl7.org/CodeSystem/v3-ObservationInterpretation",
                "display": "High"
              }
            ]
          }
        ],
        "text": {
          "status": "generated",
          "div": "<div xmlns=\"http://www.w3.org/1999/xhtml\"><table class=\"hl7__eu__lab__report\"><tr><th>Test</th><th>18-Jun-2025</th><th>Reference&#xA0;Range</th><th>Unit</th></tr><tr><td>Protein [Mass/volume] in Urine by Test strip</td><td>243.1</td><td>0 - 150</td><td>H</td><td>mg/dL</td></tr></table></div>"
        },
        "status": "final",
        "subject": {
          "reference": "urn:uuid:430d9c55-ab93-4845-8adc-dc58c90b9d13",
          "display": "Θεμιστοκλής Λιναρδάκη"
        },
        "effectiveDateTime": "2025-06-18T06:16:00Z"
      }
    },
    {
      "fullUrl": "urn:uuid:a6e477fa-6e32-4dbc-b421-64d901f244ee",
      "resource": {
        "resourceType": "Observation",
        "id": "a6e477fa-6e32-4dbc-b421-64d901f244ee",
        "meta": {
          "profile": [
            "http://hl7.eu/fhir/laboratory/StructureDefinition/Observation-resultslab-eu-lab"
          ]
        },
        "performer": [
          {
            "display": "The Central European Lab"
          }
        ],
        "category": [
          {
            "coding": [
              {
                "system": "http://terminology.hl7.org/CodeSystem/observation-category",
                "code": "laboratory"
              }
            ]
          }
        ],
        "code": {
          "coding": [
            {
              "code": "20454-5",
              "system": "http://loinc.org",
              "display": "Protein [Presence] in Urine by Test strip"
            }
          ],
          "text": "Protein [Presence] in Urine by Test strip"
        },
        "text": {
          "status": "generated",
          "div": "<div xmlns=\"http://www.w3.org/1999/xhtml\"><table class=\"hl7__eu__lab__report\"><tr><th>Test</th><th>18-Jun-2025</th><th>Reference&#xA0;Range</th><th>Unit</th></tr><tr><td>Protein [Presence] in Urine by Test strip</td></tr></table></div>"
        },
        "status": "final",
        "subject": {
          "reference": "urn:uuid:430d9c55-ab93-4845-8adc-dc58c90b9d13",
          "display": "Θεμιστοκλής Λιναρδάκη"
        },
        "effectiveDateTime": "2025-06-18T06:16:00Z"
      }
    },
    {
      "fullUrl": "urn:uuid:63d7f9f4-5ba1-4eda-a583-20a5f0803325",
      "resource": {
        "resourceType": "Observation",
        "id": "63d7f9f4-5ba1-4eda-a583-20a5f0803325",
        "meta": {
          "profile": [
            "http://hl7.eu/fhir/laboratory/StructureDefinition/Observation-resultslab-eu-lab"
          ]
        },
        "performer": [
          {
            "display": "The Central European Lab"
          }
        ],
        "category": [
          {
            "coding": [
              {
                "system": "http://terminology.hl7.org/CodeSystem/observation-category",
                "code": "laboratory"
              }
            ]
          }
        ],
        "code": {
          "coding": [
            {
              "code": "5802-4",
              "system": "http://loinc.org",
              "display": "Nitrite [Presence] in Urine by Test strip"
            }
          ],
          "text": "Nitrite [Presence] in Urine by Test strip"
        },
        "text": {
          "status": "generated",
          "div": "<div xmlns=\"http://www.w3.org/1999/xhtml\"><table class=\"hl7__eu__lab__report\"><tr><th>Test</th><th>18-Jun-2025</th><th>Reference&#xA0;Range</th><th>Unit</th></tr><tr><td>Nitrite [Presence] in Urine by Test strip</td></tr></table></div>"
        },
        "status": "final",
        "subject": {
          "reference": "urn:uuid:430d9c55-ab93-4845-8adc-dc58c90b9d13",
          "display": "Θεμιστοκλής Λιναρδάκη"
        },
        "effectiveDateTime": "2025-06-18T06:16:00Z"
      }
    },
    {
      "fullUrl": "urn:uuid:9f37e604-4bf6-4daa-82b9-7127779e4128",
      "resource": {
        "resourceType": "Observation",
        "id": "9f37e604-4bf6-4daa-82b9-7127779e4128",
        "meta": {
          "profile": [
            "http://hl7.eu/fhir/laboratory/StructureDefinition/Observation-resultslab-eu-lab"
          ]
        },
        "performer": [
          {
            "display": "The Central European Lab"
          }
        ],
        "category": [
          {
            "coding": [
              {
                "system": "http://terminology.hl7.org/CodeSystem/observation-category",
                "code": "laboratory"
              }
            ]
          }
        ],
        "code": {
          "coding": [
            {
              "code": "5794-3",
              "system": "http://loinc.org",
              "display": "Hemoglobin [Presence] in Urine by Test strip"
            }
          ],
          "text": "Hemoglobin [Presence] in Urine by Test strip"
        },
        "text": {
          "status": "generated",
          "div": "<div xmlns=\"http://www.w3.org/1999/xhtml\"><table class=\"hl7__eu__lab__report\"><tr><th>Test</th><th>18-Jun-2025</th><th>Reference&#xA0;Range</th><th>Unit</th></tr><tr><td>Hemoglobin [Presence] in Urine by Test strip</td></tr></table></div>"
        },
        "status": "final",
        "subject": {
          "reference": "urn:uuid:430d9c55-ab93-4845-8adc-dc58c90b9d13",
          "display": "Θεμιστοκλής Λιναρδάκη"
        },
        "effectiveDateTime": "2025-06-18T06:16:00Z"
      }
    },
    {
      "fullUrl": "urn:uuid:1dad6d97-abfb-4b0d-8bbc-f15e3abdf94d",
      "resource": {
        "resourceType": "Observation",
        "id": "1dad6d97-abfb-4b0d-8bbc-f15e3abdf94d",
        "meta": {
          "profile": [
            "http://hl7.eu/fhir/laboratory/StructureDefinition/Observation-resultslab-eu-lab"
          ]
        },
        "performer": [
          {
            "display": "The Central European Lab"
          }
        ],
        "category": [
          {
            "coding": [
              {
                "system": "http://terminology.hl7.org/CodeSystem/observation-category",
                "code": "laboratory"
              }
            ]
          }
        ],
        "code": {
          "coding": [
            {
              "code": "5799-2",
              "system": "http://loinc.org",
              "display": "Leukocyte esterase [Presence] in Urine by Test strip"
            }
          ],
          "text": "Leukocyte esterase [Presence] in Urine by Test strip"
        },
        "text": {
          "status": "generated",
          "div": "<div xmlns=\"http://www.w3.org/1999/xhtml\"><table class=\"hl7__eu__lab__report\"><tr><th>Test</th><th>18-Jun-2025</th><th>Reference&#xA0;Range</th><th>Unit</th></tr><tr><td>Leukocyte esterase [Presence] in Urine by Test strip</td></tr></table></div>"
        },
        "status": "final",
        "subject": {
          "reference": "urn:uuid:430d9c55-ab93-4845-8adc-dc58c90b9d13",
          "display": "Θεμιστοκλής Λιναρδάκη"
        },
        "effectiveDateTime": "2025-06-18T06:16:00Z"
      }
    },
    {
      "fullUrl": "urn:uuid:d1e15f06-e22e-4cca-9b20-17fadf96b710",
      "resource": {
        "resourceType": "Observation",
        "id": "d1e15f06-e22e-4cca-9b20-17fadf96b710",
        "meta": {
          "profile": [
            "http://hl7.eu/fhir/laboratory/StructureDefinition/Observation-resultslab-eu-lab"
          ]
        },
        "performer": [
          {
            "display": "The Central European Lab"
          }
        ],
        "category": [
          {
            "coding": [
              {
                "system": "http://terminology.hl7.org/CodeSystem/observation-category",
                "code": "laboratory"
              }
            ]
          }
        ],
        "code": {
          "coding": [
            {
              "code": "4548-4",
              "system": "http://loinc.org",
              "display": "Hemoglobin A1c/Hemoglobin.total in Blood"
            }
          ],
          "text": "Hemoglobin A1c/Hemoglobin.total in Blood"
        },
        "valueQuantity": {
          "system": "http://unitsofmeasure.org",
          "value": 3,
          "unit": "%",
          "code": "%"
        },
        "referenceRange": [
          {
            "low": {
              "value": 4.3,
              "code": "%",
              "system": "http://unitsofmeasure.org"
            }
          },
          {
            "high": {
              "value": 6.4,
              "code": "%",
              "system": "http://unitsofmeasure.org"
            }
          }
        ],
        "interpretation": [
          {
            "coding": [
              {
                "code": "L",
                "system": "http://terminology.hl7.org/CodeSystem/v3-ObservationInterpretation",
                "display": "Low"
              }
            ]
          }
        ],
        "text": {
          "status": "generated",
          "div": "<div xmlns=\"http://www.w3.org/1999/xhtml\"><table class=\"hl7__eu__lab__report\"><tr><th>Test</th><th>18-Jun-2025</th><th>Reference&#xA0;Range</th><th>Unit</th></tr><tr><td>Hemoglobin A1c/Hemoglobin.total in Blood</td><td>3.0</td><td>4.3 - 6.4</td><td>L</td><td>%</td></tr></table></div>"
        },
        "status": "final",
        "subject": {
          "reference": "urn:uuid:430d9c55-ab93-4845-8adc-dc58c90b9d13",
          "display": "Θεμιστοκλής Λιναρδάκη"
        },
        "effectiveDateTime": "2025-06-18T06:16:00Z"
      }
    },
    {
      "fullUrl": "urn:uuid:3a773426-ff03-4951-b09e-634d751a34b6",
      "resource": {
        "resourceType": "Observation",
        "id": "3a773426-ff03-4951-b09e-634d751a34b6",
        "meta": {
          "profile": [
            "http://hl7.eu/fhir/laboratory/StructureDefinition/Observation-resultslab-eu-lab"
          ]
        },
        "performer": [
          {
            "display": "The Central European Lab"
          }
        ],
        "category": [
          {
            "coding": [
              {
                "system": "http://terminology.hl7.org/CodeSystem/observation-category",
                "code": "laboratory"
              }
            ]
          }
        ],
        "code": {
          "coding": [
            {
              "code": "2339-0",
              "system": "http://loinc.org",
              "display": "Glucose [Mass/volume] in Blood"
            }
          ],
          "text": "Glucose [Mass/volume] in Blood"
        },
        "valueQuantity": {
          "system": "http://unitsofmeasure.org",
          "value": 68.6,
          "unit": "mg/dL",
          "code": "mg/dL"
        },
        "referenceRange": [
          {
            "low": {
              "value": 70,
              "code": "mg/dL",
              "system": "http://unitsofmeasure.org"
            }
          },
          {
            "high": {
              "value": 140,
              "code": "mg/dL",
              "system": "http://unitsofmeasure.org"
            }
          }
        ],
        "interpretation": [
          {
            "coding": [
              {
                "code": "L",
                "system": "http://terminology.hl7.org/CodeSystem/v3-ObservationInterpretation",
                "display": "Low"
              }
            ]
          }
        ],
        "text": {
          "status": "generated",
          "div": "<div xmlns=\"http://www.w3.org/1999/xhtml\"><table class=\"hl7__eu__lab__report\"><tr><th>Test</th><th>18-Jun-2025</th><th>Reference&#xA0;Range</th><th>Unit</th></tr><tr><td>Glucose [Mass/volume] in Blood</td><td>68.6</td><td>70 - 140</td><td>L</td><td>mg/dL</td></tr></table></div>"
        },
        "status": "final",
        "subject": {
          "reference": "urn:uuid:430d9c55-ab93-4845-8adc-dc58c90b9d13",
          "display": "Θεμιστοκλής Λιναρδάκη"
        },
        "effectiveDateTime": "2025-06-18T06:16:00Z"
      }
    },
    {
      "fullUrl": "urn:uuid:9f14b133-d2fb-4f63-b6d6-ae3161c8dc0f",
      "resource": {
        "resourceType": "Observation",
        "id": "9f14b133-d2fb-4f63-b6d6-ae3161c8dc0f",
        "meta": {
          "profile": [
            "http://hl7.eu/fhir/laboratory/StructureDefinition/Observation-resultslab-eu-lab"
          ]
        },
        "performer": [
          {
            "display": "The Central European Lab"
          }
        ],
        "category": [
          {
            "coding": [
              {
                "system": "http://terminology.hl7.org/CodeSystem/observation-category",
                "code": "laboratory"
              }
            ]
          }
        ],
        "code": {
          "coding": [
            {
              "code": "6299-2",
              "system": "http://loinc.org",
              "display": "Urea nitrogen [Mass/volume] in Blood"
            }
          ],
          "text": "Urea nitrogen [Mass/volume] in Blood"
        },
        "valueQuantity": {
          "system": "http://unitsofmeasure.org",
          "value": 19.4,
          "unit": "mg/dL",
          "code": "mg/dL"
        },
        "referenceRange": [
          {
            "low": {
              "value": 7,
              "code": "mg/dL",
              "system": "http://unitsofmeasure.org"
            }
          },
          {
            "high": {
              "value": 20,
              "code": "mg/dL",
              "system": "http://unitsofmeasure.org"
            }
          }
        ],
        "text": {
          "status": "generated",
          "div": "<div xmlns=\"http://www.w3.org/1999/xhtml\"><table class=\"hl7__eu__lab__report\"><tr><th>Test</th><th>18-Jun-2025</th><th>Reference&#xA0;Range</th><th>Unit</th></tr><tr><td>Urea nitrogen [Mass/volume] in Blood</td><td>19.4</td><td>7 - 20</td><td></td><td>mg/dL</td></tr></table></div>"
        },
        "status": "final",
        "subject": {
          "reference": "urn:uuid:430d9c55-ab93-4845-8adc-dc58c90b9d13",
          "display": "Θεμιστοκλής Λιναρδάκη"
        },
        "effectiveDateTime": "2025-06-18T06:16:00Z"
      }
    },
    {
      "fullUrl": "urn:uuid:ba3a8cce-a68f-4a3d-843d-18b1ea8f5fb1",
      "resource": {
        "resourceType": "Observation",
        "id": "ba3a8cce-a68f-4a3d-843d-18b1ea8f5fb1",
        "meta": {
          "profile": [
            "http://hl7.eu/fhir/laboratory/StructureDefinition/Observation-resultslab-eu-lab"
          ]
        },
        "performer": [
          {
            "display": "The Central European Lab"
          }
        ],
        "category": [
          {
            "coding": [
              {
                "system": "http://terminology.hl7.org/CodeSystem/observation-category",
                "code": "laboratory"
              }
            ]
          }
        ],
        "code": {
          "coding": [
            {
              "code": "38483-4",
              "system": "http://loinc.org",
              "display": "Creatinine [Mass/volume] in Blood"
            }
          ],
          "text": "Creatinine [Mass/volume] in Blood"
        },
        "valueQuantity": {
          "system": "http://unitsofmeasure.org",
          "value": 5.3,
          "unit": "mg/dL",
          "code": "mg/dL"
        },
        "referenceRange": [
          {
            "low": {
              "value": 0.6,
              "code": "mg/dL",
              "system": "http://unitsofmeasure.org"
            }
          },
          {
            "high": {
              "value": 1.3,
              "code": "mg/dL",
              "system": "http://unitsofmeasure.org"
            }
          }
        ],
        "interpretation": [
          {
            "coding": [
              {
                "code": "H",
                "system": "http://terminology.hl7.org/CodeSystem/v3-ObservationInterpretation",
                "display": "High"
              }
            ]
          }
        ],
        "text": {
          "status": "generated",
          "div": "<div xmlns=\"http://www.w3.org/1999/xhtml\"><table class=\"hl7__eu__lab__report\"><tr><th>Test</th><th>18-Jun-2025</th><th>Reference&#xA0;Range</th><th>Unit</th></tr><tr><td>Creatinine [Mass/volume] in Blood</td><td>5.3</td><td>0.6 - 1.3</td><td>H</td><td>mg/dL</td></tr></table></div>"
        },
        "status": "final",
        "subject": {
          "reference": "urn:uuid:430d9c55-ab93-4845-8adc-dc58c90b9d13",
          "display": "Θεμιστοκλής Λιναρδάκη"
        },
        "effectiveDateTime": "2025-06-18T06:16:00Z"
      }
    },
    {
      "fullUrl": "urn:uuid:b25702da-ca3e-4455-91e7-fc9e85815acb",
      "resource": {
        "resourceType": "Observation",
        "id": "b25702da-ca3e-4455-91e7-fc9e85815acb",
        "meta": {
          "profile": [
            "http://hl7.eu/fhir/laboratory/StructureDefinition/Observation-resultslab-eu-lab"
          ]
        },
        "performer": [
          {
            "display": "The Central European Lab"
          }
        ],
        "category": [
          {
            "coding": [
              {
                "system": "http://terminology.hl7.org/CodeSystem/observation-category",
                "code": "laboratory"
              }
            ]
          }
        ],
        "code": {
          "coding": [
            {
              "code": "49765-1",
              "system": "http://loinc.org",
              "display": "Calcium [Mass/volume] in Blood"
            }
          ],
          "text": "Calcium [Mass/volume] in Blood"
        },
        "valueQuantity": {
          "system": "http://unitsofmeasure.org",
          "value": 10.2,
          "unit": "mg/dL",
          "code": "mg/dL"
        },
        "referenceRange": [
          {
            "low": {
              "value": 8.5,
              "code": "mg/dL",
              "system": "http://unitsofmeasure.org"
            }
          },
          {
            "high": {
              "value": 10.5,
              "code": "mg/dL",
              "system": "http://unitsofmeasure.org"
            }
          }
        ],
        "text": {
          "status": "generated",
          "div": "<div xmlns=\"http://www.w3.org/1999/xhtml\"><table class=\"hl7__eu__lab__report\"><tr><th>Test</th><th>18-Jun-2025</th><th>Reference&#xA0;Range</th><th>Unit</th></tr><tr><td>Calcium [Mass/volume] in Blood</td><td>10.2</td><td>8.5 - 10.5</td><td></td><td>mg/dL</td></tr></table></div>"
        },
        "status": "final",
        "subject": {
          "reference": "urn:uuid:430d9c55-ab93-4845-8adc-dc58c90b9d13",
          "display": "Θεμιστοκλής Λιναρδάκη"
        },
        "effectiveDateTime": "2025-06-18T06:16:00Z"
      }
    },
    {
      "fullUrl": "urn:uuid:c0492a43-f8b8-46ee-8d6f-46ef4c0fa0a0",
      "resource": {
        "resourceType": "Observation",
        "id": "c0492a43-f8b8-46ee-8d6f-46ef4c0fa0a0",
        "meta": {
          "profile": [
            "http://hl7.eu/fhir/laboratory/StructureDefinition/Observation-resultslab-eu-lab"
          ]
        },
        "performer": [
          {
            "display": "The Central European Lab"
          }
        ],
        "category": [
          {
            "coding": [
              {
                "system": "http://terminology.hl7.org/CodeSystem/observation-category",
                "code": "laboratory"
              }
            ]
          }
        ],
        "code": {
          "coding": [
            {
              "code": "2947-0",
              "system": "http://loinc.org",
              "display": "Sodium [Moles/volume] in Blood"
            }
          ],
          "text": "Sodium [Moles/volume] in Blood"
        },
        "valueQuantity": {
          "system": "http://unitsofmeasure.org",
          "value": 137.6,
          "unit": "mmol/L",
          "code": "mmol/L"
        },
        "referenceRange": [
          {
            "low": {
              "value": 135,
              "code": "mmol/L",
              "system": "http://unitsofmeasure.org"
            }
          },
          {
            "high": {
              "value": 145,
              "code": "mmol/L",
              "system": "http://unitsofmeasure.org"
            }
          }
        ],
        "text": {
          "status": "generated",
          "div": "<div xmlns=\"http://www.w3.org/1999/xhtml\"><table class=\"hl7__eu__lab__report\"><tr><th>Test</th><th>18-Jun-2025</th><th>Reference&#xA0;Range</th><th>Unit</th></tr><tr><td>Sodium [Moles/volume] in Blood</td><td>137.6</td><td>135 - 145</td><td></td><td>mmol/L</td></tr></table></div>"
        },
        "status": "final",
        "subject": {
          "reference": "urn:uuid:430d9c55-ab93-4845-8adc-dc58c90b9d13",
          "display": "Θεμιστοκλής Λιναρδάκη"
        },
        "effectiveDateTime": "2025-06-18T06:16:00Z"
      }
    },
    {
      "fullUrl": "urn:uuid:2eabd5a8-d6c2-45e4-ade7-561601b38be9",
      "resource": {
        "resourceType": "Observation",
        "id": "2eabd5a8-d6c2-45e4-ade7-561601b38be9",
        "meta": {
          "profile": [
            "http://hl7.eu/fhir/laboratory/StructureDefinition/Observation-resultslab-eu-lab"
          ]
        },
        "performer": [
          {
            "display": "The Central European Lab"
          }
        ],
        "category": [
          {
            "coding": [
              {
                "system": "http://terminology.hl7.org/CodeSystem/observation-category",
                "code": "laboratory"
              }
            ]
          }
        ],
        "code": {
          "coding": [
            {
              "code": "6298-4",
              "system": "http://loinc.org",
              "display": "Potassium [Moles/volume] in Blood"
            }
          ],
          "text": "Potassium [Moles/volume] in Blood"
        },
        "valueQuantity": {
          "system": "http://unitsofmeasure.org",
          "value": 4.1,
          "unit": "mmol/L",
          "code": "mmol/L"
        },
        "referenceRange": [
          {
            "low": {
              "value": 3.5,
              "code": "mmol/L",
              "system": "http://unitsofmeasure.org"
            }
          },
          {
            "high": {
              "value": 5.3,
              "code": "mmol/L",
              "system": "http://unitsofmeasure.org"
            }
          }
        ],
        "text": {
          "status": "generated",
          "div": "<div xmlns=\"http://www.w3.org/1999/xhtml\"><table class=\"hl7__eu__lab__report\"><tr><th>Test</th><th>18-Jun-2025</th><th>Reference&#xA0;Range</th><th>Unit</th></tr><tr><td>Potassium [Moles/volume] in Blood</td><td>4.1</td><td>3.5 - 5.3</td><td></td><td>mmol/L</td></tr></table></div>"
        },
        "status": "final",
        "subject": {
          "reference": "urn:uuid:430d9c55-ab93-4845-8adc-dc58c90b9d13",
          "display": "Θεμιστοκλής Λιναρδάκη"
        },
        "effectiveDateTime": "2025-06-18T06:16:00Z"
      }
    },
    {
      "fullUrl": "urn:uuid:a0317675-4749-4fe7-a0df-7cf67f94a9b0",
      "resource": {
        "resourceType": "Observation",
        "id": "a0317675-4749-4fe7-a0df-7cf67f94a9b0",
        "meta": {
          "profile": [
            "http://hl7.eu/fhir/laboratory/StructureDefinition/Observation-resultslab-eu-lab"
          ]
        },
        "performer": [
          {
            "display": "The Central European Lab"
          }
        ],
        "category": [
          {
            "coding": [
              {
                "system": "http://terminology.hl7.org/CodeSystem/observation-category",
                "code": "laboratory"
              }
            ]
          }
        ],
        "code": {
          "coding": [
            {
              "code": "2069-3",
              "system": "http://loinc.org",
              "display": "Chloride [Moles/volume] in Blood"
            }
          ],
          "text": "Chloride [Moles/volume] in Blood"
        },
        "valueQuantity": {
          "system": "http://unitsofmeasure.org",
          "value": 109.1,
          "unit": "mmol/L",
          "code": "mmol/L"
        },
        "referenceRange": [
          {
            "low": {
              "value": 98,
              "code": "mmol/L",
              "system": "http://unitsofmeasure.org"
            }
          },
          {
            "high": {
              "value": 110,
              "code": "mmol/L",
              "system": "http://unitsofmeasure.org"
            }
          }
        ],
        "text": {
          "status": "generated",
          "div": "<div xmlns=\"http://www.w3.org/1999/xhtml\"><table class=\"hl7__eu__lab__report\"><tr><th>Test</th><th>18-Jun-2025</th><th>Reference&#xA0;Range</th><th>Unit</th></tr><tr><td>Chloride [Moles/volume] in Blood</td><td>109.1</td><td>98 - 110</td><td></td><td>mmol/L</td></tr></table></div>"
        },
        "status": "final",
        "subject": {
          "reference": "urn:uuid:430d9c55-ab93-4845-8adc-dc58c90b9d13",
          "display": "Θεμιστοκλής Λιναρδάκη"
        },
        "effectiveDateTime": "2025-06-18T06:16:00Z"
      }
    },
    {
      "fullUrl": "urn:uuid:21667788-f6ee-41b0-8ec5-a2916b26bbd2",
      "resource": {
        "resourceType": "Observation",
        "id": "21667788-f6ee-41b0-8ec5-a2916b26bbd2",
        "meta": {
          "profile": [
            "http://hl7.eu/fhir/laboratory/StructureDefinition/Observation-resultslab-eu-lab"
          ]
        },
        "performer": [
          {
            "display": "The Central European Lab"
          }
        ],
        "category": [
          {
            "coding": [
              {
                "system": "http://terminology.hl7.org/CodeSystem/observation-category",
                "code": "laboratory"
              }
            ]
          }
        ],
        "code": {
          "coding": [
            {
              "code": "20565-8",
              "system": "http://loinc.org",
              "display": "Carbon dioxide, total [Moles/volume] in Blood"
            }
          ],
          "text": "Carbon dioxide, total [Moles/volume] in Blood"
        },
        "valueQuantity": {
          "system": "http://unitsofmeasure.org",
          "value": 21.8,
          "unit": "mmol/L",
          "code": "mmol/L"
        },
        "referenceRange": [
          {
            "low": {
              "value": 22,
              "code": "mmol/L",
              "system": "http://unitsofmeasure.org"
            }
          },
          {
            "high": {
              "value": 29,
              "code": "mmol/L",
              "system": "http://unitsofmeasure.org"
            }
          }
        ],
        "interpretation": [
          {
            "coding": [
              {
                "code": "L",
                "system": "http://terminology.hl7.org/CodeSystem/v3-ObservationInterpretation",
                "display": "Low"
              }
            ]
          }
        ],
        "text": {
          "status": "generated",
          "div": "<div xmlns=\"http://www.w3.org/1999/xhtml\"><table class=\"hl7__eu__lab__report\"><tr><th>Test</th><th>18-Jun-2025</th><th>Reference&#xA0;Range</th><th>Unit</th></tr><tr><td>Carbon dioxide, total [Moles/volume] in Blood</td><td>21.8</td><td>22 - 29</td><td>L</td><td>mmol/L</td></tr></table></div>"
        },
        "status": "final",
        "subject": {
          "reference": "urn:uuid:430d9c55-ab93-4845-8adc-dc58c90b9d13",
          "display": "Θεμιστοκλής Λιναρδάκη"
        },
        "effectiveDateTime": "2025-06-18T06:16:00Z"
      }
    },
    {
      "fullUrl": "urn:uuid:31e91f2a-a8cd-4fac-af3f-e0520418ea8a",
      "resource": {
        "resourceType": "DeviceUseStatement",
        "id": "31e91f2a-a8cd-4fac-af3f-e0520418ea8a",
        "meta": {
          "profile": [
            "http://hl7.eu/fhir/eps/StructureDefinition/deviceUseStatement-eu-eps"
          ]
        },
        "timingPeriod": {
          "start": "1994-01-26"
        },
        "text": {
          "status": "generated",
          "div": "<div xmlns=\"http://www.w3.org/1999/xhtml\"><table class=\"hl7__ips\"><tr><td>Blood glucose meter (physical object)</td><td><span class=\"nb\">26-Jan-1994</span></td></tr></table></div>"
        },
        "status": "active",
        "device": {
          "reference": "urn:uuid:c0e39fac-1adc-46e8-a7e5-1bdb9be9d1a5",
          "display": "Blood glucose meter (physical object)"
        },
        "subject": {
          "reference": "urn:uuid:430d9c55-ab93-4845-8adc-dc58c90b9d13",
          "display": "Θεμιστοκλής Λιναρδάκη"
        }
      }
    },
    {
      "fullUrl": "urn:uuid:c0e39fac-1adc-46e8-a7e5-1bdb9be9d1a5",
      "resource": {
        "resourceType": "Device",
        "id": "c0e39fac-1adc-46e8-a7e5-1bdb9be9d1a5",
        "meta": {
          "profile": [
            "http://hl7.eu/fhir/eps/StructureDefinition/device-eu-eps"
          ]
        },
        "udiCarrier": [
          {
            "id": "(01)66517661301806(11)940105(17)190120(10)5256823490385(21)530324194522"
          }
        ],
        "status": "active",
        "patient": {
          "reference": "urn:uuid:430d9c55-ab93-4845-8adc-dc58c90b9d13",
          "display": "Θεμιστοκλής Λιναρδάκη"
        },
        "type": {
          "coding": [
            {
              "code": "337414009",
              "system": "http://snomed.info/sct",
              "display": "Blood glucose meter (physical object)"
            }
          ]
        }
      }
    },
    {
      "fullUrl": "urn:uuid:913075e0-e34a-4475-a8cb-106c40ae35d5",
      "resource": {
        "resourceType": "Device",
        "id": "913075e0-e34a-4475-a8cb-106c40ae35d5",
        "deviceName": [
          {
            "name": "SYNDERAI Synthetic Generator",
            "type": "manufacturer-name"
          }
        ],
        "version": [
          {
            "value": "5.0"
          }
        ],
        "text": {
          "status": "generated",
          "div": "<div xmlns=\"http://www.w3.org/1999/xhtml\">SYNDERAI Synthetic Generator v5.0</div>"
        },
        "status": "active\"",
        "distinctIdentifier": "synderai-generator-50",
        "manufacturer": "SYNDERAI Project"
      }
    },
    {
      "fullUrl": "urn:uuid:f58a6bc3-8347-4a5f-b3ae-33e6ae6adaba",
      "resource": {
        "resourceType": "Provenance",
        "id": "f58a6bc3-8347-4a5f-b3ae-33e6ae6adaba",
        "target": [
          {
            "reference": "Patient/430d9c55-ab93-4845-8adc-dc58c90b9d13"
          },
          {
            "reference": "Bundle/c00c1705-1121-4e54-93e5-496e31502e8e"
          },
          {
            "reference": "Composition/437678c0-121b-4b5b-9fc9-ccb84ae02a4f"
          },
          {
            "reference": "PractitionerRole/0b9ed570-50cc-43b0-96b0-1ec431e849ab"
          },
          {
            "reference": "Organization/42315baa-2836-46f3-94cf-7c7949930a0c"
          },
          {
            "reference": "Practitioner/b06a6008-6c77-4fc9-87bc-698d8d195b2d"
          }
        ],
        "activity": {
          "text": "Synthetic Example Data Generation"
        },
        "policy": [
          "https://synderai.net/synderai-synthetic-data-policy"
        ],
        "agent": [
          {
            "type": {
              "text": "author"
            },
            "who": {
              "reference": "Device/913075e0-e34a-4475-a8cb-106c40ae35d5"
            }
          }
        ],
        "reason": [
          {
            "text": "Interoperability Testing and Training (non-clinical use)"
          }
        ],
        "text": {
          "status": "generated",
          "div": "<div xmlns=\"http://www.w3.org/1999/xhtml\">Provenance for SYNDERAI Synthetic Example Data Resource</div>"
        },
        "recorded": "2025-06-18T06:16:00Z"
      }
    }
  ],
  "type": "document",
  "timestamp": "2025-06-18T06:16:00Z"
}
