{
  "resourceType": "Bundle",
  "id": "d7767aee-0acf-4f58-8c35-ed158a2527d9",
  "meta": {
    "profile": [
      "http://hl7.eu/fhir/eps/StructureDefinition/bundle-eu-eps"
    ]
  },
  "identifier": {
    "assigner": {
      "display": "HL7 Europe"
    },
    "system": "urn:oid:2.16.840.1.113883.2.51.999",
    "value": "8b64b4ab-526e-4be8-8e25-6e60daaaab3a"
  },
  "entry": [
    {
      "fullUrl": "urn:uuid:cdf11e58-15b7-4d90-9ccc-efaed6939415",
      "resource": {
        "resourceType": "Composition",
        "id": "cdf11e58-15b7-4d90-9ccc-efaed6939415",
        "meta": {
          "security": [
            {
              "system": "http://terminology.hl7.org/CodeSystem/v3-ActReason",
              "code": "HTEST"
            },
            {
              "system": "http://terminology.hl7.org/CodeSystem/v3-ActReason",
              "code": "TRAIN"
            }
          ],
          "tag": [
            {
              "system": "https://synderai.net/fhir/CodeSystem/tags",
              "code": "synthetic",
              "display": "SYNDERAI Synthetic data"
            }
          ],
          "profile": [
            "http://hl7.eu/fhir/eps/StructureDefinition/composition-eu-eps"
          ]
        },
        "identifier": {
          "assigner": {
            "display": "HL7 Europe"
          },
          "system": "urn:oid:2.16.840.1.113883.2.51.999",
          "value": "5b6881ca-49ff-4628-b4d2-e0c71a78af62"
        },
        "type": {
          "coding": [
            {
              "system": "http://loinc.org",
              "code": "60591-5",
              "display": "Patient summary Document"
            }
          ],
          "text": "Patient summary Document"
        },
        "author": [
          {
            "reference": "urn:uuid:a26e13c2-c3f0-475d-aba9-c67ba6bd273b"
          }
        ],
        "section": [
          {
            "text": {
              "status": "generated",
              "div": "<div xmlns=\"http://www.w3.org/1999/xhtml\"><table class=\"hl7__ips\"><tr><th>Condition</th><th>Onset Date</th><th>Status</th></tr><tr><td>Chronic kidney disease stage 2</td><td><span class=\"nb\">24-Oct-2019</span></td><td>active</td></tr><tr><td>Microalbuminuria due to type 2 diabetes mellitus</td><td><span class=\"nb\">24-Oct-2019</span></td><td>active</td></tr><tr><td>Disorder of kidney due to diabetes mellitus</td><td><span class=\"nb\">24-Jan-2019</span></td><td>active</td></tr><tr><td>Chronic kidney disease stage 1</td><td><span class=\"nb\">24-Jan-2019</span></td><td>active</td></tr><tr><td>Osteoporosis</td><td><span class=\"nb\">15-Dec-2005</span></td><td>active</td></tr><tr><td>Ischemic heart disease</td><td><span class=\"nb\">01-Oct-1992</span></td><td>active</td></tr><tr><td>Metabolic syndrome X</td><td><span class=\"nb\">20-Sep-1990</span></td><td>active</td></tr><tr><td>Essential hypertension</td><td><span class=\"nb\">03-Sep-1987</span></td><td>active</td></tr><tr><td>Anemia</td><td><span class=\"nb\">06-Nov-1969</span></td><td>active</td></tr><tr><td>Prediabetes</td><td><span class=\"nb\">31-Oct-1968</span></td><td>active</td></tr></table></div>"
            },
            "entry": [
              {
                "reference": "urn:uuid:c1a18e53-5736-46be-a4e9-5062a9d84a33"
              },
              {
                "reference": "urn:uuid:3bf0d71a-8a95-4d2f-9c64-c72c5e92a9db"
              },
              {
                "reference": "urn:uuid:74341297-ce9d-4ac3-94c3-cbdc54c58c93"
              },
              {
                "reference": "urn:uuid:be2faaa5-b64d-4af8-a5ba-08bab151797f"
              },
              {
                "reference": "urn:uuid:f44cdf6f-47dd-431b-aa2a-01970ae8aabf"
              },
              {
                "reference": "urn:uuid:5dce40e0-651a-48e5-9aae-1b23a62296fa"
              },
              {
                "reference": "urn:uuid:8f185104-04af-468b-8f58-7f14b394b7d2"
              },
              {
                "reference": "urn:uuid:38b55593-82aa-45ba-ab03-b0fb5ff6b1f0"
              },
              {
                "reference": "urn:uuid:0890a342-7de2-45c1-9410-7c445e47877d"
              },
              {
                "reference": "urn:uuid:c9ac94b0-7600-4800-bfcf-6f884fa5e54a"
              }
            ],
            "code": {
              "coding": [
                {
                  "system": "http://loinc.org",
                  "code": "11450-4",
                  "display": "Problem list - Reported"
                }
              ]
            },
            "title": "Problem list"
          },
          {
            "text": {
              "status": "generated",
              "div": "<div xmlns=\"http://www.w3.org/1999/xhtml\"><table class=\"hl7__ips\"><tr><th>Medication</th><th>Since</th><th>Form</th><th>Dosage</th><th>Reason</th></tr><tr><td>insulin isophane human 70 UNT/ML / insulin regular human 30 UNT/ML Injectable Suspension [Humulin]</td><td><span class=\"nb\">2025-07-17</span></td><td>-</td><td>Inject 10 units (0.1 mL) subcutaneously before breakfast and before dinner</td><td>Prediabetes</td></tr><tr><td>Lisinopril 10 mg oral tablet</td><td><span class=\"nb\">2025-07-17</span></td><td>-</td><td>1 tablet (10 mg) by mouth once daily</td><td>Essential hypertension (disorder)</td></tr><tr><td>Tramadol hydrochloride 50 mg oral tablet</td><td><span class=\"nb\">2025-07-17</span></td><td>-</td><td>1 tablet (50 mg) every 6 hours as needed</td><td>-</td></tr><tr><td>Alendronic acid (as alendronate sodium) 10 mg oral tablet</td><td><span class=\"nb\">2025-07-17</span></td><td>-</td><td>1 tablet (10 mg) once daily</td><td>Osteoporosis (disorder)</td></tr><tr><td>Acetaminophen 300 mg and codeine phosphate 15 mg oral tablet</td><td><span class=\"nb\">2025-07-17</span></td><td>-</td><td>1 tablet (300 mg/15 mg) by mouth every 4 to 6 hours as needed for pain</td><td>-</td></tr><tr><td>Simvastatin 20 mg oral tablet</td><td><span class=\"nb\">1992-10-08</span></td><td>-</td><td>1 tablet (20 mg) by mouth once daily</td><td>-</td></tr><tr><td>Nitroglycerin 400 microgram/actuation sublingual spray</td><td><span class=\"nb\">1992-10-08</span></td><td>-</td><td>400 micrograms (1 spray) sublingually as needed for chest pain, may repeat every 5 minutes as needed, up to 3 sprays in 15 minutes</td><td>-</td></tr><tr><td>Metoprolol tartrate (as metoprolol succinate) 100 mg prolonged-release oral tablet</td><td><span class=\"nb\">1992-10-08</span></td><td>-</td><td>1 tablet (100 mg) once daily</td><td>-</td></tr></table></div>"
            },
            "entry": [
              {
                "reference": "urn:uuid:74f0d731-dc28-4d6b-8120-43281dd978b4"
              },
              {
                "reference": "urn:uuid:a744cdca-e538-455d-8032-db4c362057e6"
              },
              {
                "reference": "urn:uuid:9fe3da86-1973-4575-86f5-4ec4275408de"
              },
              {
                "reference": "urn:uuid:0125c32c-0b65-43bd-8bc1-aff4348d0bd7"
              },
              {
                "reference": "urn:uuid:4a256c28-3105-4a57-ac1a-4c4b92414a39"
              },
              {
                "reference": "urn:uuid:c7ad85df-5923-47dd-86d5-1de5b7a3f3c3"
              },
              {
                "reference": "urn:uuid:d73a800c-76bd-4216-acf6-444623b55ba4"
              },
              {
                "reference": "urn:uuid:6f482c29-0004-4a36-8fe5-415da43ff449"
              }
            ],
            "code": {
              "coding": [
                {
                  "system": "http://loinc.org",
                  "code": "10160-0",
                  "display": "History of Medication use Narrative"
                }
              ]
            },
            "title": "Medication list"
          },
          {
            "text": {
              "status": "generated",
              "div": "<div xmlns=\"http://www.w3.org/1999/xhtml\"><table class=\"hl7__ips\"><tr><th>Vaccine</th><th>Date</th></tr><tr><td>Influenza virus antigen only vaccine product</td><td><span class=\"nb\">20-Mar-2025</span></td></tr><tr><td>Clostridium tetani toxoid antigen adsorbed only vaccine product</td><td><span class=\"nb\">16-Feb-2017</span></td></tr></table></div>"
            },
            "entry": [
              {
                "reference": "urn:uuid:64c086bf-589b-449b-8f45-dc409bb52add"
              },
              {
                "reference": "urn:uuid:dfec0f1a-57d9-47ad-a912-22a43692c045"
              }
            ],
            "code": {
              "coding": [
                {
                  "system": "http://loinc.org",
                  "code": "11369-6",
                  "display": "History of Immunization note"
                }
              ]
            },
            "title": "Immunizations list"
          },
          {
            "text": {
              "status": "generated",
              "div": "<div xmlns=\"http://www.w3.org/1999/xhtml\"><table class=\"hl7__ips\"><tr><th>Procedure</th><th>Date</th><th>Reason</th></tr><tr><td>Medication reconciliation</td><td><span class=\"nb\">10-Jun-2021</span></td><td>-</td></tr><tr><td>Assessment of health and social care needs</td><td><span class=\"nb\">10-Jun-2021</span></td><td>-</td></tr><tr><td>Assessment of anxiety</td><td><span class=\"nb\">10-Jun-2021</span></td><td>-</td></tr><tr><td>Assessment using Morse Fall Scale</td><td><span class=\"nb\">10-Jun-2021</span></td><td>-</td></tr><tr><td>Depression screening</td><td><span class=\"nb\">13-May-2021</span></td><td>-</td></tr><tr><td>Screening for drug abuse</td><td><span class=\"nb\">13-May-2021</span></td><td>-</td></tr><tr><td>Depression screening using PHQ-9 (Patient Health Questionnaire 9) score</td><td><span class=\"nb\">13-May-2021</span></td><td>-</td></tr><tr><td>Assessment of substance use</td><td><span class=\"nb\">13-May-2021</span></td><td>-</td></tr><tr><td>Depression screening using Patient Health Questionnaire Two-Item score (procedure)</td><td><span class=\"nb\">13-May-2021</span></td><td>-</td></tr><tr><td>Screening for domestic abuse</td><td><span class=\"nb\">16-Jan-2020</span></td><td>-</td></tr><tr><td>Assessment using AUDIT-C (Alcohol Use Disorders Identification Test - Consumption)</td><td><span class=\"nb\">24-Oct-2019</span></td><td>-</td></tr><tr><td>Pre-discharge assessment</td><td><span class=\"nb\">14-Oct-2019</span></td><td>-</td></tr><tr><td>Discharge from skilled nursing facility (procedure)</td><td><span class=\"nb\">14-Oct-2019</span></td><td>-</td></tr><tr><td>Nursing care/supplementary surveillance</td><td><span class=\"nb\">13-Oct-2019</span></td><td>-</td></tr><tr><td>Professional / ancillary services care</td><td><span class=\"nb\">12-Oct-2019</span></td><td>-</td></tr><tr><td>Physical therapy procedure</td><td><span class=\"nb\">09-Oct-2019</span></td><td>-</td></tr><tr><td>Occupational therapy</td><td><span class=\"nb\">07-Oct-2019</span></td><td>-</td></tr><tr><td>Speech and language therapy regime</td><td><span class=\"nb\">18-Sep-2019</span></td><td>-</td></tr><tr><td>History AND physical examination</td><td><span class=\"nb\">25-Jul-2019</span></td><td>-</td></tr><tr><td>Plain X-ray of clavicle</td><td><span class=\"nb\">25-Jul-2019</span></td><td>-</td></tr><tr><td>Admission to orthopedic department</td><td><span class=\"nb\">25-Jul-2019</span></td><td>Fracture of clavicle</td></tr><tr><td>Initial patient assessment</td><td><span class=\"nb\">25-Jul-2019</span></td><td>-</td></tr><tr><td>Development of individualized plan of care</td><td><span class=\"nb\">25-Jul-2019</span></td><td>-</td></tr></table></div>"
            },
            "entry": [
              {
                "reference": "urn:uuid:9b30930b-b342-4e4f-9999-48037eb5b9b5"
              },
              {
                "reference": "urn:uuid:00e1a508-a22d-4567-8438-5d4b9dfb059c"
              },
              {
                "reference": "urn:uuid:7375e997-9172-49ae-a639-7864af569f2b"
              },
              {
                "reference": "urn:uuid:7a398bf3-8c16-4206-bdaa-12794decd4d7"
              },
              {
                "reference": "urn:uuid:903fc41d-b774-4b4f-928f-8fb949e56eb0"
              },
              {
                "reference": "urn:uuid:cdb6d320-0d7a-431b-bcf5-fd900a7b8a14"
              },
              {
                "reference": "urn:uuid:9203f4b2-26e1-4228-9e65-a83450d9e406"
              },
              {
                "reference": "urn:uuid:0459a4d2-9e9b-4d96-8cc4-e990cfe25d24"
              },
              {
                "reference": "urn:uuid:6324dc8b-c862-418b-ac46-d697a8d545df"
              },
              {
                "reference": "urn:uuid:0aba8afd-92b7-4974-85d1-1766e407227c"
              },
              {
                "reference": "urn:uuid:68fee464-5d25-4866-8ff3-57149160681f"
              },
              {
                "reference": "urn:uuid:18522f57-d596-4dca-99cb-739926e1a820"
              },
              {
                "reference": "urn:uuid:96e9361b-e52a-42e7-95bc-114ddf30405b"
              },
              {
                "reference": "urn:uuid:7d70b9d3-1050-4c3d-83f5-3b34730d2d75"
              },
              {
                "reference": "urn:uuid:e7d725e6-8eef-4df8-b161-d09385e1d912"
              },
              {
                "reference": "urn:uuid:f29e81ec-0c8a-43b0-bcf6-144f4d1f3a6e"
              },
              {
                "reference": "urn:uuid:b76be21c-cae7-4e88-a739-a499aae031d5"
              },
              {
                "reference": "urn:uuid:612eaa5c-fabb-4d2c-be22-1badc4afe910"
              },
              {
                "reference": "urn:uuid:36f915bb-fe29-448c-ae2e-e3101e91338b"
              },
              {
                "reference": "urn:uuid:30c463a1-af46-4437-a528-fb91ace1ff1c"
              },
              {
                "reference": "urn:uuid:1feee1d5-248a-4a87-a30d-967cf123dba2"
              },
              {
                "reference": "urn:uuid:00e850a8-a038-4f52-b400-8e4689c033d8"
              },
              {
                "reference": "urn:uuid:d247593a-c871-44ea-ad8a-7ef493bb2630"
              }
            ],
            "code": {
              "coding": [
                {
                  "system": "http://loinc.org",
                  "code": "47519-4",
                  "display": "History of Procedures Document"
                }
              ]
            },
            "title": "Procedure History list"
          },
          {
            "text": {
              "status": "generated",
              "div": "<div xmlns=\"http://www.w3.org/1999/xhtml\"><table class=\"hl7__ips\"><tr><th>Allergy/Intolerance</th><th>Onset Date</th><th>Status</th><th>Type</th><th>Reaction</th></tr><tr><td></td><td>?</td><td>active</td><td>?</td><td></td></tr></table></div>"
            },
            "entry": [
              {
                "reference": "urn:uuid:659c2451-89c3-49cb-ba0b-296db7b99660"
              }
            ],
            "code": {
              "coding": [
                {
                  "system": "http://loinc.org",
                  "code": "48765-2",
                  "display": "Allergies and adverse reactions Document"
                }
              ]
            },
            "title": "Allergies and Intolerances"
          },
          {
            "text": {
              "status": "generated",
              "div": "<div xmlns=\"http://www.w3.org/1999/xhtml\"><table class=\"hl7__ips\"><tr><th>Active Planned Care / Goals</th><th>Start Date</th><th>Reason</th></tr><tr><td>Therapy</td><td><span class=\"nb\">02-Apr-2014</span></td><td>-</td></tr><tr><td>Lifestyle education regarding hypertension</td><td><span class=\"nb\">03-Sep-1987</span></td><td>Essential hypertension (disorder)</td></tr><tr><td><ul><li>Maintain blood pressure below 130/80 mmHg through lifestyle modifications.</li><li>Limit daily sodium intake to less than 2.3 grams to support blood pressure control.</li><li>Engage in at least 150 minutes of moderate-intensity aerobic physical activity per week.</li><li>Achieve a body mass index (BMI) less than 25 kg/m2 to aid in blood pressure control.</li></ul></td><td></td><td></td></tr><tr><td>Diabetes self management plan</td><td><span class=\"nb\">31-Oct-1968</span></td><td>Prediabetes</td></tr><tr><td><ul><li>Patient will implement and maintain a diabetes self-management plan to delay or prevent progression to type 2 diabetes.</li><li>Maintain hemoglobin A1c below 6.5% to reduce risk of progression to diabetes.</li><li>Maintain fasting plasma glucose below 7.0 mmol/L.</li><li>Achieve and maintain at least 5% weight loss from baseline to improve glycemic parameters.</li><li>Maintain blood pressure below 130/80 mm[Hg] to reduce cardiovascular and renal risk.</li></ul></td><td></td><td></td></tr><tr><th>Immunization Recommendation</th><th>Due Date</th><th>Reason</th></tr><tr><td>Vaccine product containing only Influenza virus antigen (medicinal product)</td><td><span class=\"nb\">01-Oct-2025</span></td><td>Annual seasonal influenza vaccination</td></tr></table></div>"
            },
            "entry": [
              {
                "reference": "urn:uuid:b36c578a-095c-4dca-bbdb-bd8f1bc2b884"
              },
              {
                "reference": "urn:uuid:65e6d7a8-1c56-4ea4-a4f8-58a39a2f19d9"
              },
              {
                "reference": "urn:uuid:30b3f45d-6927-4e89-812c-9084aa072737"
              },
              {
                "reference": "urn:uuid:1317a3b2-46a6-4f88-af0e-fff9c8bc59da"
              }
            ],
            "code": {
              "coding": [
                {
                  "system": "http://loinc.org",
                  "code": "18776-5",
                  "display": "Plan of care note"
                }
              ]
            },
            "title": "Care Plan"
          },
          {
            "text": {
              "status": "generated",
              "div": "<div xmlns=\"http://www.w3.org/1999/xhtml\"><table class=\"hl7__ips\"><tr><th>Vital Signs</th><th>2025-07-17</th><th>2025-04-03</th></tr><tr><td>Body Height</td><td>185.2 cm</td><td>185.2 cm</td></tr><tr><td>Pain severity - 0-10 verbal numeric rating [Score] - Reported</td><td>1 {score}</td><td>3 {score}</td></tr><tr><td>Body Weight</td><td>104 kg</td><td>104 kg</td></tr><tr><td>Body mass index (BMI) [Ratio]</td><td>30.3 kg/m2</td><td>30.3 kg/m2</td></tr><tr><td>Diastolic Blood Pressure</td><td>89 mm[Hg]</td><td>95 mm[Hg]</td></tr><tr><td>Systolic Blood Pressure</td><td>111 mm[Hg]</td><td>116 mm[Hg]</td></tr><tr><td>Heart rate</td><td>79 /min</td><td>97 /min</td></tr><tr><td>Respiratory rate</td><td>16 /min</td><td>13 /min</td></tr></table></div>"
            },
            "entry": [
              {
                "reference": "urn:uuid:ae92300e-a5ee-4f89-ace5-8d30f9852843"
              },
              {
                "reference": "urn:uuid:c3dca691-e4c2-4336-b522-4cfaab97d2c3"
              },
              {
                "reference": "urn:uuid:c94a0fc2-df84-4ac5-8d89-8ef868d405a1"
              },
              {
                "reference": "urn:uuid:b679a37b-6c5f-4892-b8bd-f43923815926"
              },
              {
                "reference": "urn:uuid:01817a69-96d9-4173-8e48-d5380c8fc98a"
              },
              {
                "reference": "urn:uuid:7b54ec47-b84b-49ae-b1b9-a0586527a87d"
              },
              {
                "reference": "urn:uuid:a2f67391-d7d8-402a-ae09-702ec63bc4c5"
              },
              {
                "reference": "urn:uuid:8e38c4eb-064e-4c07-b612-abb840ea6951"
              },
              {
                "reference": "urn:uuid:210bf27b-b6a9-4ed9-910e-ef169d6df070"
              },
              {
                "reference": "urn:uuid:8baf4b3a-253f-4428-aaa5-4b72c4107c70"
              },
              {
                "reference": "urn:uuid:6c510a83-71c5-41e1-aee1-f8aabdae1015"
              },
              {
                "reference": "urn:uuid:ebcd95a4-9435-49d7-8275-8b715211f15e"
              },
              {
                "reference": "urn:uuid:4c71b5d1-196c-46ce-b134-d7205456873b"
              },
              {
                "reference": "urn:uuid:d05f4c2a-f764-4d79-a386-b681ddea935c"
              },
              {
                "reference": "urn:uuid:ee5ffd77-8592-421f-bfef-30c904551622"
              },
              {
                "reference": "urn:uuid:b7ecfd01-2b72-4450-aaae-5680aca6ac74"
              }
            ],
            "code": {
              "coding": [
                {
                  "system": "http://loinc.org",
                  "code": "8716-3",
                  "display": "Vital signs note"
                }
              ]
            },
            "title": "Vital Signs"
          },
          {
            "text": {
              "status": "generated",
              "div": "<div xmlns=\"http://www.w3.org/1999/xhtml\"><table class=\"hl7__ips\"><table class=\"hl7__ips\"><thead><tr><th>Recent Lab Observations</th><th>17-JUL-2025</th><th>Reference&#xA0;Range</th><th>Unit</th></tr></thead><tbody><tr><td>Glucose [Mass/volume] in Serum or Plasma</td><td>94.5</td><td>70 - 140</td><td>mg/dL</td></tr><tr><td>Urea nitrogen [Mass/volume] in Serum or Plasma</td><td>13.5</td><td>7 - 25</td><td>mg/dL</td></tr><tr><td>Creatinine [Mass/volume] in Serum or Plasma</td><td><strong>2.1 H</strong></td><td>0.9 - 1.3</td><td>mg/dL</td></tr><tr><td>Calcium [Mass/volume] in Serum or Plasma</td><td>9.0</td><td>8.5 - 10.5</td><td>mg/dL</td></tr><tr><td>Sodium [Moles/volume] in Serum or Plasma</td><td>136.4</td><td>135 - 145</td><td>mmol/L</td></tr><tr><td>Potassium [Moles/volume] in Serum or Plasma</td><td>4.5</td><td>3.5 - 5.3</td><td>mmol/L</td></tr><tr><td>Chloride [Moles/volume] in Serum or Plasma</td><td><strong>107.5 H</strong></td><td>98 - 107</td><td>mmol/L</td></tr><tr><td>Carbon dioxide, total [Moles/volume] in Serum or Plasma</td><td>26.9</td><td>22 - 29</td><td>mmol/L</td></tr><tr><td>Appearance of Urine</td><td>Cloudy urine</td><td></td><td></td></tr><tr><td>Odor of Urine</td><td>Urine smell ammoniacal</td><td></td><td></td></tr><tr><td>Clarity of Urine</td><td>Translucent</td><td></td><td></td></tr><tr><td>Color of Urine</td><td>Brown color</td><td></td><td></td></tr><tr><td>Glucose [Mass/volume] in Urine by Test strip</td><td><strong>2.2 H</strong></td><td>0.8 - 0</td><td>mg/dL</td></tr><tr><td>Glucose [Presence] in Urine by Test strip</td><td>++</td><td></td><td></td></tr><tr><td>Bilirubin.total [Mass/volume] in Urine by Test strip</td><td>1.0</td><td>0.2 - 1.5</td><td>mg/dL</td></tr><tr><td>Bilirubin.total [Presence] in Urine by Test strip</td><td>Finding of bilirubin in urine</td><td></td><td></td></tr><tr><td>Ketones [Mass/volume] in Urine by Test strip</td><td><strong>5.9 H</strong></td><td>0 - 4</td><td>mg/dL</td></tr><tr><td>Ketones [Presence] in Urine by Test strip</td><td>Urine ketone test = +</td><td></td><td></td></tr><tr><td>Specific gravity of Urine by Test strip</td><td><strong>1.0 L</strong></td><td>1.01 - 1.03</td><td>{nominal}</td></tr><tr><td>pH of Urine by Test strip</td><td>5.9</td><td>4.5 - 7.5</td><td>pH</td></tr><tr><td>Protein [Mass/volume] in Urine by Test strip</td><td><strong>152.2 H</strong></td><td>0 - 150</td><td>mg/dL</td></tr><tr><td>Protein [Presence] in Urine by Test strip</td><td>Urine protein test = ++</td><td></td><td></td></tr><tr><td>Nitrite [Presence] in Urine by Test strip</td><td>Urine nitrite negative</td><td></td><td></td></tr><tr><td>Hemoglobin [Presence] in Urine by Test strip</td><td>Urine blood test = negative</td><td></td><td></td></tr><tr><td>Leukocyte esterase [Presence] in Urine by Test strip</td><td>Urine leukocyte test negative</td><td></td><td></td></tr><tr><td>Hemoglobin A1c/Hemoglobin.total in Blood</td><td><strong>3.1 L</strong></td><td>4.5 - 6.4</td><td>%</td></tr><tr><td>Glucose [Mass/volume] in Blood</td><td>94.5</td><td>70 - 140</td><td>mg/dL</td></tr><tr><td>Urea nitrogen [Mass/volume] in Blood</td><td>13.5</td><td>7 - 25</td><td>mg/dL</td></tr><tr><td>Creatinine [Mass/volume] in Blood</td><td><strong>1.5 H</strong></td><td>0.9 - 1.3</td><td>mg/dL</td></tr><tr><td>Calcium [Mass/volume] in Blood</td><td>9.0</td><td>8.6 - 10.2</td><td>mg/dL</td></tr><tr><td>Sodium [Moles/volume] in Blood</td><td>136.4</td><td>135 - 145</td><td>mmol/L</td></tr><tr><td>Potassium [Moles/volume] in Blood</td><td>4.5</td><td>3.5 - 5.1</td><td>mmol/L</td></tr><tr><td>Chloride [Moles/volume] in Blood</td><td>107.5</td><td>98 - 108</td><td>mmol/L</td></tr><tr><td>Carbon dioxide, total [Moles/volume] in Blood</td><td>26.9</td><td>22 - 32</td><td>mmol/L</td></tr></tbody></table></table></div>"
            },
            "entry": [
              {
                "reference": "urn:uuid:948c440f-c630-4a74-8436-84987b3f5693"
              },
              {
                "reference": "urn:uuid:64a1ac39-ed78-47d6-a1d0-c14308c2b16d"
              },
              {
                "reference": "urn:uuid:1d972c1d-a42e-4837-b4ec-3a841ad44f89"
              },
              {
                "reference": "urn:uuid:b18ef02f-d08b-493f-8b44-ab21d93965d0"
              },
              {
                "reference": "urn:uuid:5ecd9949-ec9b-423c-b4c1-06967436f37a"
              },
              {
                "reference": "urn:uuid:fd761dd3-26e1-44d5-9ebe-6b831e2a86c7"
              },
              {
                "reference": "urn:uuid:679f9407-7179-46f4-8f68-6b2f5f57d307"
              },
              {
                "reference": "urn:uuid:48cf27d8-2e94-4bc6-80ef-bc73be6c8cba"
              },
              {
                "reference": "urn:uuid:1e3c2888-d1cd-4bbc-8464-8e2a02849e71"
              },
              {
                "reference": "urn:uuid:70c96550-f5d3-45cb-88b3-7b4daa48b163"
              },
              {
                "reference": "urn:uuid:7653ca57-5a44-41cf-aea4-9f15f3dc63d4"
              },
              {
                "reference": "urn:uuid:cfbe473c-ef1a-4055-a958-546114836e0b"
              },
              {
                "reference": "urn:uuid:026cd0f8-4063-4aba-a53e-9e78083dd5c2"
              },
              {
                "reference": "urn:uuid:422ef227-c2e4-4983-bc34-6b69d4675ab8"
              },
              {
                "reference": "urn:uuid:4a15ea8c-d191-45fd-9c41-97ba7dee56d2"
              },
              {
                "reference": "urn:uuid:ec9922d7-5065-4bdc-bf21-814dc78c4cb8"
              },
              {
                "reference": "urn:uuid:562e3f77-5874-46ab-9b3c-b666bc8277bc"
              },
              {
                "reference": "urn:uuid:d37c4859-f467-49c2-a437-e3802db5dad9"
              },
              {
                "reference": "urn:uuid:5cf93472-7282-4792-bc31-62aa38ae05fa"
              },
              {
                "reference": "urn:uuid:1b7e599b-d2af-400c-bd49-025a8a3e1fb7"
              },
              {
                "reference": "urn:uuid:f0aa2d33-515a-492d-9df2-18836738e260"
              },
              {
                "reference": "urn:uuid:3ceb7f0d-f4ac-4a3b-9abb-da4d1c2bef90"
              },
              {
                "reference": "urn:uuid:f96b4ee4-d45e-4673-9393-36adf6eefebc"
              },
              {
                "reference": "urn:uuid:cc3eaad3-74a8-49c3-8661-558db4936861"
              },
              {
                "reference": "urn:uuid:c4ceb53c-92c8-4f45-a29c-f405eab99ee7"
              },
              {
                "reference": "urn:uuid:0798beb8-9359-4c7e-bba7-52f410f262b6"
              },
              {
                "reference": "urn:uuid:f4cb806d-1f8d-4ebd-9145-07835c6eb9aa"
              },
              {
                "reference": "urn:uuid:c808e7dc-d53a-4f3b-b401-bd6473e8588a"
              },
              {
                "reference": "urn:uuid:64ba69fe-8780-478e-996d-69e62fc17556"
              },
              {
                "reference": "urn:uuid:74acc5e1-cb33-45d6-80cc-a92b95796a0e"
              },
              {
                "reference": "urn:uuid:a4fb905d-1cc4-4c90-a15e-8ee1b6d42dc8"
              },
              {
                "reference": "urn:uuid:9b1cc779-3447-470d-b6f5-536cf6a4bbcd"
              },
              {
                "reference": "urn:uuid:8044b9fd-c495-4839-a622-75e9bb076a9b"
              },
              {
                "reference": "urn:uuid:712ee955-6640-4a17-8ca3-bdcfaddcf0c3"
              }
            ],
            "code": {
              "coding": [
                {
                  "system": "http://loinc.org",
                  "code": "30954-2",
                  "display": "Relevant diagnostic tests/laboratory data note"
                }
              ]
            },
            "title": "Relevant diagnostic tests/laboratory data"
          },
          {
            "text": {
              "status": "generated",
              "div": "<div xmlns=\"http://www.w3.org/1999/xhtml\"><table class=\"hl7__ips\"><tr><th>Device</th><th>Date (since)</th></tr><tr><td>Blood glucose meter (physical object)</td><td><span class=\"nb\">31-Oct-1968</span></td></tr></table></div>"
            },
            "entry": [
              {
                "reference": "urn:uuid:35bf5bbf-3f7d-4611-a408-2a5caf824e6b"
              }
            ],
            "code": {
              "coding": [
                {
                  "system": "http://loinc.org",
                  "code": "46264-8",
                  "display": "History of medical device use"
                }
              ]
            },
            "title": "Device Use"
          }
        ],
        "title": "European Patient Summary",
        "status": "final",
        "subject": {
          "reference": "urn:uuid:94559579-19ce-4d25-8e77-afca04069e94",
          "display": "Pelayo Casal"
        },
        "custodian": {
          "reference": "urn:uuid:d2dd136c-762a-4009-a674-e648e665cd4d"
        },
        "date": "2025-07-17",
        "confidentiality": "N"
      }
    },
    {
      "fullUrl": "urn:uuid:94559579-19ce-4d25-8e77-afca04069e94",
      "resource": {
        "resourceType": "Patient",
        "id": "94559579-19ce-4d25-8e77-afca04069e94",
        "meta": {
          "security": [
            {
              "system": "http://terminology.hl7.org/CodeSystem/v3-ActReason",
              "code": "HTEST"
            },
            {
              "system": "http://terminology.hl7.org/CodeSystem/v3-ActReason",
              "code": "TRAIN"
            }
          ],
          "tag": [
            {
              "system": "https://synderai.net/fhir/CodeSystem/tags",
              "code": "synthetic",
              "display": "SYNDERAI Synthetic data"
            }
          ],
          "profile": [
            "http://hl7.eu/fhir/eps/StructureDefinition/patient-eu-eps"
          ]
        },
        "identifier": [
          {
            "type": {
              "coding": [
                {
                  "code": "PT",
                  "system": "http://terminology.hl7.org/CodeSystem/v2-0203"
                }
              ]
            },
            "system": "http://ec.europa.eu/identifier/eci",
            "value": "7707-510028-7"
          },
          {
            "type": {
              "coding": [
                {
                  "code": "MR",
                  "system": "http://terminology.hl7.org/CodeSystem/v2-0203"
                }
              ]
            },
            "system": "http://local.setting.eu/identifier",
            "value": "d88e82c6-df33-82d2-8538-f8b57da06491"
          }
        ],
        "name": [
          {
            "family": "Casal"
          },
          {
            "given": [
              "Pelayo"
            ]
          },
          {
            "text": "Pelayo Casal"
          }
        ],
        "address": [
          {
            "line": [
              "Callejón de Ignacio Pedrosa 67 Apt. 68 "
            ],
            "use": "home",
            "type": "physical",
            "postalCode": "35001",
            "city": "Las Palmas",
            "country": "Spain"
          }
        ],
        "telecom": [
          {
            "system": "phone",
            "value": "+34 875724898"
          }
        ],
        "extension": [
          {
            "url": "http://hl7.org/fhir/StructureDefinition/patient-nationality",
            "valueCodeableConcept": {
              "coding": [
                {
                  "code": "ES",
                  "system": "http://hl7.org/fhir/ValueSet/country"
                }
              ]
            }
          }
        ],
        "text": {
          "status": "generated",
          "div": "<div xmlns=\"http://www.w3.org/1999/xhtml\"><table class=\"hl7__ips\"><tr><td>Pelayo Casal</td><td>male</td><td>19-Apr-1940</td></tr></table></div>"
        },
        "gender": "male",
        "birthDate": "1940-04-19"
      }
    },
    {
      "fullUrl": "urn:uuid:a26e13c2-c3f0-475d-aba9-c67ba6bd273b",
      "resource": {
        "resourceType": "PractitionerRole",
        "id": "a26e13c2-c3f0-475d-aba9-c67ba6bd273b",
        "meta": {
          "profile": [
            "http://hl7.eu/fhir/base/StructureDefinition/practitionerRole-eu"
          ]
        },
        "text": {
          "status": "generated",
          "div": "<div xmlns=\"http://www.w3.org/1999/xhtml\"><table class=\"hl7__ips\">Provider Role Id a26e13c2-c3f0-475d-aba9-c67ba6bd273b</table></div>"
        },
        "practitioner": {
          "reference": "urn:uuid:0fd8f27d-8665-4b90-a5e0-5c0d6b3ae46b"
        },
        "organization": {
          "reference": "urn:uuid:d2dd136c-762a-4009-a674-e648e665cd4d"
        }
      }
    },
    {
      "fullUrl": "urn:uuid:0fd8f27d-8665-4b90-a5e0-5c0d6b3ae46b",
      "resource": {
        "resourceType": "Practitioner",
        "id": "0fd8f27d-8665-4b90-a5e0-5c0d6b3ae46b",
        "meta": {
          "profile": [
            "http://hl7.eu/fhir/base/StructureDefinition/practitioner-eu"
          ]
        },
        "name": [
          {
            "prefix": [
              "Dr."
            ],
            "given": [
              "Hel"
            ],
            "family": "Ping"
          }
        ],
        "text": {
          "status": "generated",
          "div": "<div xmlns=\"http://www.w3.org/1999/xhtml\"><table class=\"hl7__ips\">Dr. Hel Ping</table></div>"
        }
      }
    },
    {
      "fullUrl": "urn:uuid:d2dd136c-762a-4009-a674-e648e665cd4d",
      "resource": {
        "resourceType": "Organization",
        "id": "d2dd136c-762a-4009-a674-e648e665cd4d",
        "meta": {
          "profile": [
            "http://hl7.eu/fhir/base/StructureDefinition/organization-eu"
          ]
        },
        "identifier": [
          {
            "assigner": {
              "display": "HL7 Europe"
            },
            "system": "urn:oid:2.16.840.1.113883.2.51.999",
            "value": "6ed6c597-fb8c-4ce2-9e3b-407cac8f29eb"
          }
        ],
        "address": [
          {
            "country": "Spain"
          }
        ],
        "text": {
          "status": "generated",
          "div": "<div xmlns=\"http://www.w3.org/1999/xhtml\"><table class=\"hl7__ips\">Centro de Salud de Guanarteme</table></div>"
        },
        "name": "Centro de Salud de Guanarteme"
      }
    },
    {
      "fullUrl": "urn:uuid:c1a18e53-5736-46be-a4e9-5062a9d84a33",
      "resource": {
        "resourceType": "Condition",
        "id": "c1a18e53-5736-46be-a4e9-5062a9d84a33",
        "meta": {
          "profile": [
            "http://hl7.org/fhir/uv/ips/StructureDefinition/Condition-uv-ips"
          ]
        },
        "category": [
          {
            "coding": [
              {
                "code": "problem-list-item",
                "system": "http://terminology.hl7.org/CodeSystem/condition-category",
                "display": "Problem List Item"
              }
            ]
          }
        ],
        "code": {
          "coding": [
            {
              "code": "431856006",
              "system": "http://snomed.info/sct",
              "display": "Chronic kidney disease stage 2 (disorder)"
            }
          ],
          "text": "Chronic kidney disease stage 2"
        },
        "text": {
          "status": "generated",
          "div": "<div xmlns=\"http://www.w3.org/1999/xhtml\"><table class=\"hl7__ips\"><tr><td>Chronic kidney disease stage 2</td><td><span class=\"nb\">24-Oct-2019</span></td><td>active</td></tr></table></div>"
        },
        "onsetDateTime": "2019-10-24",
        "subject": {
          "reference": "urn:uuid:",
          "display": "Pelayo Casal"
        },
        "asserter": {
          "reference": "urn:uuid:",
          "display": "Centro de Salud de Guanarteme"
        }
      }
    },
    {
      "fullUrl": "urn:uuid:3bf0d71a-8a95-4d2f-9c64-c72c5e92a9db",
      "resource": {
        "resourceType": "Condition",
        "id": "3bf0d71a-8a95-4d2f-9c64-c72c5e92a9db",
        "meta": {
          "profile": [
            "http://hl7.org/fhir/uv/ips/StructureDefinition/Condition-uv-ips"
          ]
        },
        "category": [
          {
            "coding": [
              {
                "code": "problem-list-item",
                "system": "http://terminology.hl7.org/CodeSystem/condition-category",
                "display": "Problem List Item"
              }
            ]
          }
        ],
        "code": {
          "coding": [
            {
              "code": "90781000119102",
              "system": "http://snomed.info/sct",
              "display": "Microalbuminuria due to type 2 diabetes mellitus (disorder)"
            }
          ],
          "text": "Microalbuminuria due to type 2 diabetes mellitus"
        },
        "text": {
          "status": "generated",
          "div": "<div xmlns=\"http://www.w3.org/1999/xhtml\"><table class=\"hl7__ips\"><tr><td>Microalbuminuria due to type 2 diabetes mellitus</td><td><span class=\"nb\">24-Oct-2019</span></td><td>active</td></tr></table></div>"
        },
        "onsetDateTime": "2019-10-24",
        "subject": {
          "reference": "urn:uuid:",
          "display": "Pelayo Casal"
        },
        "asserter": {
          "reference": "urn:uuid:",
          "display": "Centro de Salud de Guanarteme"
        }
      }
    },
    {
      "fullUrl": "urn:uuid:74341297-ce9d-4ac3-94c3-cbdc54c58c93",
      "resource": {
        "resourceType": "Condition",
        "id": "74341297-ce9d-4ac3-94c3-cbdc54c58c93",
        "meta": {
          "profile": [
            "http://hl7.org/fhir/uv/ips/StructureDefinition/Condition-uv-ips"
          ]
        },
        "category": [
          {
            "coding": [
              {
                "code": "problem-list-item",
                "system": "http://terminology.hl7.org/CodeSystem/condition-category",
                "display": "Problem List Item"
              }
            ]
          }
        ],
        "code": {
          "coding": [
            {
              "code": "127013003",
              "system": "http://snomed.info/sct",
              "display": "Disorder of kidney due to diabetes mellitus (disorder)"
            }
          ],
          "text": "Disorder of kidney due to diabetes mellitus"
        },
        "text": {
          "status": "generated",
          "div": "<div xmlns=\"http://www.w3.org/1999/xhtml\"><table class=\"hl7__ips\"><tr><td>Disorder of kidney due to diabetes mellitus</td><td><span class=\"nb\">24-Jan-2019</span></td><td>active</td></tr></table></div>"
        },
        "onsetDateTime": "2019-01-24",
        "subject": {
          "reference": "urn:uuid:",
          "display": "Pelayo Casal"
        },
        "asserter": {
          "reference": "urn:uuid:",
          "display": "Centro de Salud de Guanarteme"
        }
      }
    },
    {
      "fullUrl": "urn:uuid:be2faaa5-b64d-4af8-a5ba-08bab151797f",
      "resource": {
        "resourceType": "Condition",
        "id": "be2faaa5-b64d-4af8-a5ba-08bab151797f",
        "meta": {
          "profile": [
            "http://hl7.org/fhir/uv/ips/StructureDefinition/Condition-uv-ips"
          ]
        },
        "category": [
          {
            "coding": [
              {
                "code": "problem-list-item",
                "system": "http://terminology.hl7.org/CodeSystem/condition-category",
                "display": "Problem List Item"
              }
            ]
          }
        ],
        "code": {
          "coding": [
            {
              "code": "431855005",
              "system": "http://snomed.info/sct",
              "display": "Chronic kidney disease stage 1 (disorder)"
            }
          ],
          "text": "Chronic kidney disease stage 1"
        },
        "text": {
          "status": "generated",
          "div": "<div xmlns=\"http://www.w3.org/1999/xhtml\"><table class=\"hl7__ips\"><tr><td>Chronic kidney disease stage 1</td><td><span class=\"nb\">24-Jan-2019</span></td><td>active</td></tr></table></div>"
        },
        "onsetDateTime": "2019-01-24",
        "subject": {
          "reference": "urn:uuid:",
          "display": "Pelayo Casal"
        },
        "asserter": {
          "reference": "urn:uuid:",
          "display": "Centro de Salud de Guanarteme"
        }
      }
    },
    {
      "fullUrl": "urn:uuid:f44cdf6f-47dd-431b-aa2a-01970ae8aabf",
      "resource": {
        "resourceType": "Condition",
        "id": "f44cdf6f-47dd-431b-aa2a-01970ae8aabf",
        "meta": {
          "profile": [
            "http://hl7.org/fhir/uv/ips/StructureDefinition/Condition-uv-ips"
          ]
        },
        "category": [
          {
            "coding": [
              {
                "code": "problem-list-item",
                "system": "http://terminology.hl7.org/CodeSystem/condition-category",
                "display": "Problem List Item"
              }
            ]
          }
        ],
        "code": {
          "coding": [
            {
              "code": "64859006",
              "system": "http://snomed.info/sct",
              "display": "Osteoporosis (disorder)"
            }
          ],
          "text": "Osteoporosis"
        },
        "text": {
          "status": "generated",
          "div": "<div xmlns=\"http://www.w3.org/1999/xhtml\"><table class=\"hl7__ips\"><tr><td>Osteoporosis</td><td><span class=\"nb\">15-Dec-2005</span></td><td>active</td></tr></table></div>"
        },
        "onsetDateTime": "2005-12-15",
        "subject": {
          "reference": "urn:uuid:",
          "display": "Pelayo Casal"
        },
        "asserter": {
          "reference": "urn:uuid:",
          "display": "Centro de Salud de Guanarteme"
        }
      }
    },
    {
      "fullUrl": "urn:uuid:5dce40e0-651a-48e5-9aae-1b23a62296fa",
      "resource": {
        "resourceType": "Condition",
        "id": "5dce40e0-651a-48e5-9aae-1b23a62296fa",
        "meta": {
          "profile": [
            "http://hl7.org/fhir/uv/ips/StructureDefinition/Condition-uv-ips"
          ]
        },
        "category": [
          {
            "coding": [
              {
                "code": "problem-list-item",
                "system": "http://terminology.hl7.org/CodeSystem/condition-category",
                "display": "Problem List Item"
              }
            ]
          }
        ],
        "code": {
          "coding": [
            {
              "code": "414545008",
              "system": "http://snomed.info/sct",
              "display": "Ischemic heart disease (disorder)"
            }
          ],
          "text": "Ischemic heart disease"
        },
        "text": {
          "status": "generated",
          "div": "<div xmlns=\"http://www.w3.org/1999/xhtml\"><table class=\"hl7__ips\"><tr><td>Ischemic heart disease</td><td><span class=\"nb\">01-Oct-1992</span></td><td>active</td></tr></table></div>"
        },
        "onsetDateTime": "1992-10-01",
        "subject": {
          "reference": "urn:uuid:",
          "display": "Pelayo Casal"
        },
        "asserter": {
          "reference": "urn:uuid:",
          "display": "Centro de Salud de Guanarteme"
        }
      }
    },
    {
      "fullUrl": "urn:uuid:8f185104-04af-468b-8f58-7f14b394b7d2",
      "resource": {
        "resourceType": "Condition",
        "id": "8f185104-04af-468b-8f58-7f14b394b7d2",
        "meta": {
          "profile": [
            "http://hl7.org/fhir/uv/ips/StructureDefinition/Condition-uv-ips"
          ]
        },
        "category": [
          {
            "coding": [
              {
                "code": "problem-list-item",
                "system": "http://terminology.hl7.org/CodeSystem/condition-category",
                "display": "Problem List Item"
              }
            ]
          }
        ],
        "code": {
          "coding": [
            {
              "code": "237602007",
              "system": "http://snomed.info/sct",
              "display": "Metabolic syndrome X (disorder)"
            }
          ],
          "text": "Metabolic syndrome X"
        },
        "text": {
          "status": "generated",
          "div": "<div xmlns=\"http://www.w3.org/1999/xhtml\"><table class=\"hl7__ips\"><tr><td>Metabolic syndrome X</td><td><span class=\"nb\">20-Sep-1990</span></td><td>active</td></tr></table></div>"
        },
        "onsetDateTime": "1990-09-20",
        "subject": {
          "reference": "urn:uuid:",
          "display": "Pelayo Casal"
        },
        "asserter": {
          "reference": "urn:uuid:",
          "display": "Centro de Salud de Guanarteme"
        }
      }
    },
    {
      "fullUrl": "urn:uuid:38b55593-82aa-45ba-ab03-b0fb5ff6b1f0",
      "resource": {
        "resourceType": "Condition",
        "id": "38b55593-82aa-45ba-ab03-b0fb5ff6b1f0",
        "meta": {
          "profile": [
            "http://hl7.org/fhir/uv/ips/StructureDefinition/Condition-uv-ips"
          ]
        },
        "category": [
          {
            "coding": [
              {
                "code": "problem-list-item",
                "system": "http://terminology.hl7.org/CodeSystem/condition-category",
                "display": "Problem List Item"
              }
            ]
          }
        ],
        "code": {
          "coding": [
            {
              "code": "59621000",
              "system": "http://snomed.info/sct",
              "display": "Essential hypertension (disorder)"
            }
          ],
          "text": "Essential hypertension"
        },
        "text": {
          "status": "generated",
          "div": "<div xmlns=\"http://www.w3.org/1999/xhtml\"><table class=\"hl7__ips\"><tr><td>Essential hypertension</td><td><span class=\"nb\">03-Sep-1987</span></td><td>active</td></tr></table></div>"
        },
        "onsetDateTime": "1987-09-03",
        "subject": {
          "reference": "urn:uuid:",
          "display": "Pelayo Casal"
        },
        "asserter": {
          "reference": "urn:uuid:",
          "display": "Centro de Salud de Guanarteme"
        }
      }
    },
    {
      "fullUrl": "urn:uuid:0890a342-7de2-45c1-9410-7c445e47877d",
      "resource": {
        "resourceType": "Condition",
        "id": "0890a342-7de2-45c1-9410-7c445e47877d",
        "meta": {
          "profile": [
            "http://hl7.org/fhir/uv/ips/StructureDefinition/Condition-uv-ips"
          ]
        },
        "category": [
          {
            "coding": [
              {
                "code": "problem-list-item",
                "system": "http://terminology.hl7.org/CodeSystem/condition-category",
                "display": "Problem List Item"
              }
            ]
          }
        ],
        "code": {
          "coding": [
            {
              "code": "271737000",
              "system": "http://snomed.info/sct",
              "display": "Anemia (disorder)"
            }
          ],
          "text": "Anemia"
        },
        "text": {
          "status": "generated",
          "div": "<div xmlns=\"http://www.w3.org/1999/xhtml\"><table class=\"hl7__ips\"><tr><td>Anemia</td><td><span class=\"nb\">06-Nov-1969</span></td><td>active</td></tr></table></div>"
        },
        "onsetDateTime": "1969-11-06",
        "subject": {
          "reference": "urn:uuid:",
          "display": "Pelayo Casal"
        },
        "asserter": {
          "reference": "urn:uuid:",
          "display": "Centro de Salud de Guanarteme"
        }
      }
    },
    {
      "fullUrl": "urn:uuid:c9ac94b0-7600-4800-bfcf-6f884fa5e54a",
      "resource": {
        "resourceType": "Condition",
        "id": "c9ac94b0-7600-4800-bfcf-6f884fa5e54a",
        "meta": {
          "profile": [
            "http://hl7.org/fhir/uv/ips/StructureDefinition/Condition-uv-ips"
          ]
        },
        "category": [
          {
            "coding": [
              {
                "code": "problem-list-item",
                "system": "http://terminology.hl7.org/CodeSystem/condition-category",
                "display": "Problem List Item"
              }
            ]
          }
        ],
        "code": {
          "coding": [
            {
              "code": "15777000",
              "system": "http://snomed.info/sct",
              "display": "Prediabetes (disorder)"
            }
          ],
          "text": "Prediabetes"
        },
        "text": {
          "status": "generated",
          "div": "<div xmlns=\"http://www.w3.org/1999/xhtml\"><table class=\"hl7__ips\"><tr><td>Prediabetes</td><td><span class=\"nb\">31-Oct-1968</span></td><td>active</td></tr></table></div>"
        },
        "onsetDateTime": "1968-10-31",
        "subject": {
          "reference": "urn:uuid:",
          "display": "Pelayo Casal"
        },
        "asserter": {
          "reference": "urn:uuid:",
          "display": "Centro de Salud de Guanarteme"
        }
      }
    },
    {
      "fullUrl": "urn:uuid:73cfdc5b-4000-4b3d-8024-0cce4390d35a",
      "resource": {
        "resourceType": "Condition",
        "id": "73cfdc5b-4000-4b3d-8024-0cce4390d35a",
        "meta": {
          "profile": [
            "http://hl7.org/fhir/uv/ips/StructureDefinition/Condition-uv-ips"
          ]
        },
        "category": [
          {
            "coding": [
              {
                "code": "problem-list-item",
                "system": "http://terminology.hl7.org/CodeSystem/condition-category",
                "display": "Problem List Item"
              }
            ]
          }
        ],
        "code": {
          "coding": [
            {
              "code": "444814009",
              "system": "http://snomed.info/sct",
              "display": "Viral sinusitis (disorder)"
            }
          ],
          "text": "Viral sinusitis"
        },
        "text": {
          "status": "generated",
          "div": "<div xmlns=\"http://www.w3.org/1999/xhtml\"><table class=\"hl7__ips\"><tr><td><span class=\"grayedout\">Viral sinusitis</span></td><td><span class=\"nb\">27-May-2021 - 20-Jun-2021</span></td><td><span class=\"grayedout\">inactive</span></td></tr></table></div>"
        },
        "onsetDateTime": "2021-05-27",
        "abatementDateTime": "2021-06-20",
        "subject": {
          "reference": "urn:uuid:",
          "display": "Pelayo Casal"
        },
        "asserter": {
          "reference": "urn:uuid:",
          "display": "Centro de Salud de Guanarteme"
        }
      }
    },
    {
      "fullUrl": "urn:uuid:93c3a94e-d052-4053-a5b1-972a45d15d56",
      "resource": {
        "resourceType": "Condition",
        "id": "93c3a94e-d052-4053-a5b1-972a45d15d56",
        "meta": {
          "profile": [
            "http://hl7.org/fhir/uv/ips/StructureDefinition/Condition-uv-ips"
          ]
        },
        "category": [
          {
            "coding": [
              {
                "code": "problem-list-item",
                "system": "http://terminology.hl7.org/CodeSystem/condition-category",
                "display": "Problem List Item"
              }
            ]
          }
        ],
        "code": {
          "coding": [
            {
              "code": "195662009",
              "system": "http://snomed.info/sct",
              "display": "Acute viral pharyngitis (disorder)"
            }
          ],
          "text": "Acute viral pharyngitis"
        },
        "text": {
          "status": "generated",
          "div": "<div xmlns=\"http://www.w3.org/1999/xhtml\"><table class=\"hl7__ips\"><tr><td><span class=\"grayedout\">Acute viral pharyngitis</span></td><td><span class=\"nb\">17-Oct-2019 - 24-Oct-2019</span></td><td><span class=\"grayedout\">inactive</span></td></tr></table></div>"
        },
        "onsetDateTime": "2019-10-17",
        "abatementDateTime": "2019-10-24",
        "subject": {
          "reference": "urn:uuid:",
          "display": "Pelayo Casal"
        },
        "asserter": {
          "reference": "urn:uuid:",
          "display": "Centro de Salud de Guanarteme"
        }
      }
    },
    {
      "fullUrl": "urn:uuid:bfdf66f1-94d4-4e03-adf7-13154f7a8086",
      "resource": {
        "resourceType": "Condition",
        "id": "bfdf66f1-94d4-4e03-adf7-13154f7a8086",
        "meta": {
          "profile": [
            "http://hl7.org/fhir/uv/ips/StructureDefinition/Condition-uv-ips"
          ]
        },
        "category": [
          {
            "coding": [
              {
                "code": "problem-list-item",
                "system": "http://terminology.hl7.org/CodeSystem/condition-category",
                "display": "Problem List Item"
              }
            ]
          }
        ],
        "code": {
          "coding": [
            {
              "code": "58150001",
              "system": "http://snomed.info/sct",
              "display": "Fracture of clavicle (disorder)"
            }
          ],
          "text": "Fracture of clavicle"
        },
        "text": {
          "status": "generated",
          "div": "<div xmlns=\"http://www.w3.org/1999/xhtml\"><table class=\"hl7__ips\"><tr><td><span class=\"grayedout\">Fracture of clavicle</span></td><td><span class=\"nb\">25-Jul-2019 - 04-Feb-2020</span></td><td><span class=\"grayedout\">inactive</span></td></tr></table></div>"
        },
        "onsetDateTime": "2019-07-25",
        "abatementDateTime": "2020-02-04",
        "subject": {
          "reference": "urn:uuid:",
          "display": "Pelayo Casal"
        },
        "asserter": {
          "reference": "urn:uuid:",
          "display": "Centro de Salud de Guanarteme"
        }
      }
    },
    {
      "fullUrl": "urn:uuid:5dae25ed-8d29-4516-9be3-f222b3ed9c7b",
      "resource": {
        "resourceType": "Condition",
        "id": "5dae25ed-8d29-4516-9be3-f222b3ed9c7b",
        "meta": {
          "profile": [
            "http://hl7.org/fhir/uv/ips/StructureDefinition/Condition-uv-ips"
          ]
        },
        "category": [
          {
            "coding": [
              {
                "code": "problem-list-item",
                "system": "http://terminology.hl7.org/CodeSystem/condition-category",
                "display": "Problem List Item"
              }
            ]
          }
        ],
        "code": {
          "coding": [
            {
              "code": "125605004",
              "system": "http://snomed.info/sct",
              "display": "Fracture of bone (disorder)"
            }
          ],
          "text": "Fracture of bone"
        },
        "text": {
          "status": "generated",
          "div": "<div xmlns=\"http://www.w3.org/1999/xhtml\"><table class=\"hl7__ips\"><tr><td><span class=\"grayedout\">Fracture of bone</span></td><td><span class=\"nb\">25-Jul-2019 - 04-Feb-2020</span></td><td><span class=\"grayedout\">inactive</span></td></tr></table></div>"
        },
        "onsetDateTime": "2019-07-25",
        "abatementDateTime": "2020-02-04",
        "subject": {
          "reference": "urn:uuid:",
          "display": "Pelayo Casal"
        },
        "asserter": {
          "reference": "urn:uuid:",
          "display": "Centro de Salud de Guanarteme"
        }
      }
    },
    {
      "fullUrl": "urn:uuid:0d40ca84-7f23-47b7-9ac3-05ce31f33975",
      "resource": {
        "resourceType": "Condition",
        "id": "0d40ca84-7f23-47b7-9ac3-05ce31f33975",
        "meta": {
          "profile": [
            "http://hl7.org/fhir/uv/ips/StructureDefinition/Condition-uv-ips"
          ]
        },
        "category": [
          {
            "coding": [
              {
                "code": "problem-list-item",
                "system": "http://terminology.hl7.org/CodeSystem/condition-category",
                "display": "Problem List Item"
              }
            ]
          }
        ],
        "code": {
          "coding": [
            {
              "code": "443165006",
              "system": "http://snomed.info/sct",
              "display": "Osteoporotic fracture of bone (disorder)"
            }
          ],
          "text": "Osteoporotic fracture"
        },
        "text": {
          "status": "generated",
          "div": "<div xmlns=\"http://www.w3.org/1999/xhtml\"><table class=\"hl7__ips\"><tr><td><span class=\"grayedout\">Osteoporotic fracture</span></td><td><span class=\"nb\">25-Jul-2019 - 04-Feb-2020</span></td><td><span class=\"grayedout\">inactive</span></td></tr></table></div>"
        },
        "onsetDateTime": "2019-07-25",
        "abatementDateTime": "2020-02-04",
        "subject": {
          "reference": "urn:uuid:",
          "display": "Pelayo Casal"
        },
        "asserter": {
          "reference": "urn:uuid:",
          "display": "Centro de Salud de Guanarteme"
        }
      }
    },
    {
      "fullUrl": "urn:uuid:030786f7-3f91-47ef-8e42-4e682176aeef",
      "resource": {
        "resourceType": "Condition",
        "id": "030786f7-3f91-47ef-8e42-4e682176aeef",
        "meta": {
          "profile": [
            "http://hl7.org/fhir/uv/ips/StructureDefinition/Condition-uv-ips"
          ]
        },
        "category": [
          {
            "coding": [
              {
                "code": "problem-list-item",
                "system": "http://terminology.hl7.org/CodeSystem/condition-category",
                "display": "Problem List Item"
              }
            ]
          }
        ],
        "code": {
          "coding": [
            {
              "code": "444814009",
              "system": "http://snomed.info/sct",
              "display": "Viral sinusitis (disorder)"
            }
          ],
          "text": "Viral sinusitis"
        },
        "text": {
          "status": "generated",
          "div": "<div xmlns=\"http://www.w3.org/1999/xhtml\"><table class=\"hl7__ips\"><tr><td><span class=\"grayedout\">Viral sinusitis</span></td><td><span class=\"nb\">27-Apr-2017 - 22-May-2017</span></td><td><span class=\"grayedout\">inactive</span></td></tr></table></div>"
        },
        "onsetDateTime": "2017-04-27",
        "abatementDateTime": "2017-05-22",
        "subject": {
          "reference": "urn:uuid:",
          "display": "Pelayo Casal"
        },
        "asserter": {
          "reference": "urn:uuid:",
          "display": "Centro de Salud de Guanarteme"
        }
      }
    },
    {
      "fullUrl": "urn:uuid:326647ce-f3f2-41c8-bb47-9842b7bc766c",
      "resource": {
        "resourceType": "Medication",
        "id": "326647ce-f3f2-41c8-bb47-9842b7bc766c",
        "meta": {
          "profile": [
            "http://hl7.eu/fhir/eps/StructureDefinition/Medication-eu-eps"
          ]
        },
        "code": {
          "coding": [
            {
              "code": "106892",
              "system": "http://www.nlm.nih.gov/research/umls/rxnorm",
              "display": "insulin isophane  human 70 UNT/ML / insulin  regular  human 30 UNT/ML Injectable Suspension [Humulin]"
            }
          ],
          "text": "insulin isophane  human 70 UNT/ML / insulin  regular  human 30 UNT/ML Injectable Suspension [Humulin]"
        },
        "text": {
          "status": "generated",
          "div": "<div xmlns=\"http://www.w3.org/1999/xhtml\">insulin isophane human 70 UNT/ML / insulin regular human 30 UNT/ML Injectable Suspension [Humulin]</div>"
        }
      }
    },
    {
      "fullUrl": "urn:uuid:74f0d731-dc28-4d6b-8120-43281dd978b4",
      "resource": {
        "resourceType": "MedicationStatement",
        "id": "74f0d731-dc28-4d6b-8120-43281dd978b4",
        "meta": {
          "profile": [
            "http://hl7.eu/fhir/eps/StructureDefinition/MedicationStatement-eu-eps"
          ]
        },
        "effectivePeriod": {
          "start": "2025-07-17"
        },
        "dosage": [
          {
            "doseAndRate": [
              {
                "doseQuantity": {
                  "value": 10,
                  "unit": "unit",
                  "code": "{U}"
                }
              }
            ],
            "timing": {
              "repeat": {
                "frequency": 2,
                "period": 1,
                "periodUnit": "d"
              }
            },
            "text": "Inject 10 units (0.1 mL) subcutaneously before breakfast and before dinner",
            "asNeededBoolean": false
          }
        ],
        "reasonCode": [
          {
            "coding": [
              {
                "code": "15777000",
                "system": "http://snomed.info/sct",
                "display": "Prediabetes"
              }
            ]
          }
        ],
        "text": {
          "status": "generated",
          "div": "<div xmlns=\"http://www.w3.org/1999/xhtml\"><table class=\"hl7__ips first25\"><tr><th>Medication</th><th>Since</th><th>Form</th><th>Dosage</th><th>Reason</th></tr><tr><td>insulin isophane human 70 UNT/ML / insulin regular human 30 UNT/ML Injectable Suspension [Humulin]</td><td><span class=\"nb\">2025-07-17</span></td><td>-</td><td>Inject 10 units (0.1 mL) subcutaneously before breakfast and before dinner</td><td>Prediabetes</td></tr></table></div>"
        },
        "status": "active",
        "medicationReference": {
          "reference": "urn:uuid:326647ce-f3f2-41c8-bb47-9842b7bc766c",
          "display": "insulin isophane  human 70 UNT/ML / insulin  regular  human 30 UNT/ML Injectable Suspension [Humulin]"
        },
        "subject": {
          "reference": "urn:uuid:94559579-19ce-4d25-8e77-afca04069e94",
          "display": "Pelayo Casal"
        }
      }
    },
    {
      "fullUrl": "urn:uuid:99f42191-a23e-4fa0-9804-0d1f80242200",
      "resource": {
        "resourceType": "Medication",
        "id": "99f42191-a23e-4fa0-9804-0d1f80242200",
        "meta": {
          "profile": [
            "http://hl7.eu/fhir/eps/StructureDefinition/Medication-eu-eps"
          ]
        },
        "code": {
          "coding": [
            {
              "code": "318859000",
              "system": "http://snomed.info/sct",
              "display": "Lisinopril 10 mg oral tablet"
            }
          ],
          "text": "Lisinopril 10 mg oral tablet"
        },
        "text": {
          "status": "generated",
          "div": "<div xmlns=\"http://www.w3.org/1999/xhtml\">Lisinopril 10 mg oral tablet</div>"
        }
      }
    },
    {
      "fullUrl": "urn:uuid:a744cdca-e538-455d-8032-db4c362057e6",
      "resource": {
        "resourceType": "MedicationStatement",
        "id": "a744cdca-e538-455d-8032-db4c362057e6",
        "meta": {
          "profile": [
            "http://hl7.eu/fhir/eps/StructureDefinition/MedicationStatement-eu-eps"
          ]
        },
        "effectivePeriod": {
          "start": "2025-07-17"
        },
        "dosage": [
          {
            "doseAndRate": [
              {
                "doseQuantity": {
                  "value": 1,
                  "unit": "{tbl}",
                  "code": "{tbl}"
                }
              }
            ],
            "timing": {
              "repeat": {
                "frequency": 1,
                "period": 1,
                "periodUnit": "d"
              }
            },
            "text": "1 tablet (10 mg) by mouth once daily",
            "asNeededBoolean": false
          }
        ],
        "reasonCode": [
          {
            "coding": [
              {
                "code": "59621000",
                "system": "http://snomed.info/sct",
                "display": "Essential hypertension (disorder)"
              }
            ]
          }
        ],
        "text": {
          "status": "generated",
          "div": "<div xmlns=\"http://www.w3.org/1999/xhtml\"><table class=\"hl7__ips first25\"><tr><th>Medication</th><th>Since</th><th>Form</th><th>Dosage</th><th>Reason</th></tr><tr><td>Lisinopril 10 mg oral tablet</td><td><span class=\"nb\">2025-07-17</span></td><td>-</td><td>1 tablet (10 mg) by mouth once daily</td><td>Essential hypertension (disorder)</td></tr></table></div>"
        },
        "status": "active",
        "medicationReference": {
          "reference": "urn:uuid:99f42191-a23e-4fa0-9804-0d1f80242200",
          "display": "Lisinopril 10 mg oral tablet"
        },
        "subject": {
          "reference": "urn:uuid:94559579-19ce-4d25-8e77-afca04069e94",
          "display": "Pelayo Casal"
        }
      }
    },
    {
      "fullUrl": "urn:uuid:68c9e429-2109-408e-84cd-140b6a2393b7",
      "resource": {
        "resourceType": "Medication",
        "id": "68c9e429-2109-408e-84cd-140b6a2393b7",
        "meta": {
          "profile": [
            "http://hl7.eu/fhir/eps/StructureDefinition/Medication-eu-eps"
          ]
        },
        "code": {
          "coding": [
            {
              "code": "374896000",
              "system": "http://snomed.info/sct",
              "display": "Tramadol hydrochloride 50 mg oral tablet"
            }
          ],
          "text": "Tramadol hydrochloride 50 mg oral tablet"
        },
        "text": {
          "status": "generated",
          "div": "<div xmlns=\"http://www.w3.org/1999/xhtml\">Tramadol hydrochloride 50 mg oral tablet</div>"
        }
      }
    },
    {
      "fullUrl": "urn:uuid:9fe3da86-1973-4575-86f5-4ec4275408de",
      "resource": {
        "resourceType": "MedicationStatement",
        "id": "9fe3da86-1973-4575-86f5-4ec4275408de",
        "meta": {
          "profile": [
            "http://hl7.eu/fhir/eps/StructureDefinition/MedicationStatement-eu-eps"
          ]
        },
        "effectivePeriod": {
          "start": "2025-07-17"
        },
        "dosage": [
          {
            "doseAndRate": [
              {
                "doseQuantity": {
                  "value": 1,
                  "unit": "{tbl}",
                  "code": "{tbl}"
                }
              }
            ],
            "timing": {
              "repeat": {
                "frequency": 4,
                "period": 1,
                "periodUnit": "d"
              }
            },
            "text": "1 tablet (50 mg) every 6 hours as needed",
            "asNeededBoolean": true
          }
        ],
        "text": {
          "status": "generated",
          "div": "<div xmlns=\"http://www.w3.org/1999/xhtml\"><table class=\"hl7__ips first25\"><tr><th>Medication</th><th>Since</th><th>Form</th><th>Dosage</th><th>Reason</th></tr><tr><td>Tramadol hydrochloride 50 mg oral tablet</td><td><span class=\"nb\">2025-07-17</span></td><td>-</td><td>1 tablet (50 mg) every 6 hours as needed</td><td>-</td></tr></table></div>"
        },
        "status": "active",
        "medicationReference": {
          "reference": "urn:uuid:68c9e429-2109-408e-84cd-140b6a2393b7",
          "display": "Tramadol hydrochloride 50 mg oral tablet"
        },
        "subject": {
          "reference": "urn:uuid:94559579-19ce-4d25-8e77-afca04069e94",
          "display": "Pelayo Casal"
        }
      }
    },
    {
      "fullUrl": "urn:uuid:5b0b7601-cfaf-4a89-9c41-d176072e0969",
      "resource": {
        "resourceType": "Medication",
        "id": "5b0b7601-cfaf-4a89-9c41-d176072e0969",
        "meta": {
          "profile": [
            "http://hl7.eu/fhir/eps/StructureDefinition/Medication-eu-eps"
          ]
        },
        "code": {
          "coding": [
            {
              "code": "783144007",
              "system": "http://snomed.info/sct",
              "display": "Alendronic acid (as alendronate sodium) 10 mg oral tablet"
            }
          ],
          "text": "Alendronic acid (as alendronate sodium) 10 mg oral tablet"
        },
        "text": {
          "status": "generated",
          "div": "<div xmlns=\"http://www.w3.org/1999/xhtml\">Alendronic acid (as alendronate sodium) 10 mg oral tablet</div>"
        }
      }
    },
    {
      "fullUrl": "urn:uuid:0125c32c-0b65-43bd-8bc1-aff4348d0bd7",
      "resource": {
        "resourceType": "MedicationStatement",
        "id": "0125c32c-0b65-43bd-8bc1-aff4348d0bd7",
        "meta": {
          "profile": [
            "http://hl7.eu/fhir/eps/StructureDefinition/MedicationStatement-eu-eps"
          ]
        },
        "effectivePeriod": {
          "start": "2025-07-17"
        },
        "dosage": [
          {
            "doseAndRate": [
              {
                "doseQuantity": {
                  "value": 1,
                  "unit": "{tbl}",
                  "code": "{tbl}"
                }
              }
            ],
            "timing": {
              "repeat": {
                "frequency": 1,
                "period": 1,
                "periodUnit": "d"
              }
            },
            "text": "1 tablet (10 mg) once daily",
            "asNeededBoolean": false
          }
        ],
        "reasonCode": [
          {
            "coding": [
              {
                "code": "64859006",
                "system": "http://snomed.info/sct",
                "display": "Osteoporosis (disorder)"
              }
            ]
          }
        ],
        "text": {
          "status": "generated",
          "div": "<div xmlns=\"http://www.w3.org/1999/xhtml\"><table class=\"hl7__ips first25\"><tr><th>Medication</th><th>Since</th><th>Form</th><th>Dosage</th><th>Reason</th></tr><tr><td>Alendronic acid (as alendronate sodium) 10 mg oral tablet</td><td><span class=\"nb\">2025-07-17</span></td><td>-</td><td>1 tablet (10 mg) once daily</td><td>Osteoporosis (disorder)</td></tr></table></div>"
        },
        "status": "active",
        "medicationReference": {
          "reference": "urn:uuid:5b0b7601-cfaf-4a89-9c41-d176072e0969",
          "display": "Alendronic acid (as alendronate sodium) 10 mg oral tablet"
        },
        "subject": {
          "reference": "urn:uuid:94559579-19ce-4d25-8e77-afca04069e94",
          "display": "Pelayo Casal"
        }
      }
    },
    {
      "fullUrl": "urn:uuid:2d2067e3-71e1-4f15-b03d-87749b432517",
      "resource": {
        "resourceType": "Medication",
        "id": "2d2067e3-71e1-4f15-b03d-87749b432517",
        "meta": {
          "profile": [
            "http://hl7.eu/fhir/eps/StructureDefinition/Medication-eu-eps"
          ]
        },
        "code": {
          "coding": [
            {
              "code": "377261001",
              "system": "http://snomed.info/sct",
              "display": "Acetaminophen 300 mg and codeine phosphate 15 mg oral tablet"
            }
          ],
          "text": "Acetaminophen 300 mg and codeine phosphate 15 mg oral tablet"
        },
        "text": {
          "status": "generated",
          "div": "<div xmlns=\"http://www.w3.org/1999/xhtml\">Acetaminophen 300 mg and codeine phosphate 15 mg oral tablet</div>"
        }
      }
    },
    {
      "fullUrl": "urn:uuid:4a256c28-3105-4a57-ac1a-4c4b92414a39",
      "resource": {
        "resourceType": "MedicationStatement",
        "id": "4a256c28-3105-4a57-ac1a-4c4b92414a39",
        "meta": {
          "profile": [
            "http://hl7.eu/fhir/eps/StructureDefinition/MedicationStatement-eu-eps"
          ]
        },
        "effectivePeriod": {
          "start": "2025-07-17"
        },
        "dosage": [
          {
            "doseAndRate": [
              {
                "doseQuantity": {
                  "value": 1,
                  "unit": "{tbl}",
                  "code": "{tbl}"
                }
              }
            ],
            "timing": {
              "repeat": {
                "frequency": 1,
                "period": 4,
                "periodUnit": "h"
              }
            },
            "text": "1 tablet (300 mg/15 mg) by mouth every 4 to 6 hours as needed for pain",
            "asNeededBoolean": true
          }
        ],
        "text": {
          "status": "generated",
          "div": "<div xmlns=\"http://www.w3.org/1999/xhtml\"><table class=\"hl7__ips first25\"><tr><th>Medication</th><th>Since</th><th>Form</th><th>Dosage</th><th>Reason</th></tr><tr><td>Acetaminophen 300 mg and codeine phosphate 15 mg oral tablet</td><td><span class=\"nb\">2025-07-17</span></td><td>-</td><td>1 tablet (300 mg/15 mg) by mouth every 4 to 6 hours as needed for pain</td><td>-</td></tr></table></div>"
        },
        "status": "active",
        "medicationReference": {
          "reference": "urn:uuid:2d2067e3-71e1-4f15-b03d-87749b432517",
          "display": "Acetaminophen 300 mg and codeine phosphate 15 mg oral tablet"
        },
        "subject": {
          "reference": "urn:uuid:94559579-19ce-4d25-8e77-afca04069e94",
          "display": "Pelayo Casal"
        }
      }
    },
    {
      "fullUrl": "urn:uuid:2c19fde4-9e09-4354-888c-27b1439ca095",
      "resource": {
        "resourceType": "Medication",
        "id": "2c19fde4-9e09-4354-888c-27b1439ca095",
        "meta": {
          "profile": [
            "http://hl7.eu/fhir/eps/StructureDefinition/Medication-eu-eps"
          ]
        },
        "code": {
          "coding": [
            {
              "code": "319997009",
              "system": "http://snomed.info/sct",
              "display": "Simvastatin 20 mg oral tablet"
            }
          ],
          "text": "Simvastatin 20 mg oral tablet"
        },
        "text": {
          "status": "generated",
          "div": "<div xmlns=\"http://www.w3.org/1999/xhtml\">Simvastatin 20 mg oral tablet</div>"
        }
      }
    },
    {
      "fullUrl": "urn:uuid:c7ad85df-5923-47dd-86d5-1de5b7a3f3c3",
      "resource": {
        "resourceType": "MedicationStatement",
        "id": "c7ad85df-5923-47dd-86d5-1de5b7a3f3c3",
        "meta": {
          "profile": [
            "http://hl7.eu/fhir/eps/StructureDefinition/MedicationStatement-eu-eps"
          ]
        },
        "effectivePeriod": {
          "start": "1992-10-08"
        },
        "dosage": [
          {
            "doseAndRate": [
              {
                "doseQuantity": {
                  "value": 1,
                  "unit": "{tbl}",
                  "code": "{tbl}"
                }
              }
            ],
            "timing": {
              "repeat": {
                "frequency": 1,
                "period": 1,
                "periodUnit": "d"
              }
            },
            "text": "1 tablet (20 mg) by mouth once daily",
            "asNeededBoolean": false
          }
        ],
        "text": {
          "status": "generated",
          "div": "<div xmlns=\"http://www.w3.org/1999/xhtml\"><table class=\"hl7__ips first25\"><tr><th>Medication</th><th>Since</th><th>Form</th><th>Dosage</th><th>Reason</th></tr><tr><td>Simvastatin 20 mg oral tablet</td><td><span class=\"nb\">1992-10-08</span></td><td>-</td><td>1 tablet (20 mg) by mouth once daily</td><td>-</td></tr></table></div>"
        },
        "status": "active",
        "medicationReference": {
          "reference": "urn:uuid:2c19fde4-9e09-4354-888c-27b1439ca095",
          "display": "Simvastatin 20 mg oral tablet"
        },
        "subject": {
          "reference": "urn:uuid:94559579-19ce-4d25-8e77-afca04069e94",
          "display": "Pelayo Casal"
        }
      }
    },
    {
      "fullUrl": "urn:uuid:174d9912-e8fe-444a-b9f2-a62246816ee2",
      "resource": {
        "resourceType": "Medication",
        "id": "174d9912-e8fe-444a-b9f2-a62246816ee2",
        "meta": {
          "profile": [
            "http://hl7.eu/fhir/eps/StructureDefinition/Medication-eu-eps"
          ]
        },
        "code": {
          "coding": [
            {
              "code": "425176000",
              "system": "http://snomed.info/sct",
              "display": "Nitroglycerin 400 microgram/actuation sublingual spray"
            }
          ],
          "text": "Nitroglycerin 400 microgram/actuation sublingual spray"
        },
        "text": {
          "status": "generated",
          "div": "<div xmlns=\"http://www.w3.org/1999/xhtml\">Nitroglycerin 400 microgram/actuation sublingual spray</div>"
        }
      }
    },
    {
      "fullUrl": "urn:uuid:d73a800c-76bd-4216-acf6-444623b55ba4",
      "resource": {
        "resourceType": "MedicationStatement",
        "id": "d73a800c-76bd-4216-acf6-444623b55ba4",
        "meta": {
          "profile": [
            "http://hl7.eu/fhir/eps/StructureDefinition/MedicationStatement-eu-eps"
          ]
        },
        "effectivePeriod": {
          "start": "1992-10-08"
        },
        "dosage": [
          {
            "doseAndRate": [
              {
                "doseQuantity": {
                  "value": 400,
                  "unit": "microgram",
                  "code": "ug"
                }
              }
            ],
            "timing": {
              "repeat": {
                "frequency": 1,
                "period": 5,
                "periodUnit": "min"
              }
            },
            "text": "400 micrograms (1 spray) sublingually as needed for chest pain, may repeat every 5 minutes as needed, up to 3 sprays in 15 minutes",
            "asNeededBoolean": true
          }
        ],
        "text": {
          "status": "generated",
          "div": "<div xmlns=\"http://www.w3.org/1999/xhtml\"><table class=\"hl7__ips first25\"><tr><th>Medication</th><th>Since</th><th>Form</th><th>Dosage</th><th>Reason</th></tr><tr><td>Nitroglycerin 400 microgram/actuation sublingual spray</td><td><span class=\"nb\">1992-10-08</span></td><td>-</td><td>400 micrograms (1 spray) sublingually as needed for chest pain, may repeat every 5 minutes as needed, up to 3 sprays in 15 minutes</td><td>-</td></tr></table></div>"
        },
        "status": "active",
        "medicationReference": {
          "reference": "urn:uuid:174d9912-e8fe-444a-b9f2-a62246816ee2",
          "display": "Nitroglycerin 400 microgram/actuation sublingual spray"
        },
        "subject": {
          "reference": "urn:uuid:94559579-19ce-4d25-8e77-afca04069e94",
          "display": "Pelayo Casal"
        }
      }
    },
    {
      "fullUrl": "urn:uuid:7bf2a3ab-e0a0-4aac-8f48-276e95db616a",
      "resource": {
        "resourceType": "Medication",
        "id": "7bf2a3ab-e0a0-4aac-8f48-276e95db616a",
        "meta": {
          "profile": [
            "http://hl7.eu/fhir/eps/StructureDefinition/Medication-eu-eps"
          ]
        },
        "code": {
          "coding": [
            {
              "code": "879980009",
              "system": "http://snomed.info/sct",
              "display": "Metoprolol tartrate (as metoprolol succinate) 100 mg prolonged-release oral tablet"
            }
          ],
          "text": "Metoprolol tartrate (as metoprolol succinate) 100 mg prolonged-release oral tablet"
        },
        "text": {
          "status": "generated",
          "div": "<div xmlns=\"http://www.w3.org/1999/xhtml\">Metoprolol tartrate (as metoprolol succinate) 100 mg prolonged-release oral tablet</div>"
        }
      }
    },
    {
      "fullUrl": "urn:uuid:6f482c29-0004-4a36-8fe5-415da43ff449",
      "resource": {
        "resourceType": "MedicationStatement",
        "id": "6f482c29-0004-4a36-8fe5-415da43ff449",
        "meta": {
          "profile": [
            "http://hl7.eu/fhir/eps/StructureDefinition/MedicationStatement-eu-eps"
          ]
        },
        "effectivePeriod": {
          "start": "1992-10-08"
        },
        "dosage": [
          {
            "doseAndRate": [
              {
                "doseQuantity": {
                  "value": 1,
                  "unit": "{tbl}",
                  "code": "{tbl}"
                }
              }
            ],
            "timing": {
              "repeat": {
                "frequency": 1,
                "period": 1,
                "periodUnit": "d"
              }
            },
            "text": "1 tablet (100 mg) once daily",
            "asNeededBoolean": false
          }
        ],
        "text": {
          "status": "generated",
          "div": "<div xmlns=\"http://www.w3.org/1999/xhtml\"><table class=\"hl7__ips first25\"><tr><th>Medication</th><th>Since</th><th>Form</th><th>Dosage</th><th>Reason</th></tr><tr><td>Metoprolol tartrate (as metoprolol succinate) 100 mg prolonged-release oral tablet</td><td><span class=\"nb\">1992-10-08</span></td><td>-</td><td>1 tablet (100 mg) once daily</td><td>-</td></tr></table></div>"
        },
        "status": "active",
        "medicationReference": {
          "reference": "urn:uuid:7bf2a3ab-e0a0-4aac-8f48-276e95db616a",
          "display": "Metoprolol tartrate (as metoprolol succinate) 100 mg prolonged-release oral tablet"
        },
        "subject": {
          "reference": "urn:uuid:94559579-19ce-4d25-8e77-afca04069e94",
          "display": "Pelayo Casal"
        }
      }
    },
    {
      "fullUrl": "urn:uuid:64c086bf-589b-449b-8f45-dc409bb52add",
      "resource": {
        "resourceType": "Immunization",
        "id": "64c086bf-589b-449b-8f45-dc409bb52add",
        "meta": {
          "profile": [
            "http://hl7.org/fhir/uv/ips/StructureDefinition/Immunization-uv-ips"
          ]
        },
        "vaccineCode": {
          "coding": [
            {
              "code": "1181000221105",
              "system": "http://snomed.info/sct",
              "display": "Vaccine product containing Influenza virus antigen"
            },
            {
              "code": "J07BB02",
              "system": "http://www.whocc.no/atc",
              "display": "Influenza, inactivated, split virus"
            }
          ],
          "text": "Influenza virus antigen only vaccine product"
        },
        "site": {
          "coding": [
            {
              "code": "244979005",
              "system": "http://snomed.info/sct",
              "display": "Entire muscle of upper arm"
            }
          ],
          "text": "Entire muscle of upper arm"
        },
        "route": {
          "coding": [
            {
              "code": "78421000",
              "system": "http://snomed.info/sct",
              "display": "Intramuscular route"
            }
          ],
          "text": "Intramuscular route"
        },
        "text": {
          "status": "generated",
          "div": "<div xmlns=\"http://www.w3.org/1999/xhtml\"><table class=\"hl7__ips\"><tr><td>Influenza virus antigen only vaccine product</td><td><span class=\"nb\">20-Mar-2025</span></td></tr></table></div>"
        },
        "status": "completed",
        "patient": {
          "reference": "urn:uuid:94559579-19ce-4d25-8e77-afca04069e94",
          "display": "Pelayo Casal"
        },
        "occurrenceDateTime": "2025-03-20",
        "lotNumber": "AK-rHBsR",
        "expirationDate": "2025-05-30"
      }
    },
    {
      "fullUrl": "urn:uuid:dfec0f1a-57d9-47ad-a912-22a43692c045",
      "resource": {
        "resourceType": "Immunization",
        "id": "dfec0f1a-57d9-47ad-a912-22a43692c045",
        "meta": {
          "profile": [
            "http://hl7.org/fhir/uv/ips/StructureDefinition/Immunization-uv-ips"
          ]
        },
        "vaccineCode": {
          "coding": [
            {
              "code": "777725002",
              "system": "http://snomed.info/sct",
              "display": "Vaccine product containing only Clostridium tetani toxoid antigen adsorbed"
            },
            {
              "code": "J07AM51",
              "system": "http://www.whocc.no/atc",
              "display": "Diphtheria-tetanus vaccines, adult type"
            }
          ],
          "text": "Clostridium tetani toxoid antigen adsorbed only vaccine product"
        },
        "site": {
          "coding": [
            {
              "code": "244979005",
              "system": "http://snomed.info/sct",
              "display": "Entire muscle of upper arm"
            }
          ],
          "text": "Entire muscle of upper arm"
        },
        "route": {
          "coding": [
            {
              "code": "78421000",
              "system": "http://snomed.info/sct",
              "display": "Intramuscular route"
            }
          ],
          "text": "Intramuscular route"
        },
        "text": {
          "status": "generated",
          "div": "<div xmlns=\"http://www.w3.org/1999/xhtml\"><table class=\"hl7__ips\"><tr><td>Clostridium tetani toxoid antigen adsorbed only vaccine product</td><td><span class=\"nb\">16-Feb-2017</span></td></tr></table></div>"
        },
        "status": "completed",
        "patient": {
          "reference": "urn:uuid:94559579-19ce-4d25-8e77-afca04069e94",
          "display": "Pelayo Casal"
        },
        "occurrenceDateTime": "2017-02-16",
        "lotNumber": "RW-dB7OAC",
        "expirationDate": "2017-05-18"
      }
    },
    {
      "fullUrl": "urn:uuid:9b30930b-b342-4e4f-9999-48037eb5b9b5",
      "resource": {
        "resourceType": "Procedure",
        "id": "9b30930b-b342-4e4f-9999-48037eb5b9b5",
        "meta": {
          "profile": [
            "http://hl7.org/fhir/uv/ips/StructureDefinition/Procedure-uv-ips"
          ]
        },
        "code": {
          "coding": [
            {
              "code": "430193006",
              "system": "http://snomed.info/sct",
              "display": "Medication Reconciliation (procedure)"
            }
          ],
          "text": "Medication reconciliation"
        },
        "text": {
          "status": "generated",
          "div": "<div xmlns=\"http://www.w3.org/1999/xhtml\"><table class=\"hl7__ips\"><tr><td>Medication reconciliation</td><td><span class=\"nb\">10-Jun-2021</span></td><td>-</td></tr></table></div>"
        },
        "status": "completed",
        "performedDateTime": "2021-06-10",
        "subject": {
          "reference": "urn:uuid:",
          "display": "Pelayo Casal"
        }
      }
    },
    {
      "fullUrl": "urn:uuid:00e1a508-a22d-4567-8438-5d4b9dfb059c",
      "resource": {
        "resourceType": "Procedure",
        "id": "00e1a508-a22d-4567-8438-5d4b9dfb059c",
        "meta": {
          "profile": [
            "http://hl7.org/fhir/uv/ips/StructureDefinition/Procedure-uv-ips"
          ]
        },
        "code": {
          "coding": [
            {
              "code": "710824005",
              "system": "http://snomed.info/sct",
              "display": "Assessment of health and social care needs (procedure)"
            }
          ],
          "text": "Assessment of health and social care needs"
        },
        "text": {
          "status": "generated",
          "div": "<div xmlns=\"http://www.w3.org/1999/xhtml\"><table class=\"hl7__ips\"><tr><td>Assessment of health and social care needs</td><td><span class=\"nb\">10-Jun-2021</span></td><td>-</td></tr></table></div>"
        },
        "status": "completed",
        "performedDateTime": "2021-06-10",
        "subject": {
          "reference": "urn:uuid:",
          "display": "Pelayo Casal"
        }
      }
    },
    {
      "fullUrl": "urn:uuid:7375e997-9172-49ae-a639-7864af569f2b",
      "resource": {
        "resourceType": "Procedure",
        "id": "7375e997-9172-49ae-a639-7864af569f2b",
        "meta": {
          "profile": [
            "http://hl7.org/fhir/uv/ips/StructureDefinition/Procedure-uv-ips"
          ]
        },
        "code": {
          "coding": [
            {
              "code": "710841007",
              "system": "http://snomed.info/sct",
              "display": "Assessment of anxiety (procedure)"
            }
          ],
          "text": "Assessment of anxiety"
        },
        "text": {
          "status": "generated",
          "div": "<div xmlns=\"http://www.w3.org/1999/xhtml\"><table class=\"hl7__ips\"><tr><td>Assessment of anxiety</td><td><span class=\"nb\">10-Jun-2021</span></td><td>-</td></tr></table></div>"
        },
        "status": "completed",
        "performedDateTime": "2021-06-10",
        "subject": {
          "reference": "urn:uuid:",
          "display": "Pelayo Casal"
        }
      }
    },
    {
      "fullUrl": "urn:uuid:7a398bf3-8c16-4206-bdaa-12794decd4d7",
      "resource": {
        "resourceType": "Procedure",
        "id": "7a398bf3-8c16-4206-bdaa-12794decd4d7",
        "meta": {
          "profile": [
            "http://hl7.org/fhir/uv/ips/StructureDefinition/Procedure-uv-ips"
          ]
        },
        "code": {
          "coding": [
            {
              "code": "762993000",
              "system": "http://snomed.info/sct",
              "display": "Assessment using Morse Fall Scale (procedure)"
            }
          ],
          "text": "Assessment using Morse Fall Scale"
        },
        "text": {
          "status": "generated",
          "div": "<div xmlns=\"http://www.w3.org/1999/xhtml\"><table class=\"hl7__ips\"><tr><td>Assessment using Morse Fall Scale</td><td><span class=\"nb\">10-Jun-2021</span></td><td>-</td></tr></table></div>"
        },
        "status": "completed",
        "performedDateTime": "2021-06-10",
        "subject": {
          "reference": "urn:uuid:",
          "display": "Pelayo Casal"
        }
      }
    },
    {
      "fullUrl": "urn:uuid:903fc41d-b774-4b4f-928f-8fb949e56eb0",
      "resource": {
        "resourceType": "Procedure",
        "id": "903fc41d-b774-4b4f-928f-8fb949e56eb0",
        "meta": {
          "profile": [
            "http://hl7.org/fhir/uv/ips/StructureDefinition/Procedure-uv-ips"
          ]
        },
        "code": {
          "coding": [
            {
              "code": "171207006",
              "system": "http://snomed.info/sct",
              "display": "Depression screening (procedure)"
            }
          ],
          "text": "Depression screening"
        },
        "text": {
          "status": "generated",
          "div": "<div xmlns=\"http://www.w3.org/1999/xhtml\"><table class=\"hl7__ips\"><tr><td>Depression screening</td><td><span class=\"nb\">13-May-2021</span></td><td>-</td></tr></table></div>"
        },
        "status": "completed",
        "performedDateTime": "2021-05-13",
        "subject": {
          "reference": "urn:uuid:",
          "display": "Pelayo Casal"
        }
      }
    },
    {
      "fullUrl": "urn:uuid:cdb6d320-0d7a-431b-bcf5-fd900a7b8a14",
      "resource": {
        "resourceType": "Procedure",
        "id": "cdb6d320-0d7a-431b-bcf5-fd900a7b8a14",
        "meta": {
          "profile": [
            "http://hl7.org/fhir/uv/ips/StructureDefinition/Procedure-uv-ips"
          ]
        },
        "code": {
          "coding": [
            {
              "code": "713106006",
              "system": "http://snomed.info/sct",
              "display": "Screening for drug abuse (procedure)"
            }
          ],
          "text": "Screening for drug abuse"
        },
        "text": {
          "status": "generated",
          "div": "<div xmlns=\"http://www.w3.org/1999/xhtml\"><table class=\"hl7__ips\"><tr><td>Screening for drug abuse</td><td><span class=\"nb\">13-May-2021</span></td><td>-</td></tr></table></div>"
        },
        "status": "completed",
        "performedDateTime": "2021-05-13",
        "subject": {
          "reference": "urn:uuid:",
          "display": "Pelayo Casal"
        }
      }
    },
    {
      "fullUrl": "urn:uuid:9203f4b2-26e1-4228-9e65-a83450d9e406",
      "resource": {
        "resourceType": "Procedure",
        "id": "9203f4b2-26e1-4228-9e65-a83450d9e406",
        "meta": {
          "profile": [
            "http://hl7.org/fhir/uv/ips/StructureDefinition/Procedure-uv-ips"
          ]
        },
        "code": {
          "coding": [
            {
              "code": "715252007",
              "system": "http://snomed.info/sct",
              "display": "Depression screening using Patient Health Questionnaire Nine Item score (procedure)"
            }
          ],
          "text": "Depression screening using PHQ-9 (Patient Health Questionnaire 9) score"
        },
        "text": {
          "status": "generated",
          "div": "<div xmlns=\"http://www.w3.org/1999/xhtml\"><table class=\"hl7__ips\"><tr><td>Depression screening using PHQ-9 (Patient Health Questionnaire 9) score</td><td><span class=\"nb\">13-May-2021</span></td><td>-</td></tr></table></div>"
        },
        "status": "completed",
        "performedDateTime": "2021-05-13",
        "subject": {
          "reference": "urn:uuid:",
          "display": "Pelayo Casal"
        }
      }
    },
    {
      "fullUrl": "urn:uuid:0459a4d2-9e9b-4d96-8cc4-e990cfe25d24",
      "resource": {
        "resourceType": "Procedure",
        "id": "0459a4d2-9e9b-4d96-8cc4-e990cfe25d24",
        "meta": {
          "profile": [
            "http://hl7.org/fhir/uv/ips/StructureDefinition/Procedure-uv-ips"
          ]
        },
        "code": {
          "coding": [
            {
              "code": "428211000124100",
              "system": "http://snomed.info/sct",
              "display": "Assessment of substance use (procedure)"
            }
          ],
          "text": "Assessment of substance use"
        },
        "text": {
          "status": "generated",
          "div": "<div xmlns=\"http://www.w3.org/1999/xhtml\"><table class=\"hl7__ips\"><tr><td>Assessment of substance use</td><td><span class=\"nb\">13-May-2021</span></td><td>-</td></tr></table></div>"
        },
        "status": "completed",
        "performedDateTime": "2021-05-13",
        "subject": {
          "reference": "urn:uuid:",
          "display": "Pelayo Casal"
        }
      }
    },
    {
      "fullUrl": "urn:uuid:6324dc8b-c862-418b-ac46-d697a8d545df",
      "resource": {
        "resourceType": "Procedure",
        "id": "6324dc8b-c862-418b-ac46-d697a8d545df",
        "meta": {
          "profile": [
            "http://hl7.org/fhir/uv/ips/StructureDefinition/Procedure-uv-ips"
          ]
        },
        "code": {
          "coding": [
            {
              "code": "454711000124102",
              "system": "http://snomed.info/sct",
              "display": "Depression screening using Patient Health Questionnaire Two-Item score (procedure)"
            }
          ]
        },
        "text": {
          "status": "generated",
          "div": "<div xmlns=\"http://www.w3.org/1999/xhtml\"><table class=\"hl7__ips\"><tr><td>Depression screening using Patient Health Questionnaire Two-Item score (procedure)</td><td><span class=\"nb\">13-May-2021</span></td><td>-</td></tr></table></div>"
        },
        "status": "completed",
        "performedDateTime": "2021-05-13",
        "subject": {
          "reference": "urn:uuid:",
          "display": "Pelayo Casal"
        }
      }
    },
    {
      "fullUrl": "urn:uuid:0aba8afd-92b7-4974-85d1-1766e407227c",
      "resource": {
        "resourceType": "Procedure",
        "id": "0aba8afd-92b7-4974-85d1-1766e407227c",
        "meta": {
          "profile": [
            "http://hl7.org/fhir/uv/ips/StructureDefinition/Procedure-uv-ips"
          ]
        },
        "code": {
          "coding": [
            {
              "code": "866148006",
              "system": "http://snomed.info/sct",
              "display": "Screening for domestic abuse (procedure)"
            }
          ],
          "text": "Screening for domestic abuse"
        },
        "text": {
          "status": "generated",
          "div": "<div xmlns=\"http://www.w3.org/1999/xhtml\"><table class=\"hl7__ips\"><tr><td>Screening for domestic abuse</td><td><span class=\"nb\">16-Jan-2020</span></td><td>-</td></tr></table></div>"
        },
        "status": "completed",
        "performedDateTime": "2020-01-16",
        "subject": {
          "reference": "urn:uuid:",
          "display": "Pelayo Casal"
        }
      }
    },
    {
      "fullUrl": "urn:uuid:68fee464-5d25-4866-8ff3-57149160681f",
      "resource": {
        "resourceType": "Procedure",
        "id": "68fee464-5d25-4866-8ff3-57149160681f",
        "meta": {
          "profile": [
            "http://hl7.org/fhir/uv/ips/StructureDefinition/Procedure-uv-ips"
          ]
        },
        "code": {
          "coding": [
            {
              "code": "763302001",
              "system": "http://snomed.info/sct",
              "display": "Assessment using Alcohol Use Disorders Identification Test - Consumption (procedure)"
            }
          ],
          "text": "Assessment using AUDIT-C (Alcohol Use Disorders Identification Test - Consumption)"
        },
        "text": {
          "status": "generated",
          "div": "<div xmlns=\"http://www.w3.org/1999/xhtml\"><table class=\"hl7__ips\"><tr><td>Assessment using AUDIT-C (Alcohol Use Disorders Identification Test - Consumption)</td><td><span class=\"nb\">24-Oct-2019</span></td><td>-</td></tr></table></div>"
        },
        "status": "completed",
        "performedDateTime": "2019-10-24",
        "subject": {
          "reference": "urn:uuid:",
          "display": "Pelayo Casal"
        }
      }
    },
    {
      "fullUrl": "urn:uuid:18522f57-d596-4dca-99cb-739926e1a820",
      "resource": {
        "resourceType": "Procedure",
        "id": "18522f57-d596-4dca-99cb-739926e1a820",
        "meta": {
          "profile": [
            "http://hl7.org/fhir/uv/ips/StructureDefinition/Procedure-uv-ips"
          ]
        },
        "code": {
          "coding": [
            {
              "code": "225386006",
              "system": "http://snomed.info/sct",
              "display": "Pre-discharge assessment (procedure)"
            }
          ],
          "text": "Pre-discharge assessment"
        },
        "text": {
          "status": "generated",
          "div": "<div xmlns=\"http://www.w3.org/1999/xhtml\"><table class=\"hl7__ips\"><tr><td>Pre-discharge assessment</td><td><span class=\"nb\">14-Oct-2019</span></td><td>-</td></tr></table></div>"
        },
        "status": "completed",
        "performedDateTime": "2019-10-14",
        "subject": {
          "reference": "urn:uuid:",
          "display": "Pelayo Casal"
        }
      }
    },
    {
      "fullUrl": "urn:uuid:96e9361b-e52a-42e7-95bc-114ddf30405b",
      "resource": {
        "resourceType": "Procedure",
        "id": "96e9361b-e52a-42e7-95bc-114ddf30405b",
        "meta": {
          "profile": [
            "http://hl7.org/fhir/uv/ips/StructureDefinition/Procedure-uv-ips"
          ]
        },
        "code": {
          "coding": [
            {
              "code": "449381000124108",
              "system": "http://snomed.info/sct",
              "display": "Discharge from skilled nursing facility (procedure)"
            }
          ]
        },
        "text": {
          "status": "generated",
          "div": "<div xmlns=\"http://www.w3.org/1999/xhtml\"><table class=\"hl7__ips\"><tr><td>Discharge from skilled nursing facility (procedure)</td><td><span class=\"nb\">14-Oct-2019</span></td><td>-</td></tr></table></div>"
        },
        "status": "completed",
        "performedDateTime": "2019-10-14",
        "subject": {
          "reference": "urn:uuid:",
          "display": "Pelayo Casal"
        }
      }
    },
    {
      "fullUrl": "urn:uuid:7d70b9d3-1050-4c3d-83f5-3b34730d2d75",
      "resource": {
        "resourceType": "Procedure",
        "id": "7d70b9d3-1050-4c3d-83f5-3b34730d2d75",
        "meta": {
          "profile": [
            "http://hl7.org/fhir/uv/ips/StructureDefinition/Procedure-uv-ips"
          ]
        },
        "code": {
          "coding": [
            {
              "code": "410401003",
              "system": "http://snomed.info/sct",
              "display": "Nursing care/supplementary surveillance (regime/therapy)"
            }
          ],
          "text": "Nursing care/supplementary surveillance"
        },
        "text": {
          "status": "generated",
          "div": "<div xmlns=\"http://www.w3.org/1999/xhtml\"><table class=\"hl7__ips\"><tr><td>Nursing care/supplementary surveillance</td><td><span class=\"nb\">13-Oct-2019</span></td><td>-</td></tr></table></div>"
        },
        "status": "completed",
        "performedDateTime": "2019-10-13",
        "subject": {
          "reference": "urn:uuid:",
          "display": "Pelayo Casal"
        }
      }
    },
    {
      "fullUrl": "urn:uuid:e7d725e6-8eef-4df8-b161-d09385e1d912",
      "resource": {
        "resourceType": "Procedure",
        "id": "e7d725e6-8eef-4df8-b161-d09385e1d912",
        "meta": {
          "profile": [
            "http://hl7.org/fhir/uv/ips/StructureDefinition/Procedure-uv-ips"
          ]
        },
        "code": {
          "coding": [
            {
              "code": "409023009",
              "system": "http://snomed.info/sct",
              "display": "Professional / ancillary services care (regime/therapy)"
            }
          ],
          "text": "Professional / ancillary services care"
        },
        "text": {
          "status": "generated",
          "div": "<div xmlns=\"http://www.w3.org/1999/xhtml\"><table class=\"hl7__ips\"><tr><td>Professional / ancillary services care</td><td><span class=\"nb\">12-Oct-2019</span></td><td>-</td></tr></table></div>"
        },
        "status": "completed",
        "performedDateTime": "2019-10-12",
        "subject": {
          "reference": "urn:uuid:",
          "display": "Pelayo Casal"
        }
      }
    },
    {
      "fullUrl": "urn:uuid:f29e81ec-0c8a-43b0-bcf6-144f4d1f3a6e",
      "resource": {
        "resourceType": "Procedure",
        "id": "f29e81ec-0c8a-43b0-bcf6-144f4d1f3a6e",
        "meta": {
          "profile": [
            "http://hl7.org/fhir/uv/ips/StructureDefinition/Procedure-uv-ips"
          ]
        },
        "code": {
          "coding": [
            {
              "code": "91251008",
              "system": "http://snomed.info/sct",
              "display": "Physical therapy procedure (regime/therapy)"
            }
          ],
          "text": "Physical therapy procedure"
        },
        "text": {
          "status": "generated",
          "div": "<div xmlns=\"http://www.w3.org/1999/xhtml\"><table class=\"hl7__ips\"><tr><td>Physical therapy procedure</td><td><span class=\"nb\">09-Oct-2019</span></td><td>-</td></tr></table></div>"
        },
        "status": "completed",
        "performedDateTime": "2019-10-09",
        "subject": {
          "reference": "urn:uuid:",
          "display": "Pelayo Casal"
        }
      }
    },
    {
      "fullUrl": "urn:uuid:b76be21c-cae7-4e88-a739-a499aae031d5",
      "resource": {
        "resourceType": "Procedure",
        "id": "b76be21c-cae7-4e88-a739-a499aae031d5",
        "meta": {
          "profile": [
            "http://hl7.org/fhir/uv/ips/StructureDefinition/Procedure-uv-ips"
          ]
        },
        "code": {
          "coding": [
            {
              "code": "84478008",
              "system": "http://snomed.info/sct",
              "display": "Occupational therapy (regime/therapy)"
            }
          ],
          "text": "Occupational therapy"
        },
        "text": {
          "status": "generated",
          "div": "<div xmlns=\"http://www.w3.org/1999/xhtml\"><table class=\"hl7__ips\"><tr><td>Occupational therapy</td><td><span class=\"nb\">07-Oct-2019</span></td><td>-</td></tr></table></div>"
        },
        "status": "completed",
        "performedDateTime": "2019-10-07",
        "subject": {
          "reference": "urn:uuid:",
          "display": "Pelayo Casal"
        }
      }
    },
    {
      "fullUrl": "urn:uuid:612eaa5c-fabb-4d2c-be22-1badc4afe910",
      "resource": {
        "resourceType": "Procedure",
        "id": "612eaa5c-fabb-4d2c-be22-1badc4afe910",
        "meta": {
          "profile": [
            "http://hl7.org/fhir/uv/ips/StructureDefinition/Procedure-uv-ips"
          ]
        },
        "code": {
          "coding": [
            {
              "code": "311555007",
              "system": "http://snomed.info/sct",
              "display": "Speech and language therapy regime (regime/therapy)"
            }
          ],
          "text": "Speech and language therapy regime"
        },
        "text": {
          "status": "generated",
          "div": "<div xmlns=\"http://www.w3.org/1999/xhtml\"><table class=\"hl7__ips\"><tr><td>Speech and language therapy regime</td><td><span class=\"nb\">18-Sep-2019</span></td><td>-</td></tr></table></div>"
        },
        "status": "completed",
        "performedDateTime": "2019-09-18",
        "subject": {
          "reference": "urn:uuid:",
          "display": "Pelayo Casal"
        }
      }
    },
    {
      "fullUrl": "urn:uuid:36f915bb-fe29-448c-ae2e-e3101e91338b",
      "resource": {
        "resourceType": "Procedure",
        "id": "36f915bb-fe29-448c-ae2e-e3101e91338b",
        "meta": {
          "profile": [
            "http://hl7.org/fhir/uv/ips/StructureDefinition/Procedure-uv-ips"
          ]
        },
        "code": {
          "coding": [
            {
              "code": "63332003",
              "system": "http://snomed.info/sct",
              "display": "History AND physical examination (procedure)"
            }
          ],
          "text": "History AND physical examination"
        },
        "text": {
          "status": "generated",
          "div": "<div xmlns=\"http://www.w3.org/1999/xhtml\"><table class=\"hl7__ips\"><tr><td>History AND physical examination</td><td><span class=\"nb\">25-Jul-2019</span></td><td>-</td></tr></table></div>"
        },
        "status": "completed",
        "performedDateTime": "2019-07-25",
        "subject": {
          "reference": "urn:uuid:",
          "display": "Pelayo Casal"
        }
      }
    },
    {
      "fullUrl": "urn:uuid:30c463a1-af46-4437-a528-fb91ace1ff1c",
      "resource": {
        "resourceType": "Procedure",
        "id": "30c463a1-af46-4437-a528-fb91ace1ff1c",
        "meta": {
          "profile": [
            "http://hl7.org/fhir/uv/ips/StructureDefinition/Procedure-uv-ips"
          ]
        },
        "code": {
          "coding": [
            {
              "code": "168594001",
              "system": "http://snomed.info/sct",
              "display": "Clavicle X-ray"
            }
          ],
          "text": "Plain X-ray of clavicle"
        },
        "text": {
          "status": "generated",
          "div": "<div xmlns=\"http://www.w3.org/1999/xhtml\"><table class=\"hl7__ips\"><tr><td>Plain X-ray of clavicle</td><td><span class=\"nb\">25-Jul-2019</span></td><td>-</td></tr></table></div>"
        },
        "status": "completed",
        "performedDateTime": "2019-07-25",
        "subject": {
          "reference": "urn:uuid:",
          "display": "Pelayo Casal"
        }
      }
    },
    {
      "fullUrl": "urn:uuid:1feee1d5-248a-4a87-a30d-967cf123dba2",
      "resource": {
        "resourceType": "Procedure",
        "id": "1feee1d5-248a-4a87-a30d-967cf123dba2",
        "meta": {
          "profile": [
            "http://hl7.org/fhir/uv/ips/StructureDefinition/Procedure-uv-ips"
          ]
        },
        "code": {
          "coding": [
            {
              "code": "305428000",
              "system": "http://snomed.info/sct",
              "display": "Admission to orthopedic department"
            }
          ],
          "text": "Admission to orthopedic department"
        },
        "reasonCode": [
          {
            "coding": [
              {
                "code": "58150001",
                "system": "http://snomed.info/sct",
                "display": "Fracture of clavicle"
              }
            ]
          }
        ],
        "text": {
          "status": "generated",
          "div": "<div xmlns=\"http://www.w3.org/1999/xhtml\"><table class=\"hl7__ips\"><tr><td>Admission to orthopedic department</td><td><span class=\"nb\">25-Jul-2019</span></td><td>Fracture of clavicle</td></tr></table></div>"
        },
        "status": "completed",
        "performedDateTime": "2019-07-25",
        "subject": {
          "reference": "urn:uuid:",
          "display": "Pelayo Casal"
        }
      }
    },
    {
      "fullUrl": "urn:uuid:00e850a8-a038-4f52-b400-8e4689c033d8",
      "resource": {
        "resourceType": "Procedure",
        "id": "00e850a8-a038-4f52-b400-8e4689c033d8",
        "meta": {
          "profile": [
            "http://hl7.org/fhir/uv/ips/StructureDefinition/Procedure-uv-ips"
          ]
        },
        "code": {
          "coding": [
            {
              "code": "315639002",
              "system": "http://snomed.info/sct",
              "display": "Initial patient assessment (procedure)"
            }
          ],
          "text": "Initial patient assessment"
        },
        "text": {
          "status": "generated",
          "div": "<div xmlns=\"http://www.w3.org/1999/xhtml\"><table class=\"hl7__ips\"><tr><td>Initial patient assessment</td><td><span class=\"nb\">25-Jul-2019</span></td><td>-</td></tr></table></div>"
        },
        "status": "completed",
        "performedDateTime": "2019-07-25",
        "subject": {
          "reference": "urn:uuid:",
          "display": "Pelayo Casal"
        }
      }
    },
    {
      "fullUrl": "urn:uuid:d247593a-c871-44ea-ad8a-7ef493bb2630",
      "resource": {
        "resourceType": "Procedure",
        "id": "d247593a-c871-44ea-ad8a-7ef493bb2630",
        "meta": {
          "profile": [
            "http://hl7.org/fhir/uv/ips/StructureDefinition/Procedure-uv-ips"
          ]
        },
        "code": {
          "coding": [
            {
              "code": "370789001",
              "system": "http://snomed.info/sct",
              "display": "Development of individualized plan of care (procedure)"
            }
          ],
          "text": "Development of individualized plan of care"
        },
        "text": {
          "status": "generated",
          "div": "<div xmlns=\"http://www.w3.org/1999/xhtml\"><table class=\"hl7__ips\"><tr><td>Development of individualized plan of care</td><td><span class=\"nb\">25-Jul-2019</span></td><td>-</td></tr></table></div>"
        },
        "status": "completed",
        "performedDateTime": "2019-07-25",
        "subject": {
          "reference": "urn:uuid:",
          "display": "Pelayo Casal"
        }
      }
    },
    {
      "fullUrl": "urn:uuid:659c2451-89c3-49cb-ba0b-296db7b99660",
      "resource": {
        "resourceType": "AllergyIntolerance",
        "id": "659c2451-89c3-49cb-ba0b-296db7b99660",
        "meta": {
          "profile": [
            "http://hl7.eu/fhir/eps/StructureDefinition/allergyIntolerance-eu-eps"
          ]
        },
        "code": {
          "text": ""
        },
        "clinicalStatus": {
          "coding": [
            {
              "code": "active",
              "system": "http://terminology.hl7.org/CodeSystem/allergyintolerance-clinical"
            }
          ]
        },
        "text": {
          "status": "generated",
          "div": "<div xmlns=\"http://www.w3.org/1999/xhtml\"><table class=\"hl7__ips\"><tr><th>Allergy/Intolerance</th><th>Onset Date</th><th>Status</th><th>Type</th><th>Reaction</th></tr><tr><td></td><td>?</td><td>active</td><td>?</td><td></td></tr></table></div>"
        },
        "verificationStatus": {
          "coding": [
            {
              "code": "confirmed",
              "system": "http://terminology.hl7.org/CodeSystem/allergyintolerance-verification"
            }
          ]
        },
        "patient": {
          "reference": "urn:uuid:94559579-19ce-4d25-8e77-afca04069e94",
          "display": "Pelayo Casal"
        },
        "_onsetDateTime": {
          "extension": [
            {
              "url": "http://hl7.org/fhir/StructureDefinition/data-absent-reason",
              "valueCode": "unknown"
            }
          ]
        }
      }
    },
    {
      "fullUrl": "urn:uuid:b36c578a-095c-4dca-bbdb-bd8f1bc2b884",
      "resource": {
        "resourceType": "CarePlan",
        "id": "b36c578a-095c-4dca-bbdb-bd8f1bc2b884",
        "category": [
          {
            "coding": [
              {
                "code": "assess-plan",
                "system": "http://terminology.hl7.org/CodeSystem/care-plan-category",
                "display": "Assessment and Plan"
              }
            ]
          }
        ],
        "activity": [
          {
            "detail": {
              "code": {
                "coding": [
                  {
                    "code": "276239002",
                    "system": "http://snomed.info/sct",
                    "display": "Therapy (regime/therapy)"
                  }
                ]
              },
              "status": "unknown",
              "description": "Therapy",
              "kind": "Appointment"
            }
          }
        ],
        "period": {
          "start": "2014-04-02"
        },
        "text": {
          "status": "generated",
          "div": "<div xmlns=\"http://www.w3.org/1999/xhtml\"><table class=\"hl7__ips first25\"><tr><th>Active Planned Care / Goals</th><th>Start Date</th><th>Reason</th></tr><tr><td>Therapy</td><td><span class=\"nb\">02-Apr-2014</span></td><td>-</td></tr></table></div>"
        },
        "status": "active",
        "intent": "plan",
        "subject": {
          "reference": "urn:uuid:94559579-19ce-4d25-8e77-afca04069e94",
          "display": "Pelayo Casal"
        }
      }
    },
    {
      "fullUrl": "urn:uuid:65e6d7a8-1c56-4ea4-a4f8-58a39a2f19d9",
      "resource": {
        "resourceType": "CarePlan",
        "id": "65e6d7a8-1c56-4ea4-a4f8-58a39a2f19d9",
        "category": [
          {
            "coding": [
              {
                "code": "assess-plan",
                "system": "http://terminology.hl7.org/CodeSystem/care-plan-category",
                "display": "Assessment and Plan"
              }
            ]
          }
        ],
        "activity": [
          {
            "detail": {
              "code": {
                "coding": [
                  {
                    "code": "443402002",
                    "system": "http://snomed.info/sct",
                    "display": "Lifestyle education regarding hypertension (procedure)"
                  }
                ]
              },
              "reasonCode": [
                {
                  "coding": [
                    {
                      "code": "59621000",
                      "system": "http://snomed.info/sct",
                      "display": "Essential hypertension (disorder)"
                    }
                  ]
                }
              ],
              "status": "unknown",
              "description": "Lifestyle education regarding hypertension",
              "kind": "Appointment"
            }
          }
        ],
        "period": {
          "start": "1987-09-03"
        },
        "goal": [
          {
            "reference": "urn:uuid:4e5aa4ba-0961-40ea-8b8d-6afc617db7c5"
          },
          {
            "reference": "urn:uuid:3da933ec-0515-4c53-a7fe-1a6420be6e7d"
          },
          {
            "reference": "urn:uuid:45c5e52e-3540-466b-9063-42995c074100"
          },
          {
            "reference": "urn:uuid:6abe8154-5436-4cde-84c6-c47af1ee7b9a"
          }
        ],
        "text": {
          "status": "generated",
          "div": "<div xmlns=\"http://www.w3.org/1999/xhtml\"><table class=\"hl7__ips first25\"><tr><th>Active Planned Care / Goals</th><th>Start Date</th><th>Reason</th></tr><tr><td>Lifestyle education regarding hypertension</td><td><span class=\"nb\">03-Sep-1987</span></td><td>Essential hypertension (disorder)</td></tr><tr><td><ul><li>Maintain blood pressure below 130/80 mmHg through lifestyle modifications.</li><li>Limit daily sodium intake to less than 2.3 grams to support blood pressure control.</li><li>Engage in at least 150 minutes of moderate-intensity aerobic physical activity per week.</li><li>Achieve a body mass index (BMI) less than 25 kg/m2 to aid in blood pressure control.</li></ul></td><td></td><td></td></tr></table></div>"
        },
        "status": "active",
        "intent": "plan",
        "subject": {
          "reference": "urn:uuid:94559579-19ce-4d25-8e77-afca04069e94",
          "display": "Pelayo Casal"
        }
      }
    },
    {
      "fullUrl": "urn:uuid:30b3f45d-6927-4e89-812c-9084aa072737",
      "resource": {
        "resourceType": "CarePlan",
        "id": "30b3f45d-6927-4e89-812c-9084aa072737",
        "category": [
          {
            "coding": [
              {
                "code": "assess-plan",
                "system": "http://terminology.hl7.org/CodeSystem/care-plan-category",
                "display": "Assessment and Plan"
              }
            ]
          }
        ],
        "activity": [
          {
            "detail": {
              "code": {
                "coding": [
                  {
                    "code": "698360004",
                    "system": "http://snomed.info/sct",
                    "display": "Diabetes self management plan (qualifier value)"
                  }
                ]
              },
              "reasonCode": [
                {
                  "coding": [
                    {
                      "code": "15777000",
                      "system": "http://snomed.info/sct",
                      "display": "Prediabetes"
                    }
                  ]
                }
              ],
              "status": "unknown",
              "description": "Diabetes self management plan",
              "kind": "Appointment"
            }
          }
        ],
        "period": {
          "start": "1968-10-31"
        },
        "goal": [
          {
            "reference": "urn:uuid:3f37ba01-9bb5-46a2-a229-0e1e6d386676"
          },
          {
            "reference": "urn:uuid:31c0fe55-1a17-4a1c-a094-ee84f80639ba"
          },
          {
            "reference": "urn:uuid:b75787fd-1938-4861-8ad7-38eedc77ddc7"
          },
          {
            "reference": "urn:uuid:f7a39d82-6e28-4dea-8c0c-f25d5a2eb721"
          },
          {
            "reference": "urn:uuid:9d0754b0-27a9-489a-9a91-c9a5601a44d3"
          }
        ],
        "text": {
          "status": "generated",
          "div": "<div xmlns=\"http://www.w3.org/1999/xhtml\"><table class=\"hl7__ips first25\"><tr><th>Active Planned Care / Goals</th><th>Start Date</th><th>Reason</th></tr><tr><td>Diabetes self management plan</td><td><span class=\"nb\">31-Oct-1968</span></td><td>Prediabetes</td></tr><tr><td><ul><li>Patient will implement and maintain a diabetes self-management plan to delay or prevent progression to type 2 diabetes.</li><li>Maintain hemoglobin A1c below 6.5% to reduce risk of progression to diabetes.</li><li>Maintain fasting plasma glucose below 7.0 mmol/L.</li><li>Achieve and maintain at least 5% weight loss from baseline to improve glycemic parameters.</li><li>Maintain blood pressure below 130/80 mm[Hg] to reduce cardiovascular and renal risk.</li></ul></td><td></td><td></td></tr></table></div>"
        },
        "status": "active",
        "intent": "plan",
        "subject": {
          "reference": "urn:uuid:94559579-19ce-4d25-8e77-afca04069e94",
          "display": "Pelayo Casal"
        }
      }
    },
    {
      "fullUrl": "urn:uuid:1317a3b2-46a6-4f88-af0e-fff9c8bc59da",
      "resource": {
        "resourceType": "ImmunizationRecommendation",
        "id": "1317a3b2-46a6-4f88-af0e-fff9c8bc59da",
        "recommendation": [
          {
            "vaccineCode": [
              {
                "coding": [
                  {
                    "code": "1181000221105",
                    "system": "http://snomed.info/sct",
                    "display": "Vaccine product containing only Influenza virus antigen (medicinal product)"
                  }
                ]
              }
            ],
            "dateCriterion": [
              {
                "code": {
                  "coding": [
                    {
                      "code": "30980-7",
                      "system": "http://loinc.org",
                      "display": "Date vaccine due"
                    }
                  ]
                },
                "value": "2025-10-01"
              }
            ],
            "targetDisease": {
              "coding": [
                {
                  "code": "6142004",
                  "system": "http://snomed.info/sct",
                  "display": "Influenza (disorder)"
                }
              ]
            },
            "series": "Annual seasonal influenza vaccination",
            "forecastStatus": {
              "coding": [
                {
                  "code": "due",
                  "system": "http://terminology.hl7.org/CodeSystem/immunization-recommendation-status",
                  "display": "Due"
                }
              ]
            }
          }
        ],
        "text": {
          "status": "generated",
          "div": "<div xmlns=\"http://www.w3.org/1999/xhtml\"><table class=\"hl7__ips\"><tr><td>Vaccine product containing only Influenza virus antigen (medicinal product)</td><td><span class=\"nb\">01-Oct-2025</span></td><td>Annual seasonal influenza vaccination</td></tr></table></div>"
        },
        "date": "2025-10-22",
        "patient": {
          "reference": "urn:uuid:94559579-19ce-4d25-8e77-afca04069e94",
          "display": "Pelayo Casal"
        }
      }
    },
    {
      "fullUrl": "urn:uuid:ae92300e-a5ee-4f89-ace5-8d30f9852843",
      "resource": {
        "resourceType": "Observation",
        "id": "ae92300e-a5ee-4f89-ace5-8d30f9852843",
        "meta": {
          "profile": [
            "http://hl7.org/fhir/StructureDefinition/vitalsigns"
          ]
        },
        "category": [
          {
            "coding": [
              {
                "system": "http://terminology.hl7.org/CodeSystem/observation-category",
                "code": "vital-signs",
                "display": "Vital Signs"
              }
            ]
          }
        ],
        "valueQuantity": {
          "value": 185.2,
          "code": "cm",
          "unit": "cm"
        },
        "text": {
          "status": "generated",
          "div": "<div xmlns=\"http://www.w3.org/1999/xhtml\"><table class=\"hl7__ips\"><tr><th>Vital Sign</th><th>Date</th><th>Measurement</th></tr><tr><td>Body Height</td><td>17-Jul-2025</td><td>185.2 cm</td></tr></table></div>"
        },
        "status": "final",
        "code": {
          "coding": [
            {
              "code": "$8302-2",
              "system": "http://loinc.org",
              "display": "Body Height"
            }
          ]
        },
        "subject": {
          "reference": "urn:uuid:94559579-19ce-4d25-8e77-afca04069e94",
          "display": "Pelayo Casal"
        },
        "effectiveDateTime": "2025-07-17"
      }
    },
    {
      "fullUrl": "urn:uuid:c3dca691-e4c2-4336-b522-4cfaab97d2c3",
      "resource": {
        "resourceType": "Observation",
        "id": "c3dca691-e4c2-4336-b522-4cfaab97d2c3",
        "meta": {
          "profile": [
            "http://hl7.org/fhir/StructureDefinition/vitalsigns"
          ]
        },
        "category": [
          {
            "coding": [
              {
                "system": "http://terminology.hl7.org/CodeSystem/observation-category",
                "code": "vital-signs",
                "display": "Vital Signs"
              }
            ]
          }
        ],
        "valueQuantity": {
          "value": 1,
          "code": "{score}",
          "unit": "{score}"
        },
        "text": {
          "status": "generated",
          "div": "<div xmlns=\"http://www.w3.org/1999/xhtml\"><table class=\"hl7__ips\"><tr><th>Vital Sign</th><th>Date</th><th>Measurement</th></tr><tr><td>Pain severity - 0-10 verbal numeric rating [Score] - Reported</td><td>17-Jul-2025</td><td>1 {score}</td></tr></table></div>"
        },
        "status": "final",
        "code": {
          "coding": [
            {
              "code": "$72514-3",
              "system": "http://loinc.org",
              "display": "Pain severity - 0-10 verbal numeric rating [Score] - Reported"
            }
          ]
        },
        "subject": {
          "reference": "urn:uuid:94559579-19ce-4d25-8e77-afca04069e94",
          "display": "Pelayo Casal"
        },
        "effectiveDateTime": "2025-07-17"
      }
    },
    {
      "fullUrl": "urn:uuid:c94a0fc2-df84-4ac5-8d89-8ef868d405a1",
      "resource": {
        "resourceType": "Observation",
        "id": "c94a0fc2-df84-4ac5-8d89-8ef868d405a1",
        "meta": {
          "profile": [
            "http://hl7.org/fhir/StructureDefinition/vitalsigns"
          ]
        },
        "category": [
          {
            "coding": [
              {
                "system": "http://terminology.hl7.org/CodeSystem/observation-category",
                "code": "vital-signs",
                "display": "Vital Signs"
              }
            ]
          }
        ],
        "valueQuantity": {
          "value": 104,
          "code": "kg",
          "unit": "kg"
        },
        "text": {
          "status": "generated",
          "div": "<div xmlns=\"http://www.w3.org/1999/xhtml\"><table class=\"hl7__ips\"><tr><th>Vital Sign</th><th>Date</th><th>Measurement</th></tr><tr><td>Body Weight</td><td>17-Jul-2025</td><td>104 kg</td></tr></table></div>"
        },
        "status": "final",
        "code": {
          "coding": [
            {
              "code": "$29463-7",
              "system": "http://loinc.org",
              "display": "Body Weight"
            }
          ]
        },
        "subject": {
          "reference": "urn:uuid:94559579-19ce-4d25-8e77-afca04069e94",
          "display": "Pelayo Casal"
        },
        "effectiveDateTime": "2025-07-17"
      }
    },
    {
      "fullUrl": "urn:uuid:b679a37b-6c5f-4892-b8bd-f43923815926",
      "resource": {
        "resourceType": "Observation",
        "id": "b679a37b-6c5f-4892-b8bd-f43923815926",
        "meta": {
          "profile": [
            "http://hl7.org/fhir/StructureDefinition/vitalsigns"
          ]
        },
        "category": [
          {
            "coding": [
              {
                "system": "http://terminology.hl7.org/CodeSystem/observation-category",
                "code": "vital-signs",
                "display": "Vital Signs"
              }
            ]
          }
        ],
        "valueQuantity": {
          "value": 30.3,
          "code": "kg/m2",
          "unit": "kg/m2"
        },
        "text": {
          "status": "generated",
          "div": "<div xmlns=\"http://www.w3.org/1999/xhtml\"><table class=\"hl7__ips\"><tr><th>Vital Sign</th><th>Date</th><th>Measurement</th></tr><tr><td>Body mass index (BMI) [Ratio]</td><td>17-Jul-2025</td><td>30.3 kg/m2</td></tr></table></div>"
        },
        "status": "final",
        "code": {
          "coding": [
            {
              "code": "$39156-5",
              "system": "http://loinc.org",
              "display": "Body mass index (BMI) [Ratio]"
            }
          ]
        },
        "subject": {
          "reference": "urn:uuid:94559579-19ce-4d25-8e77-afca04069e94",
          "display": "Pelayo Casal"
        },
        "effectiveDateTime": "2025-07-17"
      }
    },
    {
      "fullUrl": "urn:uuid:01817a69-96d9-4173-8e48-d5380c8fc98a",
      "resource": {
        "resourceType": "Observation",
        "id": "01817a69-96d9-4173-8e48-d5380c8fc98a",
        "meta": {
          "profile": [
            "http://hl7.org/fhir/StructureDefinition/vitalsigns"
          ]
        },
        "category": [
          {
            "coding": [
              {
                "system": "http://terminology.hl7.org/CodeSystem/observation-category",
                "code": "vital-signs",
                "display": "Vital Signs"
              }
            ]
          }
        ],
        "valueQuantity": {
          "value": 89,
          "code": "mm[Hg]",
          "unit": "mm[Hg]"
        },
        "text": {
          "status": "generated",
          "div": "<div xmlns=\"http://www.w3.org/1999/xhtml\"><table class=\"hl7__ips\"><tr><th>Vital Sign</th><th>Date</th><th>Measurement</th></tr><tr><td>Diastolic Blood Pressure</td><td>17-Jul-2025</td><td>89 mm[Hg]</td></tr></table></div>"
        },
        "status": "final",
        "code": {
          "coding": [
            {
              "code": "$8462-4",
              "system": "http://loinc.org",
              "display": "Diastolic Blood Pressure"
            }
          ]
        },
        "subject": {
          "reference": "urn:uuid:94559579-19ce-4d25-8e77-afca04069e94",
          "display": "Pelayo Casal"
        },
        "effectiveDateTime": "2025-07-17"
      }
    },
    {
      "fullUrl": "urn:uuid:7b54ec47-b84b-49ae-b1b9-a0586527a87d",
      "resource": {
        "resourceType": "Observation",
        "id": "7b54ec47-b84b-49ae-b1b9-a0586527a87d",
        "meta": {
          "profile": [
            "http://hl7.org/fhir/StructureDefinition/vitalsigns"
          ]
        },
        "category": [
          {
            "coding": [
              {
                "system": "http://terminology.hl7.org/CodeSystem/observation-category",
                "code": "vital-signs",
                "display": "Vital Signs"
              }
            ]
          }
        ],
        "valueQuantity": {
          "value": 111,
          "code": "mm[Hg]",
          "unit": "mm[Hg]"
        },
        "text": {
          "status": "generated",
          "div": "<div xmlns=\"http://www.w3.org/1999/xhtml\"><table class=\"hl7__ips\"><tr><th>Vital Sign</th><th>Date</th><th>Measurement</th></tr><tr><td>Systolic Blood Pressure</td><td>17-Jul-2025</td><td>111 mm[Hg]</td></tr></table></div>"
        },
        "status": "final",
        "code": {
          "coding": [
            {
              "code": "$8480-6",
              "system": "http://loinc.org",
              "display": "Systolic Blood Pressure"
            }
          ]
        },
        "subject": {
          "reference": "urn:uuid:94559579-19ce-4d25-8e77-afca04069e94",
          "display": "Pelayo Casal"
        },
        "effectiveDateTime": "2025-07-17"
      }
    },
    {
      "fullUrl": "urn:uuid:a2f67391-d7d8-402a-ae09-702ec63bc4c5",
      "resource": {
        "resourceType": "Observation",
        "id": "a2f67391-d7d8-402a-ae09-702ec63bc4c5",
        "meta": {
          "profile": [
            "http://hl7.org/fhir/StructureDefinition/vitalsigns"
          ]
        },
        "category": [
          {
            "coding": [
              {
                "system": "http://terminology.hl7.org/CodeSystem/observation-category",
                "code": "vital-signs",
                "display": "Vital Signs"
              }
            ]
          }
        ],
        "valueQuantity": {
          "value": 79,
          "code": "/min",
          "unit": "/min"
        },
        "text": {
          "status": "generated",
          "div": "<div xmlns=\"http://www.w3.org/1999/xhtml\"><table class=\"hl7__ips\"><tr><th>Vital Sign</th><th>Date</th><th>Measurement</th></tr><tr><td>Heart rate</td><td>17-Jul-2025</td><td>79 /min</td></tr></table></div>"
        },
        "status": "final",
        "code": {
          "coding": [
            {
              "code": "$8867-4",
              "system": "http://loinc.org",
              "display": "Heart rate"
            }
          ]
        },
        "subject": {
          "reference": "urn:uuid:94559579-19ce-4d25-8e77-afca04069e94",
          "display": "Pelayo Casal"
        },
        "effectiveDateTime": "2025-07-17"
      }
    },
    {
      "fullUrl": "urn:uuid:8e38c4eb-064e-4c07-b612-abb840ea6951",
      "resource": {
        "resourceType": "Observation",
        "id": "8e38c4eb-064e-4c07-b612-abb840ea6951",
        "meta": {
          "profile": [
            "http://hl7.org/fhir/StructureDefinition/vitalsigns"
          ]
        },
        "category": [
          {
            "coding": [
              {
                "system": "http://terminology.hl7.org/CodeSystem/observation-category",
                "code": "vital-signs",
                "display": "Vital Signs"
              }
            ]
          }
        ],
        "valueQuantity": {
          "value": 16,
          "code": "/min",
          "unit": "/min"
        },
        "text": {
          "status": "generated",
          "div": "<div xmlns=\"http://www.w3.org/1999/xhtml\"><table class=\"hl7__ips\"><tr><th>Vital Sign</th><th>Date</th><th>Measurement</th></tr><tr><td>Respiratory rate</td><td>17-Jul-2025</td><td>16 /min</td></tr></table></div>"
        },
        "status": "final",
        "code": {
          "coding": [
            {
              "code": "$9279-1",
              "system": "http://loinc.org",
              "display": "Respiratory rate"
            }
          ]
        },
        "subject": {
          "reference": "urn:uuid:94559579-19ce-4d25-8e77-afca04069e94",
          "display": "Pelayo Casal"
        },
        "effectiveDateTime": "2025-07-17"
      }
    },
    {
      "fullUrl": "urn:uuid:210bf27b-b6a9-4ed9-910e-ef169d6df070",
      "resource": {
        "resourceType": "Observation",
        "id": "210bf27b-b6a9-4ed9-910e-ef169d6df070",
        "meta": {
          "profile": [
            "http://hl7.org/fhir/StructureDefinition/vitalsigns"
          ]
        },
        "category": [
          {
            "coding": [
              {
                "system": "http://terminology.hl7.org/CodeSystem/observation-category",
                "code": "vital-signs",
                "display": "Vital Signs"
              }
            ]
          }
        ],
        "valueQuantity": {
          "value": 185.2,
          "code": "cm",
          "unit": "cm"
        },
        "text": {
          "status": "generated",
          "div": "<div xmlns=\"http://www.w3.org/1999/xhtml\"><table class=\"hl7__ips\"><tr><th>Vital Sign</th><th>Date</th><th>Measurement</th></tr><tr><td>Body Height</td><td>03-Apr-2025</td><td>185.2 cm</td></tr></table></div>"
        },
        "status": "final",
        "code": {
          "coding": [
            {
              "code": "$8302-2",
              "system": "http://loinc.org",
              "display": "Body Height"
            }
          ]
        },
        "subject": {
          "reference": "urn:uuid:94559579-19ce-4d25-8e77-afca04069e94",
          "display": "Pelayo Casal"
        },
        "effectiveDateTime": "2025-04-03"
      }
    },
    {
      "fullUrl": "urn:uuid:8baf4b3a-253f-4428-aaa5-4b72c4107c70",
      "resource": {
        "resourceType": "Observation",
        "id": "8baf4b3a-253f-4428-aaa5-4b72c4107c70",
        "meta": {
          "profile": [
            "http://hl7.org/fhir/StructureDefinition/vitalsigns"
          ]
        },
        "category": [
          {
            "coding": [
              {
                "system": "http://terminology.hl7.org/CodeSystem/observation-category",
                "code": "vital-signs",
                "display": "Vital Signs"
              }
            ]
          }
        ],
        "valueQuantity": {
          "value": 3,
          "code": "{score}",
          "unit": "{score}"
        },
        "text": {
          "status": "generated",
          "div": "<div xmlns=\"http://www.w3.org/1999/xhtml\"><table class=\"hl7__ips\"><tr><th>Vital Sign</th><th>Date</th><th>Measurement</th></tr><tr><td>Pain severity - 0-10 verbal numeric rating [Score] - Reported</td><td>03-Apr-2025</td><td>3 {score}</td></tr></table></div>"
        },
        "status": "final",
        "code": {
          "coding": [
            {
              "code": "$72514-3",
              "system": "http://loinc.org",
              "display": "Pain severity - 0-10 verbal numeric rating [Score] - Reported"
            }
          ]
        },
        "subject": {
          "reference": "urn:uuid:94559579-19ce-4d25-8e77-afca04069e94",
          "display": "Pelayo Casal"
        },
        "effectiveDateTime": "2025-04-03"
      }
    },
    {
      "fullUrl": "urn:uuid:6c510a83-71c5-41e1-aee1-f8aabdae1015",
      "resource": {
        "resourceType": "Observation",
        "id": "6c510a83-71c5-41e1-aee1-f8aabdae1015",
        "meta": {
          "profile": [
            "http://hl7.org/fhir/StructureDefinition/vitalsigns"
          ]
        },
        "category": [
          {
            "coding": [
              {
                "system": "http://terminology.hl7.org/CodeSystem/observation-category",
                "code": "vital-signs",
                "display": "Vital Signs"
              }
            ]
          }
        ],
        "valueQuantity": {
          "value": 104,
          "code": "kg",
          "unit": "kg"
        },
        "text": {
          "status": "generated",
          "div": "<div xmlns=\"http://www.w3.org/1999/xhtml\"><table class=\"hl7__ips\"><tr><th>Vital Sign</th><th>Date</th><th>Measurement</th></tr><tr><td>Body Weight</td><td>03-Apr-2025</td><td>104 kg</td></tr></table></div>"
        },
        "status": "final",
        "code": {
          "coding": [
            {
              "code": "$29463-7",
              "system": "http://loinc.org",
              "display": "Body Weight"
            }
          ]
        },
        "subject": {
          "reference": "urn:uuid:94559579-19ce-4d25-8e77-afca04069e94",
          "display": "Pelayo Casal"
        },
        "effectiveDateTime": "2025-04-03"
      }
    },
    {
      "fullUrl": "urn:uuid:ebcd95a4-9435-49d7-8275-8b715211f15e",
      "resource": {
        "resourceType": "Observation",
        "id": "ebcd95a4-9435-49d7-8275-8b715211f15e",
        "meta": {
          "profile": [
            "http://hl7.org/fhir/StructureDefinition/vitalsigns"
          ]
        },
        "category": [
          {
            "coding": [
              {
                "system": "http://terminology.hl7.org/CodeSystem/observation-category",
                "code": "vital-signs",
                "display": "Vital Signs"
              }
            ]
          }
        ],
        "valueQuantity": {
          "value": 30.3,
          "code": "kg/m2",
          "unit": "kg/m2"
        },
        "text": {
          "status": "generated",
          "div": "<div xmlns=\"http://www.w3.org/1999/xhtml\"><table class=\"hl7__ips\"><tr><th>Vital Sign</th><th>Date</th><th>Measurement</th></tr><tr><td>Body mass index (BMI) [Ratio]</td><td>03-Apr-2025</td><td>30.3 kg/m2</td></tr></table></div>"
        },
        "status": "final",
        "code": {
          "coding": [
            {
              "code": "$39156-5",
              "system": "http://loinc.org",
              "display": "Body mass index (BMI) [Ratio]"
            }
          ]
        },
        "subject": {
          "reference": "urn:uuid:94559579-19ce-4d25-8e77-afca04069e94",
          "display": "Pelayo Casal"
        },
        "effectiveDateTime": "2025-04-03"
      }
    },
    {
      "fullUrl": "urn:uuid:4c71b5d1-196c-46ce-b134-d7205456873b",
      "resource": {
        "resourceType": "Observation",
        "id": "4c71b5d1-196c-46ce-b134-d7205456873b",
        "meta": {
          "profile": [
            "http://hl7.org/fhir/StructureDefinition/vitalsigns"
          ]
        },
        "category": [
          {
            "coding": [
              {
                "system": "http://terminology.hl7.org/CodeSystem/observation-category",
                "code": "vital-signs",
                "display": "Vital Signs"
              }
            ]
          }
        ],
        "valueQuantity": {
          "value": 95,
          "code": "mm[Hg]",
          "unit": "mm[Hg]"
        },
        "text": {
          "status": "generated",
          "div": "<div xmlns=\"http://www.w3.org/1999/xhtml\"><table class=\"hl7__ips\"><tr><th>Vital Sign</th><th>Date</th><th>Measurement</th></tr><tr><td>Diastolic Blood Pressure</td><td>03-Apr-2025</td><td>95 mm[Hg]</td></tr></table></div>"
        },
        "status": "final",
        "code": {
          "coding": [
            {
              "code": "$8462-4",
              "system": "http://loinc.org",
              "display": "Diastolic Blood Pressure"
            }
          ]
        },
        "subject": {
          "reference": "urn:uuid:94559579-19ce-4d25-8e77-afca04069e94",
          "display": "Pelayo Casal"
        },
        "effectiveDateTime": "2025-04-03"
      }
    },
    {
      "fullUrl": "urn:uuid:d05f4c2a-f764-4d79-a386-b681ddea935c",
      "resource": {
        "resourceType": "Observation",
        "id": "d05f4c2a-f764-4d79-a386-b681ddea935c",
        "meta": {
          "profile": [
            "http://hl7.org/fhir/StructureDefinition/vitalsigns"
          ]
        },
        "category": [
          {
            "coding": [
              {
                "system": "http://terminology.hl7.org/CodeSystem/observation-category",
                "code": "vital-signs",
                "display": "Vital Signs"
              }
            ]
          }
        ],
        "valueQuantity": {
          "value": 116,
          "code": "mm[Hg]",
          "unit": "mm[Hg]"
        },
        "text": {
          "status": "generated",
          "div": "<div xmlns=\"http://www.w3.org/1999/xhtml\"><table class=\"hl7__ips\"><tr><th>Vital Sign</th><th>Date</th><th>Measurement</th></tr><tr><td>Systolic Blood Pressure</td><td>03-Apr-2025</td><td>116 mm[Hg]</td></tr></table></div>"
        },
        "status": "final",
        "code": {
          "coding": [
            {
              "code": "$8480-6",
              "system": "http://loinc.org",
              "display": "Systolic Blood Pressure"
            }
          ]
        },
        "subject": {
          "reference": "urn:uuid:94559579-19ce-4d25-8e77-afca04069e94",
          "display": "Pelayo Casal"
        },
        "effectiveDateTime": "2025-04-03"
      }
    },
    {
      "fullUrl": "urn:uuid:ee5ffd77-8592-421f-bfef-30c904551622",
      "resource": {
        "resourceType": "Observation",
        "id": "ee5ffd77-8592-421f-bfef-30c904551622",
        "meta": {
          "profile": [
            "http://hl7.org/fhir/StructureDefinition/vitalsigns"
          ]
        },
        "category": [
          {
            "coding": [
              {
                "system": "http://terminology.hl7.org/CodeSystem/observation-category",
                "code": "vital-signs",
                "display": "Vital Signs"
              }
            ]
          }
        ],
        "valueQuantity": {
          "value": 97,
          "code": "/min",
          "unit": "/min"
        },
        "text": {
          "status": "generated",
          "div": "<div xmlns=\"http://www.w3.org/1999/xhtml\"><table class=\"hl7__ips\"><tr><th>Vital Sign</th><th>Date</th><th>Measurement</th></tr><tr><td>Heart rate</td><td>03-Apr-2025</td><td>97 /min</td></tr></table></div>"
        },
        "status": "final",
        "code": {
          "coding": [
            {
              "code": "$8867-4",
              "system": "http://loinc.org",
              "display": "Heart rate"
            }
          ]
        },
        "subject": {
          "reference": "urn:uuid:94559579-19ce-4d25-8e77-afca04069e94",
          "display": "Pelayo Casal"
        },
        "effectiveDateTime": "2025-04-03"
      }
    },
    {
      "fullUrl": "urn:uuid:b7ecfd01-2b72-4450-aaae-5680aca6ac74",
      "resource": {
        "resourceType": "Observation",
        "id": "b7ecfd01-2b72-4450-aaae-5680aca6ac74",
        "meta": {
          "profile": [
            "http://hl7.org/fhir/StructureDefinition/vitalsigns"
          ]
        },
        "category": [
          {
            "coding": [
              {
                "system": "http://terminology.hl7.org/CodeSystem/observation-category",
                "code": "vital-signs",
                "display": "Vital Signs"
              }
            ]
          }
        ],
        "valueQuantity": {
          "value": 13,
          "code": "/min",
          "unit": "/min"
        },
        "text": {
          "status": "generated",
          "div": "<div xmlns=\"http://www.w3.org/1999/xhtml\"><table class=\"hl7__ips\"><tr><th>Vital Sign</th><th>Date</th><th>Measurement</th></tr><tr><td>Respiratory rate</td><td>03-Apr-2025</td><td>13 /min</td></tr></table></div>"
        },
        "status": "final",
        "code": {
          "coding": [
            {
              "code": "$9279-1",
              "system": "http://loinc.org",
              "display": "Respiratory rate"
            }
          ]
        },
        "subject": {
          "reference": "urn:uuid:94559579-19ce-4d25-8e77-afca04069e94",
          "display": "Pelayo Casal"
        },
        "effectiveDateTime": "2025-04-03"
      }
    },
    {
      "fullUrl": "urn:uuid:948c440f-c630-4a74-8436-84987b3f5693",
      "resource": {
        "resourceType": "Observation",
        "id": "948c440f-c630-4a74-8436-84987b3f5693",
        "meta": {
          "profile": [
            "http://hl7.eu/fhir/laboratory/StructureDefinition/Observation-resultslab-eu-lab"
          ]
        },
        "performer": [
          {
            "display": "The Central European Lab"
          }
        ],
        "category": [
          {
            "coding": [
              {
                "system": "http://terminology.hl7.org/CodeSystem/observation-category",
                "code": "laboratory"
              }
            ]
          }
        ],
        "code": {
          "coding": [
            {
              "code": "2345-7",
              "system": "http://loinc.org",
              "display": "Glucose [Mass/volume] in Serum or Plasma"
            }
          ],
          "text": "Glucose [Mass/volume] in Serum or Plasma"
        },
        "valueQuantity": {
          "system": "http://unitsofmeasure.org",
          "value": 94.5,
          "unit": "mg/dL",
          "code": "mg/dL"
        },
        "referenceRange": [
          {
            "low": {
              "value": 70,
              "code": "mg/dL",
              "system": "http://unitsofmeasure.org"
            }
          },
          {
            "high": {
              "value": 140,
              "code": "mg/dL",
              "system": "http://unitsofmeasure.org"
            }
          }
        ],
        "text": {
          "status": "generated",
          "div": "<div xmlns=\"http://www.w3.org/1999/xhtml\"><table class=\"hl7__eu__lab__report\"><tr><th>Test</th><th>17-Jul-2025</th><th>Reference&#xA0;Range</th><th>Unit</th></tr><tr><td>Glucose [Mass/volume] in Serum or Plasma</td><td>94.5</td><td>70 - 140</td><td></td><td>mg/dL</td></tr></table></div>"
        },
        "status": "final",
        "subject": {
          "reference": "urn:uuid:94559579-19ce-4d25-8e77-afca04069e94",
          "display": "Pelayo Casal"
        },
        "effectiveDateTime": "2025-07-17T05:38:59Z"
      }
    },
    {
      "fullUrl": "urn:uuid:64a1ac39-ed78-47d6-a1d0-c14308c2b16d",
      "resource": {
        "resourceType": "Observation",
        "id": "64a1ac39-ed78-47d6-a1d0-c14308c2b16d",
        "meta": {
          "profile": [
            "http://hl7.eu/fhir/laboratory/StructureDefinition/Observation-resultslab-eu-lab"
          ]
        },
        "performer": [
          {
            "display": "The Central European Lab"
          }
        ],
        "category": [
          {
            "coding": [
              {
                "system": "http://terminology.hl7.org/CodeSystem/observation-category",
                "code": "laboratory"
              }
            ]
          }
        ],
        "code": {
          "coding": [
            {
              "code": "3094-0",
              "system": "http://loinc.org",
              "display": "Urea nitrogen [Mass/volume] in Serum or Plasma"
            }
          ],
          "text": "Urea nitrogen [Mass/volume] in Serum or Plasma"
        },
        "valueQuantity": {
          "system": "http://unitsofmeasure.org",
          "value": 13.5,
          "unit": "mg/dL",
          "code": "mg/dL"
        },
        "referenceRange": [
          {
            "low": {
              "value": 7,
              "code": "mg/dL",
              "system": "http://unitsofmeasure.org"
            }
          },
          {
            "high": {
              "value": 25,
              "code": "mg/dL",
              "system": "http://unitsofmeasure.org"
            }
          }
        ],
        "text": {
          "status": "generated",
          "div": "<div xmlns=\"http://www.w3.org/1999/xhtml\"><table class=\"hl7__eu__lab__report\"><tr><th>Test</th><th>17-Jul-2025</th><th>Reference&#xA0;Range</th><th>Unit</th></tr><tr><td>Urea nitrogen [Mass/volume] in Serum or Plasma</td><td>13.5</td><td>7 - 25</td><td></td><td>mg/dL</td></tr></table></div>"
        },
        "status": "final",
        "subject": {
          "reference": "urn:uuid:94559579-19ce-4d25-8e77-afca04069e94",
          "display": "Pelayo Casal"
        },
        "effectiveDateTime": "2025-07-17T05:38:59Z"
      }
    },
    {
      "fullUrl": "urn:uuid:1d972c1d-a42e-4837-b4ec-3a841ad44f89",
      "resource": {
        "resourceType": "Observation",
        "id": "1d972c1d-a42e-4837-b4ec-3a841ad44f89",
        "meta": {
          "profile": [
            "http://hl7.eu/fhir/laboratory/StructureDefinition/Observation-resultslab-eu-lab"
          ]
        },
        "performer": [
          {
            "display": "The Central European Lab"
          }
        ],
        "category": [
          {
            "coding": [
              {
                "system": "http://terminology.hl7.org/CodeSystem/observation-category",
                "code": "laboratory"
              }
            ]
          }
        ],
        "code": {
          "coding": [
            {
              "code": "2160-0",
              "system": "http://loinc.org",
              "display": "Creatinine [Mass/volume] in Serum or Plasma"
            }
          ],
          "text": "Creatinine [Mass/volume] in Serum or Plasma"
        },
        "valueQuantity": {
          "system": "http://unitsofmeasure.org",
          "value": 2.1,
          "unit": "mg/dL",
          "code": "mg/dL"
        },
        "referenceRange": [
          {
            "low": {
              "value": 0.9,
              "code": "mg/dL",
              "system": "http://unitsofmeasure.org"
            }
          },
          {
            "high": {
              "value": 1.3,
              "code": "mg/dL",
              "system": "http://unitsofmeasure.org"
            }
          }
        ],
        "interpretation": [
          {
            "coding": [
              {
                "code": "H",
                "system": "http://terminology.hl7.org/CodeSystem/v3-ObservationInterpretation",
                "display": "High"
              }
            ]
          }
        ],
        "text": {
          "status": "generated",
          "div": "<div xmlns=\"http://www.w3.org/1999/xhtml\"><table class=\"hl7__eu__lab__report\"><tr><th>Test</th><th>17-Jul-2025</th><th>Reference&#xA0;Range</th><th>Unit</th></tr><tr><td>Creatinine [Mass/volume] in Serum or Plasma</td><td>2.1</td><td>0.9 - 1.3</td><td>H</td><td>mg/dL</td></tr></table></div>"
        },
        "status": "final",
        "subject": {
          "reference": "urn:uuid:94559579-19ce-4d25-8e77-afca04069e94",
          "display": "Pelayo Casal"
        },
        "effectiveDateTime": "2025-07-17T05:38:59Z"
      }
    },
    {
      "fullUrl": "urn:uuid:b18ef02f-d08b-493f-8b44-ab21d93965d0",
      "resource": {
        "resourceType": "Observation",
        "id": "b18ef02f-d08b-493f-8b44-ab21d93965d0",
        "meta": {
          "profile": [
            "http://hl7.eu/fhir/laboratory/StructureDefinition/Observation-resultslab-eu-lab"
          ]
        },
        "performer": [
          {
            "display": "The Central European Lab"
          }
        ],
        "category": [
          {
            "coding": [
              {
                "system": "http://terminology.hl7.org/CodeSystem/observation-category",
                "code": "laboratory"
              }
            ]
          }
        ],
        "code": {
          "coding": [
            {
              "code": "17861-6",
              "system": "http://loinc.org",
              "display": "Calcium [Mass/volume] in Serum or Plasma"
            }
          ],
          "text": "Calcium [Mass/volume] in Serum or Plasma"
        },
        "valueQuantity": {
          "system": "http://unitsofmeasure.org",
          "value": 9,
          "unit": "mg/dL",
          "code": "mg/dL"
        },
        "referenceRange": [
          {
            "low": {
              "value": 8.5,
              "code": "mg/dL",
              "system": "http://unitsofmeasure.org"
            }
          },
          {
            "high": {
              "value": 10.5,
              "code": "mg/dL",
              "system": "http://unitsofmeasure.org"
            }
          }
        ],
        "text": {
          "status": "generated",
          "div": "<div xmlns=\"http://www.w3.org/1999/xhtml\"><table class=\"hl7__eu__lab__report\"><tr><th>Test</th><th>17-Jul-2025</th><th>Reference&#xA0;Range</th><th>Unit</th></tr><tr><td>Calcium [Mass/volume] in Serum or Plasma</td><td>9.0</td><td>8.5 - 10.5</td><td></td><td>mg/dL</td></tr></table></div>"
        },
        "status": "final",
        "subject": {
          "reference": "urn:uuid:94559579-19ce-4d25-8e77-afca04069e94",
          "display": "Pelayo Casal"
        },
        "effectiveDateTime": "2025-07-17T05:38:59Z"
      }
    },
    {
      "fullUrl": "urn:uuid:5ecd9949-ec9b-423c-b4c1-06967436f37a",
      "resource": {
        "resourceType": "Observation",
        "id": "5ecd9949-ec9b-423c-b4c1-06967436f37a",
        "meta": {
          "profile": [
            "http://hl7.eu/fhir/laboratory/StructureDefinition/Observation-resultslab-eu-lab"
          ]
        },
        "performer": [
          {
            "display": "The Central European Lab"
          }
        ],
        "category": [
          {
            "coding": [
              {
                "system": "http://terminology.hl7.org/CodeSystem/observation-category",
                "code": "laboratory"
              }
            ]
          }
        ],
        "code": {
          "coding": [
            {
              "code": "2951-2",
              "system": "http://loinc.org",
              "display": "Sodium [Moles/volume] in Serum or Plasma"
            }
          ],
          "text": "Sodium [Moles/volume] in Serum or Plasma"
        },
        "valueQuantity": {
          "system": "http://unitsofmeasure.org",
          "value": 136.4,
          "unit": "mmol/L",
          "code": "mmol/L"
        },
        "referenceRange": [
          {
            "low": {
              "value": 135,
              "code": "mmol/L",
              "system": "http://unitsofmeasure.org"
            }
          },
          {
            "high": {
              "value": 145,
              "code": "mmol/L",
              "system": "http://unitsofmeasure.org"
            }
          }
        ],
        "text": {
          "status": "generated",
          "div": "<div xmlns=\"http://www.w3.org/1999/xhtml\"><table class=\"hl7__eu__lab__report\"><tr><th>Test</th><th>17-Jul-2025</th><th>Reference&#xA0;Range</th><th>Unit</th></tr><tr><td>Sodium [Moles/volume] in Serum or Plasma</td><td>136.4</td><td>135 - 145</td><td></td><td>mmol/L</td></tr></table></div>"
        },
        "status": "final",
        "subject": {
          "reference": "urn:uuid:94559579-19ce-4d25-8e77-afca04069e94",
          "display": "Pelayo Casal"
        },
        "effectiveDateTime": "2025-07-17T05:38:59Z"
      }
    },
    {
      "fullUrl": "urn:uuid:fd761dd3-26e1-44d5-9ebe-6b831e2a86c7",
      "resource": {
        "resourceType": "Observation",
        "id": "fd761dd3-26e1-44d5-9ebe-6b831e2a86c7",
        "meta": {
          "profile": [
            "http://hl7.eu/fhir/laboratory/StructureDefinition/Observation-resultslab-eu-lab"
          ]
        },
        "performer": [
          {
            "display": "The Central European Lab"
          }
        ],
        "category": [
          {
            "coding": [
              {
                "system": "http://terminology.hl7.org/CodeSystem/observation-category",
                "code": "laboratory"
              }
            ]
          }
        ],
        "code": {
          "coding": [
            {
              "code": "2823-3",
              "system": "http://loinc.org",
              "display": "Potassium [Moles/volume] in Serum or Plasma"
            }
          ],
          "text": "Potassium [Moles/volume] in Serum or Plasma"
        },
        "valueQuantity": {
          "system": "http://unitsofmeasure.org",
          "value": 4.5,
          "unit": "mmol/L",
          "code": "mmol/L"
        },
        "referenceRange": [
          {
            "low": {
              "value": 3.5,
              "code": "mmol/L",
              "system": "http://unitsofmeasure.org"
            }
          },
          {
            "high": {
              "value": 5.3,
              "code": "mmol/L",
              "system": "http://unitsofmeasure.org"
            }
          }
        ],
        "text": {
          "status": "generated",
          "div": "<div xmlns=\"http://www.w3.org/1999/xhtml\"><table class=\"hl7__eu__lab__report\"><tr><th>Test</th><th>17-Jul-2025</th><th>Reference&#xA0;Range</th><th>Unit</th></tr><tr><td>Potassium [Moles/volume] in Serum or Plasma</td><td>4.5</td><td>3.5 - 5.3</td><td></td><td>mmol/L</td></tr></table></div>"
        },
        "status": "final",
        "subject": {
          "reference": "urn:uuid:94559579-19ce-4d25-8e77-afca04069e94",
          "display": "Pelayo Casal"
        },
        "effectiveDateTime": "2025-07-17T05:38:59Z"
      }
    },
    {
      "fullUrl": "urn:uuid:679f9407-7179-46f4-8f68-6b2f5f57d307",
      "resource": {
        "resourceType": "Observation",
        "id": "679f9407-7179-46f4-8f68-6b2f5f57d307",
        "meta": {
          "profile": [
            "http://hl7.eu/fhir/laboratory/StructureDefinition/Observation-resultslab-eu-lab"
          ]
        },
        "performer": [
          {
            "display": "The Central European Lab"
          }
        ],
        "category": [
          {
            "coding": [
              {
                "system": "http://terminology.hl7.org/CodeSystem/observation-category",
                "code": "laboratory"
              }
            ]
          }
        ],
        "code": {
          "coding": [
            {
              "code": "2075-0",
              "system": "http://loinc.org",
              "display": "Chloride [Moles/volume] in Serum or Plasma"
            }
          ],
          "text": "Chloride [Moles/volume] in Serum or Plasma"
        },
        "valueQuantity": {
          "system": "http://unitsofmeasure.org",
          "value": 107.5,
          "unit": "mmol/L",
          "code": "mmol/L"
        },
        "referenceRange": [
          {
            "low": {
              "value": 98,
              "code": "mmol/L",
              "system": "http://unitsofmeasure.org"
            }
          },
          {
            "high": {
              "value": 107,
              "code": "mmol/L",
              "system": "http://unitsofmeasure.org"
            }
          }
        ],
        "interpretation": [
          {
            "coding": [
              {
                "code": "H",
                "system": "http://terminology.hl7.org/CodeSystem/v3-ObservationInterpretation",
                "display": "High"
              }
            ]
          }
        ],
        "text": {
          "status": "generated",
          "div": "<div xmlns=\"http://www.w3.org/1999/xhtml\"><table class=\"hl7__eu__lab__report\"><tr><th>Test</th><th>17-Jul-2025</th><th>Reference&#xA0;Range</th><th>Unit</th></tr><tr><td>Chloride [Moles/volume] in Serum or Plasma</td><td>107.5</td><td>98 - 107</td><td>H</td><td>mmol/L</td></tr></table></div>"
        },
        "status": "final",
        "subject": {
          "reference": "urn:uuid:94559579-19ce-4d25-8e77-afca04069e94",
          "display": "Pelayo Casal"
        },
        "effectiveDateTime": "2025-07-17T05:38:59Z"
      }
    },
    {
      "fullUrl": "urn:uuid:48cf27d8-2e94-4bc6-80ef-bc73be6c8cba",
      "resource": {
        "resourceType": "Observation",
        "id": "48cf27d8-2e94-4bc6-80ef-bc73be6c8cba",
        "meta": {
          "profile": [
            "http://hl7.eu/fhir/laboratory/StructureDefinition/Observation-resultslab-eu-lab"
          ]
        },
        "performer": [
          {
            "display": "The Central European Lab"
          }
        ],
        "category": [
          {
            "coding": [
              {
                "system": "http://terminology.hl7.org/CodeSystem/observation-category",
                "code": "laboratory"
              }
            ]
          }
        ],
        "code": {
          "coding": [
            {
              "code": "2028-9",
              "system": "http://loinc.org",
              "display": "Carbon dioxide, total [Moles/volume] in Serum or Plasma"
            }
          ],
          "text": "Carbon dioxide, total [Moles/volume] in Serum or Plasma"
        },
        "valueQuantity": {
          "system": "http://unitsofmeasure.org",
          "value": 26.9,
          "unit": "mmol/L",
          "code": "mmol/L"
        },
        "referenceRange": [
          {
            "low": {
              "value": 22,
              "code": "mmol/L",
              "system": "http://unitsofmeasure.org"
            }
          },
          {
            "high": {
              "value": 29,
              "code": "mmol/L",
              "system": "http://unitsofmeasure.org"
            }
          }
        ],
        "text": {
          "status": "generated",
          "div": "<div xmlns=\"http://www.w3.org/1999/xhtml\"><table class=\"hl7__eu__lab__report\"><tr><th>Test</th><th>17-Jul-2025</th><th>Reference&#xA0;Range</th><th>Unit</th></tr><tr><td>Carbon dioxide, total [Moles/volume] in Serum or Plasma</td><td>26.9</td><td>22 - 29</td><td></td><td>mmol/L</td></tr></table></div>"
        },
        "status": "final",
        "subject": {
          "reference": "urn:uuid:94559579-19ce-4d25-8e77-afca04069e94",
          "display": "Pelayo Casal"
        },
        "effectiveDateTime": "2025-07-17T05:38:59Z"
      }
    },
    {
      "fullUrl": "urn:uuid:1e3c2888-d1cd-4bbc-8464-8e2a02849e71",
      "resource": {
        "resourceType": "Observation",
        "id": "1e3c2888-d1cd-4bbc-8464-8e2a02849e71",
        "meta": {
          "profile": [
            "http://hl7.eu/fhir/laboratory/StructureDefinition/Observation-resultslab-eu-lab"
          ]
        },
        "performer": [
          {
            "display": "The Central European Lab"
          }
        ],
        "category": [
          {
            "coding": [
              {
                "system": "http://terminology.hl7.org/CodeSystem/observation-category",
                "code": "laboratory"
              }
            ]
          }
        ],
        "code": {
          "coding": [
            {
              "code": "5767-9",
              "system": "http://loinc.org",
              "display": "Appearance of Urine"
            }
          ],
          "text": "Appearance of Urine"
        },
        "text": {
          "status": "generated",
          "div": "<div xmlns=\"http://www.w3.org/1999/xhtml\"><table class=\"hl7__eu__lab__report\"><tr><th>Test</th><th>17-Jul-2025</th><th>Reference&#xA0;Range</th><th>Unit</th></tr><tr><td>Appearance of Urine</td></tr></table></div>"
        },
        "status": "final",
        "subject": {
          "reference": "urn:uuid:94559579-19ce-4d25-8e77-afca04069e94",
          "display": "Pelayo Casal"
        },
        "effectiveDateTime": "2025-07-17T05:38:59Z"
      }
    },
    {
      "fullUrl": "urn:uuid:70c96550-f5d3-45cb-88b3-7b4daa48b163",
      "resource": {
        "resourceType": "Observation",
        "id": "70c96550-f5d3-45cb-88b3-7b4daa48b163",
        "meta": {
          "profile": [
            "http://hl7.eu/fhir/laboratory/StructureDefinition/Observation-resultslab-eu-lab"
          ]
        },
        "performer": [
          {
            "display": "The Central European Lab"
          }
        ],
        "category": [
          {
            "coding": [
              {
                "system": "http://terminology.hl7.org/CodeSystem/observation-category",
                "code": "laboratory"
              }
            ]
          }
        ],
        "code": {
          "coding": [
            {
              "code": "34533-0",
              "system": "http://loinc.org",
              "display": "Odor of Urine"
            }
          ],
          "text": "Odor of Urine"
        },
        "text": {
          "status": "generated",
          "div": "<div xmlns=\"http://www.w3.org/1999/xhtml\"><table class=\"hl7__eu__lab__report\"><tr><th>Test</th><th>17-Jul-2025</th><th>Reference&#xA0;Range</th><th>Unit</th></tr><tr><td>Odor of Urine</td></tr></table></div>"
        },
        "status": "final",
        "subject": {
          "reference": "urn:uuid:94559579-19ce-4d25-8e77-afca04069e94",
          "display": "Pelayo Casal"
        },
        "effectiveDateTime": "2025-07-17T05:38:59Z"
      }
    },
    {
      "fullUrl": "urn:uuid:7653ca57-5a44-41cf-aea4-9f15f3dc63d4",
      "resource": {
        "resourceType": "Observation",
        "id": "7653ca57-5a44-41cf-aea4-9f15f3dc63d4",
        "meta": {
          "profile": [
            "http://hl7.eu/fhir/laboratory/StructureDefinition/Observation-resultslab-eu-lab"
          ]
        },
        "performer": [
          {
            "display": "The Central European Lab"
          }
        ],
        "category": [
          {
            "coding": [
              {
                "system": "http://terminology.hl7.org/CodeSystem/observation-category",
                "code": "laboratory"
              }
            ]
          }
        ],
        "code": {
          "coding": [
            {
              "code": "32167-9",
              "system": "http://loinc.org",
              "display": "Clarity of Urine"
            }
          ],
          "text": "Clarity of Urine"
        },
        "text": {
          "status": "generated",
          "div": "<div xmlns=\"http://www.w3.org/1999/xhtml\"><table class=\"hl7__eu__lab__report\"><tr><th>Test</th><th>17-Jul-2025</th><th>Reference&#xA0;Range</th><th>Unit</th></tr><tr><td>Clarity of Urine</td></tr></table></div>"
        },
        "status": "final",
        "subject": {
          "reference": "urn:uuid:94559579-19ce-4d25-8e77-afca04069e94",
          "display": "Pelayo Casal"
        },
        "effectiveDateTime": "2025-07-17T05:38:59Z"
      }
    },
    {
      "fullUrl": "urn:uuid:cfbe473c-ef1a-4055-a958-546114836e0b",
      "resource": {
        "resourceType": "Observation",
        "id": "cfbe473c-ef1a-4055-a958-546114836e0b",
        "meta": {
          "profile": [
            "http://hl7.eu/fhir/laboratory/StructureDefinition/Observation-resultslab-eu-lab"
          ]
        },
        "performer": [
          {
            "display": "The Central European Lab"
          }
        ],
        "category": [
          {
            "coding": [
              {
                "system": "http://terminology.hl7.org/CodeSystem/observation-category",
                "code": "laboratory"
              }
            ]
          }
        ],
        "code": {
          "coding": [
            {
              "code": "5778-6",
              "system": "http://loinc.org",
              "display": "Color of Urine"
            }
          ],
          "text": "Color of Urine"
        },
        "text": {
          "status": "generated",
          "div": "<div xmlns=\"http://www.w3.org/1999/xhtml\"><table class=\"hl7__eu__lab__report\"><tr><th>Test</th><th>17-Jul-2025</th><th>Reference&#xA0;Range</th><th>Unit</th></tr><tr><td>Color of Urine</td></tr></table></div>"
        },
        "status": "final",
        "subject": {
          "reference": "urn:uuid:94559579-19ce-4d25-8e77-afca04069e94",
          "display": "Pelayo Casal"
        },
        "effectiveDateTime": "2025-07-17T05:38:59Z"
      }
    },
    {
      "fullUrl": "urn:uuid:026cd0f8-4063-4aba-a53e-9e78083dd5c2",
      "resource": {
        "resourceType": "Observation",
        "id": "026cd0f8-4063-4aba-a53e-9e78083dd5c2",
        "meta": {
          "profile": [
            "http://hl7.eu/fhir/laboratory/StructureDefinition/Observation-resultslab-eu-lab"
          ]
        },
        "performer": [
          {
            "display": "The Central European Lab"
          }
        ],
        "category": [
          {
            "coding": [
              {
                "system": "http://terminology.hl7.org/CodeSystem/observation-category",
                "code": "laboratory"
              }
            ]
          }
        ],
        "code": {
          "coding": [
            {
              "code": "5792-7",
              "system": "http://loinc.org",
              "display": "Glucose [Mass/volume] in Urine by Test strip"
            }
          ],
          "text": "Glucose [Mass/volume] in Urine by Test strip"
        },
        "valueQuantity": {
          "system": "http://unitsofmeasure.org",
          "value": 2.2,
          "unit": "mg/dL",
          "code": "mg/dL"
        },
        "referenceRange": [
          {
            "low": {
              "value": 0.8,
              "code": "mg/dL",
              "system": "http://unitsofmeasure.org"
            }
          },
          {
            "high": {
              "value": 0,
              "code": "mg/dL",
              "system": "http://unitsofmeasure.org"
            }
          }
        ],
        "interpretation": [
          {
            "coding": [
              {
                "code": "H",
                "system": "http://terminology.hl7.org/CodeSystem/v3-ObservationInterpretation",
                "display": "High"
              }
            ]
          }
        ],
        "text": {
          "status": "generated",
          "div": "<div xmlns=\"http://www.w3.org/1999/xhtml\"><table class=\"hl7__eu__lab__report\"><tr><th>Test</th><th>17-Jul-2025</th><th>Reference&#xA0;Range</th><th>Unit</th></tr><tr><td>Glucose [Mass/volume] in Urine by Test strip</td><td>2.2</td><td>0.8 - 0</td><td>H</td><td>mg/dL</td></tr></table></div>"
        },
        "status": "final",
        "subject": {
          "reference": "urn:uuid:94559579-19ce-4d25-8e77-afca04069e94",
          "display": "Pelayo Casal"
        },
        "effectiveDateTime": "2025-07-17T05:38:59Z"
      }
    },
    {
      "fullUrl": "urn:uuid:422ef227-c2e4-4983-bc34-6b69d4675ab8",
      "resource": {
        "resourceType": "Observation",
        "id": "422ef227-c2e4-4983-bc34-6b69d4675ab8",
        "meta": {
          "profile": [
            "http://hl7.eu/fhir/laboratory/StructureDefinition/Observation-resultslab-eu-lab"
          ]
        },
        "performer": [
          {
            "display": "The Central European Lab"
          }
        ],
        "category": [
          {
            "coding": [
              {
                "system": "http://terminology.hl7.org/CodeSystem/observation-category",
                "code": "laboratory"
              }
            ]
          }
        ],
        "code": {
          "coding": [
            {
              "code": "25428-4",
              "system": "http://loinc.org",
              "display": "Glucose [Presence] in Urine by Test strip"
            }
          ],
          "text": "Glucose [Presence] in Urine by Test strip"
        },
        "text": {
          "status": "generated",
          "div": "<div xmlns=\"http://www.w3.org/1999/xhtml\"><table class=\"hl7__eu__lab__report\"><tr><th>Test</th><th>17-Jul-2025</th><th>Reference&#xA0;Range</th><th>Unit</th></tr><tr><td>Glucose [Presence] in Urine by Test strip</td></tr></table></div>"
        },
        "status": "final",
        "subject": {
          "reference": "urn:uuid:94559579-19ce-4d25-8e77-afca04069e94",
          "display": "Pelayo Casal"
        },
        "effectiveDateTime": "2025-07-17T05:38:59Z"
      }
    },
    {
      "fullUrl": "urn:uuid:4a15ea8c-d191-45fd-9c41-97ba7dee56d2",
      "resource": {
        "resourceType": "Observation",
        "id": "4a15ea8c-d191-45fd-9c41-97ba7dee56d2",
        "meta": {
          "profile": [
            "http://hl7.eu/fhir/laboratory/StructureDefinition/Observation-resultslab-eu-lab"
          ]
        },
        "performer": [
          {
            "display": "The Central European Lab"
          }
        ],
        "category": [
          {
            "coding": [
              {
                "system": "http://terminology.hl7.org/CodeSystem/observation-category",
                "code": "laboratory"
              }
            ]
          }
        ],
        "code": {
          "coding": [
            {
              "code": "20505-4",
              "system": "http://loinc.org",
              "display": "Bilirubin.total [Mass/volume] in Urine by Test strip"
            }
          ],
          "text": "Bilirubin.total [Mass/volume] in Urine by Test strip"
        },
        "valueQuantity": {
          "system": "http://unitsofmeasure.org",
          "value": 1,
          "unit": "mg/dL",
          "code": "mg/dL"
        },
        "referenceRange": [
          {
            "low": {
              "value": 0.2,
              "code": "mg/dL",
              "system": "http://unitsofmeasure.org"
            }
          },
          {
            "high": {
              "value": 1.5,
              "code": "mg/dL",
              "system": "http://unitsofmeasure.org"
            }
          }
        ],
        "text": {
          "status": "generated",
          "div": "<div xmlns=\"http://www.w3.org/1999/xhtml\"><table class=\"hl7__eu__lab__report\"><tr><th>Test</th><th>17-Jul-2025</th><th>Reference&#xA0;Range</th><th>Unit</th></tr><tr><td>Bilirubin.total [Mass/volume] in Urine by Test strip</td><td>1.0</td><td>0.2 - 1.5</td><td></td><td>mg/dL</td></tr></table></div>"
        },
        "status": "final",
        "subject": {
          "reference": "urn:uuid:94559579-19ce-4d25-8e77-afca04069e94",
          "display": "Pelayo Casal"
        },
        "effectiveDateTime": "2025-07-17T05:38:59Z"
      }
    },
    {
      "fullUrl": "urn:uuid:ec9922d7-5065-4bdc-bf21-814dc78c4cb8",
      "resource": {
        "resourceType": "Observation",
        "id": "ec9922d7-5065-4bdc-bf21-814dc78c4cb8",
        "meta": {
          "profile": [
            "http://hl7.eu/fhir/laboratory/StructureDefinition/Observation-resultslab-eu-lab"
          ]
        },
        "performer": [
          {
            "display": "The Central European Lab"
          }
        ],
        "category": [
          {
            "coding": [
              {
                "system": "http://terminology.hl7.org/CodeSystem/observation-category",
                "code": "laboratory"
              }
            ]
          }
        ],
        "code": {
          "coding": [
            {
              "code": "5770-3",
              "system": "http://loinc.org",
              "display": "Bilirubin.total [Presence] in Urine by Test strip"
            }
          ],
          "text": "Bilirubin.total [Presence] in Urine by Test strip"
        },
        "text": {
          "status": "generated",
          "div": "<div xmlns=\"http://www.w3.org/1999/xhtml\"><table class=\"hl7__eu__lab__report\"><tr><th>Test</th><th>17-Jul-2025</th><th>Reference&#xA0;Range</th><th>Unit</th></tr><tr><td>Bilirubin.total [Presence] in Urine by Test strip</td></tr></table></div>"
        },
        "status": "final",
        "subject": {
          "reference": "urn:uuid:94559579-19ce-4d25-8e77-afca04069e94",
          "display": "Pelayo Casal"
        },
        "effectiveDateTime": "2025-07-17T05:38:59Z"
      }
    },
    {
      "fullUrl": "urn:uuid:562e3f77-5874-46ab-9b3c-b666bc8277bc",
      "resource": {
        "resourceType": "Observation",
        "id": "562e3f77-5874-46ab-9b3c-b666bc8277bc",
        "meta": {
          "profile": [
            "http://hl7.eu/fhir/laboratory/StructureDefinition/Observation-resultslab-eu-lab"
          ]
        },
        "performer": [
          {
            "display": "The Central European Lab"
          }
        ],
        "category": [
          {
            "coding": [
              {
                "system": "http://terminology.hl7.org/CodeSystem/observation-category",
                "code": "laboratory"
              }
            ]
          }
        ],
        "code": {
          "coding": [
            {
              "code": "5797-6",
              "system": "http://loinc.org",
              "display": "Ketones [Mass/volume] in Urine by Test strip"
            }
          ],
          "text": "Ketones [Mass/volume] in Urine by Test strip"
        },
        "valueQuantity": {
          "system": "http://unitsofmeasure.org",
          "value": 5.9,
          "unit": "mg/dL",
          "code": "mg/dL"
        },
        "referenceRange": [
          {
            "low": {
              "value": 0,
              "code": "mg/dL",
              "system": "http://unitsofmeasure.org"
            }
          },
          {
            "high": {
              "value": 4,
              "code": "mg/dL",
              "system": "http://unitsofmeasure.org"
            }
          }
        ],
        "interpretation": [
          {
            "coding": [
              {
                "code": "H",
                "system": "http://terminology.hl7.org/CodeSystem/v3-ObservationInterpretation",
                "display": "High"
              }
            ]
          }
        ],
        "text": {
          "status": "generated",
          "div": "<div xmlns=\"http://www.w3.org/1999/xhtml\"><table class=\"hl7__eu__lab__report\"><tr><th>Test</th><th>17-Jul-2025</th><th>Reference&#xA0;Range</th><th>Unit</th></tr><tr><td>Ketones [Mass/volume] in Urine by Test strip</td><td>5.9</td><td>0 - 4</td><td>H</td><td>mg/dL</td></tr></table></div>"
        },
        "status": "final",
        "subject": {
          "reference": "urn:uuid:94559579-19ce-4d25-8e77-afca04069e94",
          "display": "Pelayo Casal"
        },
        "effectiveDateTime": "2025-07-17T05:38:59Z"
      }
    },
    {
      "fullUrl": "urn:uuid:d37c4859-f467-49c2-a437-e3802db5dad9",
      "resource": {
        "resourceType": "Observation",
        "id": "d37c4859-f467-49c2-a437-e3802db5dad9",
        "meta": {
          "profile": [
            "http://hl7.eu/fhir/laboratory/StructureDefinition/Observation-resultslab-eu-lab"
          ]
        },
        "performer": [
          {
            "display": "The Central European Lab"
          }
        ],
        "category": [
          {
            "coding": [
              {
                "system": "http://terminology.hl7.org/CodeSystem/observation-category",
                "code": "laboratory"
              }
            ]
          }
        ],
        "code": {
          "coding": [
            {
              "code": "2514-8",
              "system": "http://loinc.org",
              "display": "Ketones [Presence] in Urine by Test strip"
            }
          ],
          "text": "Ketones [Presence] in Urine by Test strip"
        },
        "text": {
          "status": "generated",
          "div": "<div xmlns=\"http://www.w3.org/1999/xhtml\"><table class=\"hl7__eu__lab__report\"><tr><th>Test</th><th>17-Jul-2025</th><th>Reference&#xA0;Range</th><th>Unit</th></tr><tr><td>Ketones [Presence] in Urine by Test strip</td></tr></table></div>"
        },
        "status": "final",
        "subject": {
          "reference": "urn:uuid:94559579-19ce-4d25-8e77-afca04069e94",
          "display": "Pelayo Casal"
        },
        "effectiveDateTime": "2025-07-17T05:38:59Z"
      }
    },
    {
      "fullUrl": "urn:uuid:5cf93472-7282-4792-bc31-62aa38ae05fa",
      "resource": {
        "resourceType": "Observation",
        "id": "5cf93472-7282-4792-bc31-62aa38ae05fa",
        "meta": {
          "profile": [
            "http://hl7.eu/fhir/laboratory/StructureDefinition/Observation-resultslab-eu-lab"
          ]
        },
        "performer": [
          {
            "display": "The Central European Lab"
          }
        ],
        "category": [
          {
            "coding": [
              {
                "system": "http://terminology.hl7.org/CodeSystem/observation-category",
                "code": "laboratory"
              }
            ]
          }
        ],
        "code": {
          "coding": [
            {
              "code": "5811-5",
              "system": "http://loinc.org",
              "display": "Specific gravity of Urine by Test strip"
            }
          ],
          "text": "Specific gravity of Urine by Test strip"
        },
        "valueQuantity": {
          "system": "http://unitsofmeasure.org",
          "value": 1,
          "unit": "{nominal}",
          "code": "{nominal}"
        },
        "referenceRange": [
          {
            "low": {
              "value": 1.01,
              "code": "g/mL",
              "system": "http://unitsofmeasure.org"
            }
          },
          {
            "high": {
              "value": 1.03,
              "code": "g/mL",
              "system": "http://unitsofmeasure.org"
            }
          }
        ],
        "interpretation": [
          {
            "coding": [
              {
                "code": "L",
                "system": "http://terminology.hl7.org/CodeSystem/v3-ObservationInterpretation",
                "display": "Low"
              }
            ]
          }
        ],
        "text": {
          "status": "generated",
          "div": "<div xmlns=\"http://www.w3.org/1999/xhtml\"><table class=\"hl7__eu__lab__report\"><tr><th>Test</th><th>17-Jul-2025</th><th>Reference&#xA0;Range</th><th>Unit</th></tr><tr><td>Specific gravity of Urine by Test strip</td><td>1.0</td><td>1.01 - 1.03</td><td>L</td><td>{nominal}</td></tr></table></div>"
        },
        "status": "final",
        "subject": {
          "reference": "urn:uuid:94559579-19ce-4d25-8e77-afca04069e94",
          "display": "Pelayo Casal"
        },
        "effectiveDateTime": "2025-07-17T05:38:59Z"
      }
    },
    {
      "fullUrl": "urn:uuid:1b7e599b-d2af-400c-bd49-025a8a3e1fb7",
      "resource": {
        "resourceType": "Observation",
        "id": "1b7e599b-d2af-400c-bd49-025a8a3e1fb7",
        "meta": {
          "profile": [
            "http://hl7.eu/fhir/laboratory/StructureDefinition/Observation-resultslab-eu-lab"
          ]
        },
        "performer": [
          {
            "display": "The Central European Lab"
          }
        ],
        "category": [
          {
            "coding": [
              {
                "system": "http://terminology.hl7.org/CodeSystem/observation-category",
                "code": "laboratory"
              }
            ]
          }
        ],
        "code": {
          "coding": [
            {
              "code": "5803-2",
              "system": "http://loinc.org",
              "display": "pH of Urine by Test strip"
            }
          ],
          "text": "pH of Urine by Test strip"
        },
        "valueQuantity": {
          "system": "http://unitsofmeasure.org",
          "value": 5.9,
          "unit": "pH",
          "code": "pH"
        },
        "referenceRange": [
          {
            "low": {
              "value": 4.5,
              "code": "pH",
              "system": "http://unitsofmeasure.org"
            }
          },
          {
            "high": {
              "value": 7.5,
              "code": "pH",
              "system": "http://unitsofmeasure.org"
            }
          }
        ],
        "text": {
          "status": "generated",
          "div": "<div xmlns=\"http://www.w3.org/1999/xhtml\"><table class=\"hl7__eu__lab__report\"><tr><th>Test</th><th>17-Jul-2025</th><th>Reference&#xA0;Range</th><th>Unit</th></tr><tr><td>pH of Urine by Test strip</td><td>5.9</td><td>4.5 - 7.5</td><td></td><td>pH</td></tr></table></div>"
        },
        "status": "final",
        "subject": {
          "reference": "urn:uuid:94559579-19ce-4d25-8e77-afca04069e94",
          "display": "Pelayo Casal"
        },
        "effectiveDateTime": "2025-07-17T05:38:59Z"
      }
    },
    {
      "fullUrl": "urn:uuid:f0aa2d33-515a-492d-9df2-18836738e260",
      "resource": {
        "resourceType": "Observation",
        "id": "f0aa2d33-515a-492d-9df2-18836738e260",
        "meta": {
          "profile": [
            "http://hl7.eu/fhir/laboratory/StructureDefinition/Observation-resultslab-eu-lab"
          ]
        },
        "performer": [
          {
            "display": "The Central European Lab"
          }
        ],
        "category": [
          {
            "coding": [
              {
                "system": "http://terminology.hl7.org/CodeSystem/observation-category",
                "code": "laboratory"
              }
            ]
          }
        ],
        "code": {
          "coding": [
            {
              "code": "5804-0",
              "system": "http://loinc.org",
              "display": "Protein [Mass/volume] in Urine by Test strip"
            }
          ],
          "text": "Protein [Mass/volume] in Urine by Test strip"
        },
        "valueQuantity": {
          "system": "http://unitsofmeasure.org",
          "value": 152.2,
          "unit": "mg/dL",
          "code": "mg/dL"
        },
        "referenceRange": [
          {
            "low": {
              "value": 0,
              "code": "mg/dL",
              "system": "http://unitsofmeasure.org"
            }
          },
          {
            "high": {
              "value": 150,
              "code": "mg/dL",
              "system": "http://unitsofmeasure.org"
            }
          }
        ],
        "interpretation": [
          {
            "coding": [
              {
                "code": "H",
                "system": "http://terminology.hl7.org/CodeSystem/v3-ObservationInterpretation",
                "display": "High"
              }
            ]
          }
        ],
        "text": {
          "status": "generated",
          "div": "<div xmlns=\"http://www.w3.org/1999/xhtml\"><table class=\"hl7__eu__lab__report\"><tr><th>Test</th><th>17-Jul-2025</th><th>Reference&#xA0;Range</th><th>Unit</th></tr><tr><td>Protein [Mass/volume] in Urine by Test strip</td><td>152.2</td><td>0 - 150</td><td>H</td><td>mg/dL</td></tr></table></div>"
        },
        "status": "final",
        "subject": {
          "reference": "urn:uuid:94559579-19ce-4d25-8e77-afca04069e94",
          "display": "Pelayo Casal"
        },
        "effectiveDateTime": "2025-07-17T05:38:59Z"
      }
    },
    {
      "fullUrl": "urn:uuid:3ceb7f0d-f4ac-4a3b-9abb-da4d1c2bef90",
      "resource": {
        "resourceType": "Observation",
        "id": "3ceb7f0d-f4ac-4a3b-9abb-da4d1c2bef90",
        "meta": {
          "profile": [
            "http://hl7.eu/fhir/laboratory/StructureDefinition/Observation-resultslab-eu-lab"
          ]
        },
        "performer": [
          {
            "display": "The Central European Lab"
          }
        ],
        "category": [
          {
            "coding": [
              {
                "system": "http://terminology.hl7.org/CodeSystem/observation-category",
                "code": "laboratory"
              }
            ]
          }
        ],
        "code": {
          "coding": [
            {
              "code": "20454-5",
              "system": "http://loinc.org",
              "display": "Protein [Presence] in Urine by Test strip"
            }
          ],
          "text": "Protein [Presence] in Urine by Test strip"
        },
        "text": {
          "status": "generated",
          "div": "<div xmlns=\"http://www.w3.org/1999/xhtml\"><table class=\"hl7__eu__lab__report\"><tr><th>Test</th><th>17-Jul-2025</th><th>Reference&#xA0;Range</th><th>Unit</th></tr><tr><td>Protein [Presence] in Urine by Test strip</td></tr></table></div>"
        },
        "status": "final",
        "subject": {
          "reference": "urn:uuid:94559579-19ce-4d25-8e77-afca04069e94",
          "display": "Pelayo Casal"
        },
        "effectiveDateTime": "2025-07-17T05:38:59Z"
      }
    },
    {
      "fullUrl": "urn:uuid:f96b4ee4-d45e-4673-9393-36adf6eefebc",
      "resource": {
        "resourceType": "Observation",
        "id": "f96b4ee4-d45e-4673-9393-36adf6eefebc",
        "meta": {
          "profile": [
            "http://hl7.eu/fhir/laboratory/StructureDefinition/Observation-resultslab-eu-lab"
          ]
        },
        "performer": [
          {
            "display": "The Central European Lab"
          }
        ],
        "category": [
          {
            "coding": [
              {
                "system": "http://terminology.hl7.org/CodeSystem/observation-category",
                "code": "laboratory"
              }
            ]
          }
        ],
        "code": {
          "coding": [
            {
              "code": "5802-4",
              "system": "http://loinc.org",
              "display": "Nitrite [Presence] in Urine by Test strip"
            }
          ],
          "text": "Nitrite [Presence] in Urine by Test strip"
        },
        "text": {
          "status": "generated",
          "div": "<div xmlns=\"http://www.w3.org/1999/xhtml\"><table class=\"hl7__eu__lab__report\"><tr><th>Test</th><th>17-Jul-2025</th><th>Reference&#xA0;Range</th><th>Unit</th></tr><tr><td>Nitrite [Presence] in Urine by Test strip</td></tr></table></div>"
        },
        "status": "final",
        "subject": {
          "reference": "urn:uuid:94559579-19ce-4d25-8e77-afca04069e94",
          "display": "Pelayo Casal"
        },
        "effectiveDateTime": "2025-07-17T05:38:59Z"
      }
    },
    {
      "fullUrl": "urn:uuid:cc3eaad3-74a8-49c3-8661-558db4936861",
      "resource": {
        "resourceType": "Observation",
        "id": "cc3eaad3-74a8-49c3-8661-558db4936861",
        "meta": {
          "profile": [
            "http://hl7.eu/fhir/laboratory/StructureDefinition/Observation-resultslab-eu-lab"
          ]
        },
        "performer": [
          {
            "display": "The Central European Lab"
          }
        ],
        "category": [
          {
            "coding": [
              {
                "system": "http://terminology.hl7.org/CodeSystem/observation-category",
                "code": "laboratory"
              }
            ]
          }
        ],
        "code": {
          "coding": [
            {
              "code": "5794-3",
              "system": "http://loinc.org",
              "display": "Hemoglobin [Presence] in Urine by Test strip"
            }
          ],
          "text": "Hemoglobin [Presence] in Urine by Test strip"
        },
        "text": {
          "status": "generated",
          "div": "<div xmlns=\"http://www.w3.org/1999/xhtml\"><table class=\"hl7__eu__lab__report\"><tr><th>Test</th><th>17-Jul-2025</th><th>Reference&#xA0;Range</th><th>Unit</th></tr><tr><td>Hemoglobin [Presence] in Urine by Test strip</td></tr></table></div>"
        },
        "status": "final",
        "subject": {
          "reference": "urn:uuid:94559579-19ce-4d25-8e77-afca04069e94",
          "display": "Pelayo Casal"
        },
        "effectiveDateTime": "2025-07-17T05:38:59Z"
      }
    },
    {
      "fullUrl": "urn:uuid:c4ceb53c-92c8-4f45-a29c-f405eab99ee7",
      "resource": {
        "resourceType": "Observation",
        "id": "c4ceb53c-92c8-4f45-a29c-f405eab99ee7",
        "meta": {
          "profile": [
            "http://hl7.eu/fhir/laboratory/StructureDefinition/Observation-resultslab-eu-lab"
          ]
        },
        "performer": [
          {
            "display": "The Central European Lab"
          }
        ],
        "category": [
          {
            "coding": [
              {
                "system": "http://terminology.hl7.org/CodeSystem/observation-category",
                "code": "laboratory"
              }
            ]
          }
        ],
        "code": {
          "coding": [
            {
              "code": "5799-2",
              "system": "http://loinc.org",
              "display": "Leukocyte esterase [Presence] in Urine by Test strip"
            }
          ],
          "text": "Leukocyte esterase [Presence] in Urine by Test strip"
        },
        "text": {
          "status": "generated",
          "div": "<div xmlns=\"http://www.w3.org/1999/xhtml\"><table class=\"hl7__eu__lab__report\"><tr><th>Test</th><th>17-Jul-2025</th><th>Reference&#xA0;Range</th><th>Unit</th></tr><tr><td>Leukocyte esterase [Presence] in Urine by Test strip</td></tr></table></div>"
        },
        "status": "final",
        "subject": {
          "reference": "urn:uuid:94559579-19ce-4d25-8e77-afca04069e94",
          "display": "Pelayo Casal"
        },
        "effectiveDateTime": "2025-07-17T05:38:59Z"
      }
    },
    {
      "fullUrl": "urn:uuid:0798beb8-9359-4c7e-bba7-52f410f262b6",
      "resource": {
        "resourceType": "Observation",
        "id": "0798beb8-9359-4c7e-bba7-52f410f262b6",
        "meta": {
          "profile": [
            "http://hl7.eu/fhir/laboratory/StructureDefinition/Observation-resultslab-eu-lab"
          ]
        },
        "performer": [
          {
            "display": "The Central European Lab"
          }
        ],
        "category": [
          {
            "coding": [
              {
                "system": "http://terminology.hl7.org/CodeSystem/observation-category",
                "code": "laboratory"
              }
            ]
          }
        ],
        "code": {
          "coding": [
            {
              "code": "4548-4",
              "system": "http://loinc.org",
              "display": "Hemoglobin A1c/Hemoglobin.total in Blood"
            }
          ],
          "text": "Hemoglobin A1c/Hemoglobin.total in Blood"
        },
        "valueQuantity": {
          "system": "http://unitsofmeasure.org",
          "value": 3.1,
          "unit": "%",
          "code": "%"
        },
        "referenceRange": [
          {
            "low": {
              "value": 4.5,
              "code": "%",
              "system": "http://unitsofmeasure.org"
            }
          },
          {
            "high": {
              "value": 6.4,
              "code": "%",
              "system": "http://unitsofmeasure.org"
            }
          }
        ],
        "interpretation": [
          {
            "coding": [
              {
                "code": "L",
                "system": "http://terminology.hl7.org/CodeSystem/v3-ObservationInterpretation",
                "display": "Low"
              }
            ]
          }
        ],
        "text": {
          "status": "generated",
          "div": "<div xmlns=\"http://www.w3.org/1999/xhtml\"><table class=\"hl7__eu__lab__report\"><tr><th>Test</th><th>17-Jul-2025</th><th>Reference&#xA0;Range</th><th>Unit</th></tr><tr><td>Hemoglobin A1c/Hemoglobin.total in Blood</td><td>3.1</td><td>4.5 - 6.4</td><td>L</td><td>%</td></tr></table></div>"
        },
        "status": "final",
        "subject": {
          "reference": "urn:uuid:94559579-19ce-4d25-8e77-afca04069e94",
          "display": "Pelayo Casal"
        },
        "effectiveDateTime": "2025-07-17T05:38:59Z"
      }
    },
    {
      "fullUrl": "urn:uuid:f4cb806d-1f8d-4ebd-9145-07835c6eb9aa",
      "resource": {
        "resourceType": "Observation",
        "id": "f4cb806d-1f8d-4ebd-9145-07835c6eb9aa",
        "meta": {
          "profile": [
            "http://hl7.eu/fhir/laboratory/StructureDefinition/Observation-resultslab-eu-lab"
          ]
        },
        "performer": [
          {
            "display": "The Central European Lab"
          }
        ],
        "category": [
          {
            "coding": [
              {
                "system": "http://terminology.hl7.org/CodeSystem/observation-category",
                "code": "laboratory"
              }
            ]
          }
        ],
        "code": {
          "coding": [
            {
              "code": "2339-0",
              "system": "http://loinc.org",
              "display": "Glucose [Mass/volume] in Blood"
            }
          ],
          "text": "Glucose [Mass/volume] in Blood"
        },
        "valueQuantity": {
          "system": "http://unitsofmeasure.org",
          "value": 94.5,
          "unit": "mg/dL",
          "code": "mg/dL"
        },
        "referenceRange": [
          {
            "low": {
              "value": 70,
              "code": "mg/dL",
              "system": "http://unitsofmeasure.org"
            }
          },
          {
            "high": {
              "value": 140,
              "code": "mg/dL",
              "system": "http://unitsofmeasure.org"
            }
          }
        ],
        "text": {
          "status": "generated",
          "div": "<div xmlns=\"http://www.w3.org/1999/xhtml\"><table class=\"hl7__eu__lab__report\"><tr><th>Test</th><th>17-Jul-2025</th><th>Reference&#xA0;Range</th><th>Unit</th></tr><tr><td>Glucose [Mass/volume] in Blood</td><td>94.5</td><td>70 - 140</td><td></td><td>mg/dL</td></tr></table></div>"
        },
        "status": "final",
        "subject": {
          "reference": "urn:uuid:94559579-19ce-4d25-8e77-afca04069e94",
          "display": "Pelayo Casal"
        },
        "effectiveDateTime": "2025-07-17T05:38:59Z"
      }
    },
    {
      "fullUrl": "urn:uuid:c808e7dc-d53a-4f3b-b401-bd6473e8588a",
      "resource": {
        "resourceType": "Observation",
        "id": "c808e7dc-d53a-4f3b-b401-bd6473e8588a",
        "meta": {
          "profile": [
            "http://hl7.eu/fhir/laboratory/StructureDefinition/Observation-resultslab-eu-lab"
          ]
        },
        "performer": [
          {
            "display": "The Central European Lab"
          }
        ],
        "category": [
          {
            "coding": [
              {
                "system": "http://terminology.hl7.org/CodeSystem/observation-category",
                "code": "laboratory"
              }
            ]
          }
        ],
        "code": {
          "coding": [
            {
              "code": "6299-2",
              "system": "http://loinc.org",
              "display": "Urea nitrogen [Mass/volume] in Blood"
            }
          ],
          "text": "Urea nitrogen [Mass/volume] in Blood"
        },
        "valueQuantity": {
          "system": "http://unitsofmeasure.org",
          "value": 13.5,
          "unit": "mg/dL",
          "code": "mg/dL"
        },
        "referenceRange": [
          {
            "low": {
              "value": 7,
              "code": "mg/dL",
              "system": "http://unitsofmeasure.org"
            }
          },
          {
            "high": {
              "value": 25,
              "code": "mg/dL",
              "system": "http://unitsofmeasure.org"
            }
          }
        ],
        "text": {
          "status": "generated",
          "div": "<div xmlns=\"http://www.w3.org/1999/xhtml\"><table class=\"hl7__eu__lab__report\"><tr><th>Test</th><th>17-Jul-2025</th><th>Reference&#xA0;Range</th><th>Unit</th></tr><tr><td>Urea nitrogen [Mass/volume] in Blood</td><td>13.5</td><td>7 - 25</td><td></td><td>mg/dL</td></tr></table></div>"
        },
        "status": "final",
        "subject": {
          "reference": "urn:uuid:94559579-19ce-4d25-8e77-afca04069e94",
          "display": "Pelayo Casal"
        },
        "effectiveDateTime": "2025-07-17T05:38:59Z"
      }
    },
    {
      "fullUrl": "urn:uuid:64ba69fe-8780-478e-996d-69e62fc17556",
      "resource": {
        "resourceType": "Observation",
        "id": "64ba69fe-8780-478e-996d-69e62fc17556",
        "meta": {
          "profile": [
            "http://hl7.eu/fhir/laboratory/StructureDefinition/Observation-resultslab-eu-lab"
          ]
        },
        "performer": [
          {
            "display": "The Central European Lab"
          }
        ],
        "category": [
          {
            "coding": [
              {
                "system": "http://terminology.hl7.org/CodeSystem/observation-category",
                "code": "laboratory"
              }
            ]
          }
        ],
        "code": {
          "coding": [
            {
              "code": "38483-4",
              "system": "http://loinc.org",
              "display": "Creatinine [Mass/volume] in Blood"
            }
          ],
          "text": "Creatinine [Mass/volume] in Blood"
        },
        "valueQuantity": {
          "system": "http://unitsofmeasure.org",
          "value": 1.5,
          "unit": "mg/dL",
          "code": "mg/dL"
        },
        "referenceRange": [
          {
            "low": {
              "value": 0.9,
              "code": "mg/dL",
              "system": "http://unitsofmeasure.org"
            }
          },
          {
            "high": {
              "value": 1.3,
              "code": "mg/dL",
              "system": "http://unitsofmeasure.org"
            }
          }
        ],
        "interpretation": [
          {
            "coding": [
              {
                "code": "H",
                "system": "http://terminology.hl7.org/CodeSystem/v3-ObservationInterpretation",
                "display": "High"
              }
            ]
          }
        ],
        "text": {
          "status": "generated",
          "div": "<div xmlns=\"http://www.w3.org/1999/xhtml\"><table class=\"hl7__eu__lab__report\"><tr><th>Test</th><th>17-Jul-2025</th><th>Reference&#xA0;Range</th><th>Unit</th></tr><tr><td>Creatinine [Mass/volume] in Blood</td><td>1.5</td><td>0.9 - 1.3</td><td>H</td><td>mg/dL</td></tr></table></div>"
        },
        "status": "final",
        "subject": {
          "reference": "urn:uuid:94559579-19ce-4d25-8e77-afca04069e94",
          "display": "Pelayo Casal"
        },
        "effectiveDateTime": "2025-07-17T05:38:59Z"
      }
    },
    {
      "fullUrl": "urn:uuid:74acc5e1-cb33-45d6-80cc-a92b95796a0e",
      "resource": {
        "resourceType": "Observation",
        "id": "74acc5e1-cb33-45d6-80cc-a92b95796a0e",
        "meta": {
          "profile": [
            "http://hl7.eu/fhir/laboratory/StructureDefinition/Observation-resultslab-eu-lab"
          ]
        },
        "performer": [
          {
            "display": "The Central European Lab"
          }
        ],
        "category": [
          {
            "coding": [
              {
                "system": "http://terminology.hl7.org/CodeSystem/observation-category",
                "code": "laboratory"
              }
            ]
          }
        ],
        "code": {
          "coding": [
            {
              "code": "49765-1",
              "system": "http://loinc.org",
              "display": "Calcium [Mass/volume] in Blood"
            }
          ],
          "text": "Calcium [Mass/volume] in Blood"
        },
        "valueQuantity": {
          "system": "http://unitsofmeasure.org",
          "value": 9,
          "unit": "mg/dL",
          "code": "mg/dL"
        },
        "referenceRange": [
          {
            "low": {
              "value": 8.6,
              "code": "mg/dL",
              "system": "http://unitsofmeasure.org"
            }
          },
          {
            "high": {
              "value": 10.2,
              "code": "mg/dL",
              "system": "http://unitsofmeasure.org"
            }
          }
        ],
        "text": {
          "status": "generated",
          "div": "<div xmlns=\"http://www.w3.org/1999/xhtml\"><table class=\"hl7__eu__lab__report\"><tr><th>Test</th><th>17-Jul-2025</th><th>Reference&#xA0;Range</th><th>Unit</th></tr><tr><td>Calcium [Mass/volume] in Blood</td><td>9.0</td><td>8.6 - 10.2</td><td></td><td>mg/dL</td></tr></table></div>"
        },
        "status": "final",
        "subject": {
          "reference": "urn:uuid:94559579-19ce-4d25-8e77-afca04069e94",
          "display": "Pelayo Casal"
        },
        "effectiveDateTime": "2025-07-17T05:38:59Z"
      }
    },
    {
      "fullUrl": "urn:uuid:a4fb905d-1cc4-4c90-a15e-8ee1b6d42dc8",
      "resource": {
        "resourceType": "Observation",
        "id": "a4fb905d-1cc4-4c90-a15e-8ee1b6d42dc8",
        "meta": {
          "profile": [
            "http://hl7.eu/fhir/laboratory/StructureDefinition/Observation-resultslab-eu-lab"
          ]
        },
        "performer": [
          {
            "display": "The Central European Lab"
          }
        ],
        "category": [
          {
            "coding": [
              {
                "system": "http://terminology.hl7.org/CodeSystem/observation-category",
                "code": "laboratory"
              }
            ]
          }
        ],
        "code": {
          "coding": [
            {
              "code": "2947-0",
              "system": "http://loinc.org",
              "display": "Sodium [Moles/volume] in Blood"
            }
          ],
          "text": "Sodium [Moles/volume] in Blood"
        },
        "valueQuantity": {
          "system": "http://unitsofmeasure.org",
          "value": 136.4,
          "unit": "mmol/L",
          "code": "mmol/L"
        },
        "referenceRange": [
          {
            "low": {
              "value": 135,
              "code": "mmol/L",
              "system": "http://unitsofmeasure.org"
            }
          },
          {
            "high": {
              "value": 145,
              "code": "mmol/L",
              "system": "http://unitsofmeasure.org"
            }
          }
        ],
        "text": {
          "status": "generated",
          "div": "<div xmlns=\"http://www.w3.org/1999/xhtml\"><table class=\"hl7__eu__lab__report\"><tr><th>Test</th><th>17-Jul-2025</th><th>Reference&#xA0;Range</th><th>Unit</th></tr><tr><td>Sodium [Moles/volume] in Blood</td><td>136.4</td><td>135 - 145</td><td></td><td>mmol/L</td></tr></table></div>"
        },
        "status": "final",
        "subject": {
          "reference": "urn:uuid:94559579-19ce-4d25-8e77-afca04069e94",
          "display": "Pelayo Casal"
        },
        "effectiveDateTime": "2025-07-17T05:38:59Z"
      }
    },
    {
      "fullUrl": "urn:uuid:9b1cc779-3447-470d-b6f5-536cf6a4bbcd",
      "resource": {
        "resourceType": "Observation",
        "id": "9b1cc779-3447-470d-b6f5-536cf6a4bbcd",
        "meta": {
          "profile": [
            "http://hl7.eu/fhir/laboratory/StructureDefinition/Observation-resultslab-eu-lab"
          ]
        },
        "performer": [
          {
            "display": "The Central European Lab"
          }
        ],
        "category": [
          {
            "coding": [
              {
                "system": "http://terminology.hl7.org/CodeSystem/observation-category",
                "code": "laboratory"
              }
            ]
          }
        ],
        "code": {
          "coding": [
            {
              "code": "6298-4",
              "system": "http://loinc.org",
              "display": "Potassium [Moles/volume] in Blood"
            }
          ],
          "text": "Potassium [Moles/volume] in Blood"
        },
        "valueQuantity": {
          "system": "http://unitsofmeasure.org",
          "value": 4.5,
          "unit": "mmol/L",
          "code": "mmol/L"
        },
        "referenceRange": [
          {
            "low": {
              "value": 3.5,
              "code": "mmol/L",
              "system": "http://unitsofmeasure.org"
            }
          },
          {
            "high": {
              "value": 5.1,
              "code": "mmol/L",
              "system": "http://unitsofmeasure.org"
            }
          }
        ],
        "text": {
          "status": "generated",
          "div": "<div xmlns=\"http://www.w3.org/1999/xhtml\"><table class=\"hl7__eu__lab__report\"><tr><th>Test</th><th>17-Jul-2025</th><th>Reference&#xA0;Range</th><th>Unit</th></tr><tr><td>Potassium [Moles/volume] in Blood</td><td>4.5</td><td>3.5 - 5.1</td><td></td><td>mmol/L</td></tr></table></div>"
        },
        "status": "final",
        "subject": {
          "reference": "urn:uuid:94559579-19ce-4d25-8e77-afca04069e94",
          "display": "Pelayo Casal"
        },
        "effectiveDateTime": "2025-07-17T05:38:59Z"
      }
    },
    {
      "fullUrl": "urn:uuid:8044b9fd-c495-4839-a622-75e9bb076a9b",
      "resource": {
        "resourceType": "Observation",
        "id": "8044b9fd-c495-4839-a622-75e9bb076a9b",
        "meta": {
          "profile": [
            "http://hl7.eu/fhir/laboratory/StructureDefinition/Observation-resultslab-eu-lab"
          ]
        },
        "performer": [
          {
            "display": "The Central European Lab"
          }
        ],
        "category": [
          {
            "coding": [
              {
                "system": "http://terminology.hl7.org/CodeSystem/observation-category",
                "code": "laboratory"
              }
            ]
          }
        ],
        "code": {
          "coding": [
            {
              "code": "2069-3",
              "system": "http://loinc.org",
              "display": "Chloride [Moles/volume] in Blood"
            }
          ],
          "text": "Chloride [Moles/volume] in Blood"
        },
        "valueQuantity": {
          "system": "http://unitsofmeasure.org",
          "value": 107.5,
          "unit": "mmol/L",
          "code": "mmol/L"
        },
        "referenceRange": [
          {
            "low": {
              "value": 98,
              "code": "mmol/L",
              "system": "http://unitsofmeasure.org"
            }
          },
          {
            "high": {
              "value": 108,
              "code": "mmol/L",
              "system": "http://unitsofmeasure.org"
            }
          }
        ],
        "text": {
          "status": "generated",
          "div": "<div xmlns=\"http://www.w3.org/1999/xhtml\"><table class=\"hl7__eu__lab__report\"><tr><th>Test</th><th>17-Jul-2025</th><th>Reference&#xA0;Range</th><th>Unit</th></tr><tr><td>Chloride [Moles/volume] in Blood</td><td>107.5</td><td>98 - 108</td><td></td><td>mmol/L</td></tr></table></div>"
        },
        "status": "final",
        "subject": {
          "reference": "urn:uuid:94559579-19ce-4d25-8e77-afca04069e94",
          "display": "Pelayo Casal"
        },
        "effectiveDateTime": "2025-07-17T05:38:59Z"
      }
    },
    {
      "fullUrl": "urn:uuid:712ee955-6640-4a17-8ca3-bdcfaddcf0c3",
      "resource": {
        "resourceType": "Observation",
        "id": "712ee955-6640-4a17-8ca3-bdcfaddcf0c3",
        "meta": {
          "profile": [
            "http://hl7.eu/fhir/laboratory/StructureDefinition/Observation-resultslab-eu-lab"
          ]
        },
        "performer": [
          {
            "display": "The Central European Lab"
          }
        ],
        "category": [
          {
            "coding": [
              {
                "system": "http://terminology.hl7.org/CodeSystem/observation-category",
                "code": "laboratory"
              }
            ]
          }
        ],
        "code": {
          "coding": [
            {
              "code": "20565-8",
              "system": "http://loinc.org",
              "display": "Carbon dioxide, total [Moles/volume] in Blood"
            }
          ],
          "text": "Carbon dioxide, total [Moles/volume] in Blood"
        },
        "valueQuantity": {
          "system": "http://unitsofmeasure.org",
          "value": 26.9,
          "unit": "mmol/L",
          "code": "mmol/L"
        },
        "referenceRange": [
          {
            "low": {
              "value": 22,
              "code": "mmol/L",
              "system": "http://unitsofmeasure.org"
            }
          },
          {
            "high": {
              "value": 32,
              "code": "mmol/L",
              "system": "http://unitsofmeasure.org"
            }
          }
        ],
        "text": {
          "status": "generated",
          "div": "<div xmlns=\"http://www.w3.org/1999/xhtml\"><table class=\"hl7__eu__lab__report\"><tr><th>Test</th><th>17-Jul-2025</th><th>Reference&#xA0;Range</th><th>Unit</th></tr><tr><td>Carbon dioxide, total [Moles/volume] in Blood</td><td>26.9</td><td>22 - 32</td><td></td><td>mmol/L</td></tr></table></div>"
        },
        "status": "final",
        "subject": {
          "reference": "urn:uuid:94559579-19ce-4d25-8e77-afca04069e94",
          "display": "Pelayo Casal"
        },
        "effectiveDateTime": "2025-07-17T05:38:59Z"
      }
    },
    {
      "fullUrl": "urn:uuid:35bf5bbf-3f7d-4611-a408-2a5caf824e6b",
      "resource": {
        "resourceType": "DeviceUseStatement",
        "id": "35bf5bbf-3f7d-4611-a408-2a5caf824e6b",
        "meta": {
          "profile": [
            "http://hl7.eu/fhir/eps/StructureDefinition/deviceUseStatement-eu-eps"
          ]
        },
        "timingPeriod": {
          "start": "1968-10-31"
        },
        "text": {
          "status": "generated",
          "div": "<div xmlns=\"http://www.w3.org/1999/xhtml\"><table class=\"hl7__ips\"><tr><td>Blood glucose meter (physical object)</td><td><span class=\"nb\">31-Oct-1968</span></td></tr></table></div>"
        },
        "status": "active",
        "device": {
          "reference": "urn:uuid:9af19c7a-4caa-4813-8cf0-dbe4a7b45c03",
          "display": "Blood glucose meter (physical object)"
        },
        "subject": {
          "reference": "urn:uuid:94559579-19ce-4d25-8e77-afca04069e94",
          "display": "Pelayo Casal"
        }
      }
    },
    {
      "fullUrl": "urn:uuid:9af19c7a-4caa-4813-8cf0-dbe4a7b45c03",
      "resource": {
        "resourceType": "Device",
        "id": "9af19c7a-4caa-4813-8cf0-dbe4a7b45c03",
        "meta": {
          "profile": [
            "http://hl7.eu/fhir/eps/StructureDefinition/device-eu-eps"
          ]
        },
        "udiCarrier": [
          {
            "id": "(01)74620553433042(11)681010(17)931025(10)15754(21)397462225992893668"
          }
        ],
        "status": "active",
        "patient": {
          "reference": "urn:uuid:94559579-19ce-4d25-8e77-afca04069e94",
          "display": "Pelayo Casal"
        },
        "type": {
          "coding": [
            {
              "code": "337414009",
              "system": "http://snomed.info/sct",
              "display": "Blood glucose meter (physical object)"
            }
          ]
        }
      }
    },
    {
      "fullUrl": "urn:uuid:171f8ca6-f551-4a49-ae8c-5745c83ed9ee",
      "resource": {
        "resourceType": "Device",
        "id": "171f8ca6-f551-4a49-ae8c-5745c83ed9ee",
        "deviceName": [
          {
            "name": "SYNDERAI Synthetic Generator",
            "type": "manufacturer-name"
          }
        ],
        "version": [
          {
            "value": "5.0"
          }
        ],
        "text": {
          "status": "generated",
          "div": "<div xmlns=\"http://www.w3.org/1999/xhtml\">SYNDERAI Synthetic Generator v5.0</div>"
        },
        "status": "active\"",
        "distinctIdentifier": "synderai-generator-50",
        "manufacturer": "SYNDERAI Project"
      }
    },
    {
      "fullUrl": "urn:uuid:31254afc-d11e-4144-a1c2-376f58b62abe",
      "resource": {
        "resourceType": "Provenance",
        "id": "31254afc-d11e-4144-a1c2-376f58b62abe",
        "target": [
          {
            "reference": "Patient/94559579-19ce-4d25-8e77-afca04069e94"
          },
          {
            "reference": "Bundle/d7767aee-0acf-4f58-8c35-ed158a2527d9"
          },
          {
            "reference": "Composition/cdf11e58-15b7-4d90-9ccc-efaed6939415"
          },
          {
            "reference": "PractitionerRole/a26e13c2-c3f0-475d-aba9-c67ba6bd273b"
          },
          {
            "reference": "Organization/d2dd136c-762a-4009-a674-e648e665cd4d"
          },
          {
            "reference": "Practitioner/0fd8f27d-8665-4b90-a5e0-5c0d6b3ae46b"
          }
        ],
        "activity": {
          "text": "Synthetic Example Data Generation"
        },
        "policy": [
          "https://synderai.net/synderai-synthetic-data-policy"
        ],
        "agent": [
          {
            "type": {
              "text": "author"
            },
            "who": {
              "reference": "Device/171f8ca6-f551-4a49-ae8c-5745c83ed9ee"
            }
          }
        ],
        "reason": [
          {
            "text": "Interoperability Testing and Training (non-clinical use)"
          }
        ],
        "text": {
          "status": "generated",
          "div": "<div xmlns=\"http://www.w3.org/1999/xhtml\">Provenance for SYNDERAI Synthetic Example Data Resource</div>"
        },
        "recorded": "2025-07-17T05:38:59Z"
      }
    }
  ],
  "type": "document",
  "timestamp": "2025-07-17T05:38:59Z"
}
